participant,date,expName,psychopyVersion,OS,frameRate,space_1.keys,space_1.rt,space_2.keys,space_2.rt,space_train.keys,space_train.rt,training.thisRepN,training.thisTrialN,training.thisN,training.thisIndex,training.ran,token_id,task,continuum,vowel,series,sound_1,sound_2,img,same,trained,FJ_attn.keys,FJ_attn.rt,space_attn.keys,space_attn.rt,if_attn_test.thisRepN,if_attn_test.thisTrialN,if_attn_test.thisN,if_attn_test.thisIndex,if_attn_test.ran,space_trans_1.keys,space_trans_1.rt,space_trans_11.keys,space_trans_11.rt,FJ_test.keys,FJ_test.rt,space_test.keys,space_test.rt,testing_pre.thisRepN,testing_pre.thisTrialN,testing_pre.thisN,testing_pre.thisIndex,testing_pre.ran,space_trans_2.keys,space_trans_2.rt,testing_all.thisRepN,testing_all.thisTrialN,testing_all.thisN,testing_all.thisIndex,testing_all.ran,space_ending.keys,space_ending.rt
563e35190980220011572d9a,2023-06-16_10h31.04.674,phx_ver10,2022.2.5,MacIntel,58.82352941,,,,,,,,,,,,,,,,,,,,,,,,,,,,,,,,,,,,,,,,,,,,,,,,,,,,
563e35190980220011572d9a,2023-06-16_10h31.04.674,phx_ver10,2022.2.5,MacIntel,58.82352941,space,26.448,,,,,,,,,,,,,,,,,,,,,,,,,,,,,,,,,,,,,,,,,,,,,,,,,,
563e35190980220011572d9a,2023-06-16_10h31.04.674,phx_ver10,2022.2.5,MacIntel,58.82352941,,,space,0.969,,,,,,,,,,,,,,,,,,,,,,,,,,,,,,,,,,,,,,,,,,,,,,,,
563e35190980220011572d9a,2023-06-16_10h31.04.674,phx_ver10,2022.2.5,MacIntel,58.82352941,,,,,space,4.53,0,0,0,42,1,43,training,zh2x,i,zh2x_i,zh2x_6_ixi.wav,,ixi.jpg,,,,,,,,,,,,,,,,,,,,,,,,,,,,,,,,,
563e35190980220011572d9a,2023-06-16_10h31.04.674,phx_ver10,2022.2.5,MacIntel,58.82352941,,,,,space,3.885,0,1,1,2,1,3,training,zh2x,a,zh2x_a,zh2x_2_azha.wav,,azha.jpg,,,,,,,,,,,,,,,,,,,,,,,,,,,,,,,,,
563e35190980220011572d9a,2023-06-16_10h31.04.674,phx_ver10,2022.2.5,MacIntel,58.82352941,,,,,space,4.026,0,2,2,23,1,24,training,zh2x,e,zh2x_e,zh2x_4_ezhe.wav,,ezhe.jpg,,,,,,,,,,,,,,,,,,,,,,,,,,,,,,,,,
563e35190980220011572d9a,2023-06-16_10h31.04.674,phx_ver10,2022.2.5,MacIntel,58.82352941,,,,,space,3.334,0,3,3,27,1,28,training,zh2x,e,zh2x_e,zh2x_7_exe.wav,,exe.jpg,,,,,,,,,,,,,,,,,,,,,,,,,,,,,,,,,
563e35190980220011572d9a,2023-06-16_10h31.04.674,phx_ver10,2022.2.5,MacIntel,58.82352941,,,,,space,0.774,0,4,4,22,1,23,training,zh2x,e,zh2x_e,zh2x_3_ezhe.wav,,ezhe.jpg,,,,,,,,,,,,,,,,,,,,,,,,,,,,,,,,,
563e35190980220011572d9a,2023-06-16_10h31.04.674,phx_ver10,2022.2.5,MacIntel,58.82352941,,,,,space,3.601,0,5,5,38,1,39,training,zh2x,i,zh2x_i,zh2x_3_izhi.wav,,izhi.jpg,,,,,,,,,,,,,,,,,,,,,,,,,,,,,,,,,
563e35190980220011572d9a,2023-06-16_10h31.04.674,phx_ver10,2022.2.5,MacIntel,58.82352941,,,,,,,,,,,,,attn_test,,,,zh2x_1_azha.wav,zh2x_8_ixi.wav,azha.jpg,LEFT,,f,3.264,space,4.378,0,0,0,0,1,,,,,,,,,,,,,,,,,,,,,,
563e35190980220011572d9a,2023-06-16_10h31.04.674,phx_ver10,2022.2.5,MacIntel,58.82352941,,,,,space,3.675,0,6,6,15,1,16,training,zh2x,a,zh2x_a,zh2x_8_axa.wav,,axa.jpg,,,,,,,,,,,,,,,,,,,,,,,,,,,,,,,,,
563e35190980220011572d9a,2023-06-16_10h31.04.674,phx_ver10,2022.2.5,MacIntel,58.82352941,,,,,space,3.12,0,7,7,20,1,21,training,zh2x,e,zh2x_e,zh2x_2_ezhe.wav,,ezhe.jpg,,,,,,,,,,,,,,,,,,,,,,,,,,,,,,,,,
563e35190980220011572d9a,2023-06-16_10h31.04.674,phx_ver10,2022.2.5,MacIntel,58.82352941,,,,,space,3.173,0,8,8,25,1,26,training,zh2x,e,zh2x_e,zh2x_6_exe.wav,,exe.jpg,,,,,,,,,,,,,,,,,,,,,,,,,,,,,,,,,
563e35190980220011572d9a,2023-06-16_10h31.04.674,phx_ver10,2022.2.5,MacIntel,58.82352941,,,,,space,0.766,0,9,9,10,1,11,training,zh2x,a,zh2x_a,zh2x_6_axa.wav,,axa.jpg,,,,,,,,,,,,,,,,,,,,,,,,,,,,,,,,,
563e35190980220011572d9a,2023-06-16_10h31.04.674,phx_ver10,2022.2.5,MacIntel,58.82352941,,,,,space,0.534,0,10,10,16,1,17,training,zh2x,e,zh2x_e,zh2x_1_ezhe.wav,,ezhe.jpg,,,,,,,,,,,,,,,,,,,,,,,,,,,,,,,,,
563e35190980220011572d9a,2023-06-16_10h31.04.674,phx_ver10,2022.2.5,MacIntel,58.82352941,,,,,space,0.519,0,11,11,32,1,33,training,zh2x,i,zh2x_i,zh2x_1_izhi.wav,,izhi.jpg,,,,,,,,,,,,,,,,,,,,,,,,,,,,,,,,,
563e35190980220011572d9a,2023-06-16_10h31.04.674,phx_ver10,2022.2.5,MacIntel,58.82352941,,,,,,,,,,,,,attn_test,,,,zh2x_8_ixi.wav,zh2x_8_axa.wav,axa.jpg,RIGHT,,j,0.668,space,1.552,0,0,0,0,1,,,,,,,,,,,,,,,,,,,,,,
563e35190980220011572d9a,2023-06-16_10h31.04.674,phx_ver10,2022.2.5,MacIntel,58.82352941,,,,,space,0.55,0,12,12,13,1,14,training,zh2x,a,zh2x_a,zh2x_7_axa.wav,,axa.jpg,,,,,,,,,,,,,,,,,,,,,,,,,,,,,,,,,
563e35190980220011572d9a,2023-06-16_10h31.04.674,phx_ver10,2022.2.5,MacIntel,58.82352941,,,,,space,2.651,0,13,13,7,1,8,training,zh2x,a,zh2x_a,zh2x_4_azha.wav,,azha.jpg,,,,,,,,,,,,,,,,,,,,,,,,,,,,,,,,,
563e35190980220011572d9a,2023-06-16_10h31.04.674,phx_ver10,2022.2.5,MacIntel,58.82352941,,,,,space,0.984,0,14,14,45,1,46,training,zh2x,i,zh2x_i,zh2x_7_ixi.wav,,ixi.jpg,,,,,,,,,,,,,,,,,,,,,,,,,,,,,,,,,
563e35190980220011572d9a,2023-06-16_10h31.04.674,phx_ver10,2022.2.5,MacIntel,58.82352941,,,,,space,0.339,0,15,15,1,1,2,training,zh2x,a,zh2x_a,zh2x_2_azha.wav,,azha.jpg,,,,,,,,,,,,,,,,,,,,,,,,,,,,,,,,,
563e35190980220011572d9a,2023-06-16_10h31.04.674,phx_ver10,2022.2.5,MacIntel,58.82352941,,,,,space,0.353,0,16,16,43,1,44,training,zh2x,i,zh2x_i,zh2x_7_ixi.wav,,ixi.jpg,,,,,,,,,,,,,,,,,,,,,,,,,,,,,,,,,
563e35190980220011572d9a,2023-06-16_10h31.04.674,phx_ver10,2022.2.5,MacIntel,58.82352941,,,,,space,0.118,0,17,17,5,1,6,training,zh2x,a,zh2x_a,zh2x_3_azha.wav,,azha.jpg,,,,,,,,,,,,,,,,,,,,,,,,,,,,,,,,,
563e35190980220011572d9a,2023-06-16_10h31.04.674,phx_ver10,2022.2.5,MacIntel,58.82352941,,,,,,,,,,,,,attn_test,,,,zh2x_8_ixi.wav,zh2x_1_azha.wav,azha.jpg,RIGHT,,j,0.717,space,1.183,0,0,0,0,1,,,,,,,,,,,,,,,,,,,,,,
563e35190980220011572d9a,2023-06-16_10h31.04.674,phx_ver10,2022.2.5,MacIntel,58.82352941,,,,,space,0.216,0,18,18,47,1,48,training,zh2x,i,zh2x_i,zh2x_8_ixi.wav,,ixi.jpg,,,,,,,,,,,,,,,,,,,,,,,,,,,,,,,,,
563e35190980220011572d9a,2023-06-16_10h31.04.674,phx_ver10,2022.2.5,MacIntel,58.82352941,,,,,space,0.405,0,19,19,33,1,34,training,zh2x,i,zh2x_i,zh2x_2_izhi.wav,,izhi.jpg,,,,,,,,,,,,,,,,,,,,,,,,,,,,,,,,,
563e35190980220011572d9a,2023-06-16_10h31.04.674,phx_ver10,2022.2.5,MacIntel,58.82352941,,,,,space,0.2,0,20,20,31,1,32,training,zh2x,e,zh2x_e,zh2x_8_exe.wav,,exe.jpg,,,,,,,,,,,,,,,,,,,,,,,,,,,,,,,,,
563e35190980220011572d9a,2023-06-16_10h31.04.674,phx_ver10,2022.2.5,MacIntel,58.82352941,,,,,space,0.351,0,21,21,21,1,22,training,zh2x,e,zh2x_e,zh2x_3_ezhe.wav,,ezhe.jpg,,,,,,,,,,,,,,,,,,,,,,,,,,,,,,,,,
563e35190980220011572d9a,2023-06-16_10h31.04.674,phx_ver10,2022.2.5,MacIntel,58.82352941,,,,,space,0.318,0,22,22,0,1,1,training,zh2x,a,zh2x_a,zh2x_1_azha.wav,,azha.jpg,,,,,,,,,,,,,,,,,,,,,,,,,,,,,,,,,
563e35190980220011572d9a,2023-06-16_10h31.04.674,phx_ver10,2022.2.5,MacIntel,58.82352941,,,,,space,0.201,0,23,23,36,1,37,training,zh2x,i,zh2x_i,zh2x_2_izhi.wav,,izhi.jpg,,,,,,,,,,,,,,,,,,,,,,,,,,,,,,,,,
563e35190980220011572d9a,2023-06-16_10h31.04.674,phx_ver10,2022.2.5,MacIntel,58.82352941,,,,,,,,,,,,,attn_test,,,,zh2x_8_axa.wav,zh2x_1_ezhe.wav,ezhe.jpg,RIGHT,,j,0.05,space,0.617,0,0,0,0,1,,,,,,,,,,,,,,,,,,,,,,
563e35190980220011572d9a,2023-06-16_10h31.04.674,phx_ver10,2022.2.5,MacIntel,58.82352941,,,,,space,1.502,0,24,24,14,1,15,training,zh2x,a,zh2x_a,zh2x_7_axa.wav,,axa.jpg,,,,,,,,,,,,,,,,,,,,,,,,,,,,,,,,,
563e35190980220011572d9a,2023-06-16_10h31.04.674,phx_ver10,2022.2.5,MacIntel,58.82352941,,,,,space,0.634,0,25,25,24,1,25,training,zh2x,e,zh2x_e,zh2x_5_exe.wav,,exe.jpg,,,,,,,,,,,,,,,,,,,,,,,,,,,,,,,,,
563e35190980220011572d9a,2023-06-16_10h31.04.674,phx_ver10,2022.2.5,MacIntel,58.82352941,,,,,space,0.4,0,26,26,41,1,42,training,zh2x,i,zh2x_i,zh2x_6_ixi.wav,,ixi.jpg,,,,,,,,,,,,,,,,,,,,,,,,,,,,,,,,,
563e35190980220011572d9a,2023-06-16_10h31.04.674,phx_ver10,2022.2.5,MacIntel,58.82352941,,,,,space,0.334,0,27,27,12,1,13,training,zh2x,a,zh2x_a,zh2x_7_axa.wav,,axa.jpg,,,,,,,,,,,,,,,,,,,,,,,,,,,,,,,,,
563e35190980220011572d9a,2023-06-16_10h31.04.674,phx_ver10,2022.2.5,MacIntel,58.82352941,,,,,space,0.218,0,28,28,6,1,7,training,zh2x,a,zh2x_a,zh2x_3_azha.wav,,azha.jpg,,,,,,,,,,,,,,,,,,,,,,,,,,,,,,,,,
563e35190980220011572d9a,2023-06-16_10h31.04.674,phx_ver10,2022.2.5,MacIntel,58.82352941,,,,,space,0.284,0,29,29,17,1,18,training,zh2x,e,zh2x_e,zh2x_2_ezhe.wav,,ezhe.jpg,,,,,,,,,,,,,,,,,,,,,,,,,,,,,,,,,
563e35190980220011572d9a,2023-06-16_10h31.04.674,phx_ver10,2022.2.5,MacIntel,58.82352941,,,,,,,,,,,,,attn_test,,,,zh2x_1_ezhe.wav,zh2x_8_axa.wav,axa.jpg,RIGHT,,j,0.301,space,1.237,0,0,0,0,1,,,,,,,,,,,,,,,,,,,,,,
563e35190980220011572d9a,2023-06-16_10h31.04.674,phx_ver10,2022.2.5,MacIntel,58.82352941,,,,,space,0.256,0,30,30,3,1,4,training,zh2x,a,zh2x_a,zh2x_2_azha.wav,,azha.jpg,,,,,,,,,,,,,,,,,,,,,,,,,,,,,,,,,
563e35190980220011572d9a,2023-06-16_10h31.04.674,phx_ver10,2022.2.5,MacIntel,58.82352941,,,,,space,0.299,0,31,31,4,1,5,training,zh2x,a,zh2x_a,zh2x_2_azha.wav,,azha.jpg,,,,,,,,,,,,,,,,,,,,,,,,,,,,,,,,,
563e35190980220011572d9a,2023-06-16_10h31.04.674,phx_ver10,2022.2.5,MacIntel,58.82352941,,,,,space,0.383,0,32,32,29,1,30,training,zh2x,e,zh2x_e,zh2x_7_exe.wav,,exe.jpg,,,,,,,,,,,,,,,,,,,,,,,,,,,,,,,,,
563e35190980220011572d9a,2023-06-16_10h31.04.674,phx_ver10,2022.2.5,MacIntel,58.82352941,,,,,space,0.216,0,33,33,37,1,38,training,zh2x,i,zh2x_i,zh2x_3_izhi.wav,,izhi.jpg,,,,,,,,,,,,,,,,,,,,,,,,,,,,,,,,,
563e35190980220011572d9a,2023-06-16_10h31.04.674,phx_ver10,2022.2.5,MacIntel,58.82352941,,,,,space,0.151,0,34,34,46,1,47,training,zh2x,i,zh2x_i,zh2x_7_ixi.wav,,ixi.jpg,,,,,,,,,,,,,,,,,,,,,,,,,,,,,,,,,
563e35190980220011572d9a,2023-06-16_10h31.04.674,phx_ver10,2022.2.5,MacIntel,58.82352941,,,,,space,0.187,0,35,35,19,1,20,training,zh2x,e,zh2x_e,zh2x_2_ezhe.wav,,ezhe.jpg,,,,,,,,,,,,,,,,,,,,,,,,,,,,,,,,,
563e35190980220011572d9a,2023-06-16_10h31.04.674,phx_ver10,2022.2.5,MacIntel,58.82352941,,,,,,,,,,,,,attn_test,,,,zh2x_1_ezhe.wav,zh2x_8_ixi.wav,ixi.jpg,RIGHT,,j,0.618,space,1.117,0,0,0,0,1,,,,,,,,,,,,,,,,,,,,,,
563e35190980220011572d9a,2023-06-16_10h31.04.674,phx_ver10,2022.2.5,MacIntel,58.82352941,,,,,space,0.268,0,36,36,39,1,40,training,zh2x,i,zh2x_i,zh2x_4_izhi.wav,,izhi.jpg,,,,,,,,,,,,,,,,,,,,,,,,,,,,,,,,,
563e35190980220011572d9a,2023-06-16_10h31.04.674,phx_ver10,2022.2.5,MacIntel,58.82352941,,,,,space,0.291,0,37,37,44,1,45,training,zh2x,i,zh2x_i,zh2x_7_ixi.wav,,ixi.jpg,,,,,,,,,,,,,,,,,,,,,,,,,,,,,,,,,
563e35190980220011572d9a,2023-06-16_10h31.04.674,phx_ver10,2022.2.5,MacIntel,58.82352941,,,,,space,0.288,0,38,38,34,1,35,training,zh2x,i,zh2x_i,zh2x_2_izhi.wav,,izhi.jpg,,,,,,,,,,,,,,,,,,,,,,,,,,,,,,,,,
563e35190980220011572d9a,2023-06-16_10h31.04.674,phx_ver10,2022.2.5,MacIntel,58.82352941,,,,,space,0.335,0,39,39,18,1,19,training,zh2x,e,zh2x_e,zh2x_2_ezhe.wav,,ezhe.jpg,,,,,,,,,,,,,,,,,,,,,,,,,,,,,,,,,
563e35190980220011572d9a,2023-06-16_10h31.04.674,phx_ver10,2022.2.5,MacIntel,58.82352941,,,,,space,0.157,0,40,40,26,1,27,training,zh2x,e,zh2x_e,zh2x_6_exe.wav,,exe.jpg,,,,,,,,,,,,,,,,,,,,,,,,,,,,,,,,,
563e35190980220011572d9a,2023-06-16_10h31.04.674,phx_ver10,2022.2.5,MacIntel,58.82352941,,,,,space,0.218,0,41,41,11,1,12,training,zh2x,a,zh2x_a,zh2x_7_axa.wav,,axa.jpg,,,,,,,,,,,,,,,,,,,,,,,,,,,,,,,,,
563e35190980220011572d9a,2023-06-16_10h31.04.674,phx_ver10,2022.2.5,MacIntel,58.82352941,,,,,,,,,,,,,attn_test,,,,zh2x_1_azha.wav,zh2x_8_axa.wav,axa.jpg,RIGHT,,f,8.206,space,8.989,0,0,0,0,1,,,,,,,,,,,,,,,,,,,,,,
563e35190980220011572d9a,2023-06-16_10h31.04.674,phx_ver10,2022.2.5,MacIntel,58.82352941,,,,,space,0.467,0,42,42,9,1,10,training,zh2x,a,zh2x_a,zh2x_6_axa.wav,,axa.jpg,,,,,,,,,,,,,,,,,,,,,,,,,,,,,,,,,
563e35190980220011572d9a,2023-06-16_10h31.04.674,phx_ver10,2022.2.5,MacIntel,58.82352941,,,,,space,0.357,0,43,43,35,1,36,training,zh2x,i,zh2x_i,zh2x_2_izhi.wav,,izhi.jpg,,,,,,,,,,,,,,,,,,,,,,,,,,,,,,,,,
563e35190980220011572d9a,2023-06-16_10h31.04.674,phx_ver10,2022.2.5,MacIntel,58.82352941,,,,,space,0.34,0,44,44,28,1,29,training,zh2x,e,zh2x_e,zh2x_7_exe.wav,,exe.jpg,,,,,,,,,,,,,,,,,,,,,,,,,,,,,,,,,
563e35190980220011572d9a,2023-06-16_10h31.04.674,phx_ver10,2022.2.5,MacIntel,58.82352941,,,,,space,0.317,0,45,45,8,1,9,training,zh2x,a,zh2x_a,zh2x_5_axa.wav,,axa.jpg,,,,,,,,,,,,,,,,,,,,,,,,,,,,,,,,,
563e35190980220011572d9a,2023-06-16_10h31.04.674,phx_ver10,2022.2.5,MacIntel,58.82352941,,,,,space,0.301,0,46,46,30,1,31,training,zh2x,e,zh2x_e,zh2x_7_exe.wav,,exe.jpg,,,,,,,,,,,,,,,,,,,,,,,,,,,,,,,,,
563e35190980220011572d9a,2023-06-16_10h31.04.674,phx_ver10,2022.2.5,MacIntel,58.82352941,,,,,space,0.401,0,47,47,40,1,41,training,zh2x,i,zh2x_i,zh2x_5_ixi.wav,,ixi.jpg,,,,,,,,,,,,,,,,,,,,,,,,,,,,,,,,,
563e35190980220011572d9a,2023-06-16_10h31.04.674,phx_ver10,2022.2.5,MacIntel,58.82352941,,,,,,,,,,,,,attn_test,,,,zh2x_8_exe.wav,zh2x_1_izhi.wav,izhi.jpg,RIGHT,,j,0.103,space,1.55,,,,,,,,,,,,,,,,,,,,,,,,,,,
563e35190980220011572d9a,2023-06-16_10h31.04.674,phx_ver10,2022.2.5,MacIntel,58.82352941,,,,,,,,,,,,,,,,,,,,,,,,,,,,,,,space,8.164,,,,,,,,,,,,,,,,,,,,
563e35190980220011572d9a,2023-06-16_10h31.04.674,phx_ver10,2022.2.5,MacIntel,58.82352941,,,,,,,,,,,,,,,,,,,,,,,,,,,,,,,,,space,14.98,,,,,,,,,,,,,,,,,,
563e35190980220011572d9a,2023-06-16_10h31.04.674,phx_ver10,2022.2.5,MacIntel,58.82352941,,,,,,,,,,,,4,testing_pre,,,,eihei.wav,eihei.wav,,TRUE,,,,,,,,,,,,,,,j,0.779,space,2.778,0,0,0,3,1,,,,,,,,,
563e35190980220011572d9a,2023-06-16_10h31.04.674,phx_ver10,2022.2.5,MacIntel,58.82352941,,,,,,,,,,,,3,testing_pre,,,,afa.wav,aha.wav,,FALSE,,,,,,,,,,,,,,,j,0.269,space,1.553,0,1,1,2,1,,,,,,,,,
563e35190980220011572d9a,2023-06-16_10h31.04.674,phx_ver10,2022.2.5,MacIntel,58.82352941,,,,,,,,,,,,1,testing_pre,,,,ifi.wav,ifi.wav,,TRUE,,,,,,,,,,,,,,,j,0.451,space,0.738,0,2,2,0,1,,,,,,,,,
563e35190980220011572d9a,2023-06-16_10h31.04.674,phx_ver10,2022.2.5,MacIntel,58.82352941,,,,,,,,,,,,5,testing_pre,,,,ihi.wav,ifi.wav,,FALSE,,,,,,,,,,,,,,,j,5.542,space,5.801,0,3,3,4,1,,,,,,,,,
563e35190980220011572d9a,2023-06-16_10h31.04.674,phx_ver10,2022.2.5,MacIntel,58.82352941,,,,,,,,,,,,2,testing_pre,,,,auhau.wav,aufau.wav,,FALSE,,,,,,,,,,,,,,,j,0.585,space,0.868,0,4,4,1,1,,,,,,,,,
563e35190980220011572d9a,2023-06-16_10h31.04.674,phx_ver10,2022.2.5,MacIntel,58.82352941,,,,,,,,,,,,,,,,,,,,,,,,,,,,,,,,,,,,,,,,,,,,space,0.613,,,,,,,
563e35190980220011572d9a,2023-06-16_10h31.04.674,phx_ver10,2022.2.5,MacIntel,58.82352941,,,,,,,,,,,,14,testing_2,zh2x,ai,zh2x_ai,zh2x_8_aixai.wav,zh2x_8_aixai.wav,,TRUE,FALSE,,,,,,,,,,,,,,f,1.571,space,2.333,,,,,,,,0,0,0,13,1,,
563e35190980220011572d9a,2023-06-16_10h31.04.674,phx_ver10,2022.2.5,MacIntel,58.82352941,,,,,,,,,,,,43,testing_3,zh2sh,ei,zh2sh_ei,zh2sh_1_eizhei.wav,zh2sh_8_eishei.wav,,FALSE,FALSE,,,,,,,,,,,,,,j,1.451,space,1.638,,,,,,,,0,1,1,42,1,,
563e35190980220011572d9a,2023-06-16_10h31.04.674,phx_ver10,2022.2.5,MacIntel,58.82352941,,,,,,,,,,,,128,testing_3,sh2j,ai,sh2j_ai,sh2j_8_aijai.wav,sh2j_1_aishai.wav,,FALSE,FALSE,,,,,,,,,,,,,,j,0.725,space,0.89,,,,,,,,0,2,2,127,1,,
563e35190980220011572d9a,2023-06-16_10h31.04.674,phx_ver10,2022.2.5,MacIntel,58.82352941,,,,,,,,,,,,120,testing_3,sh2x,i,sh2x_i,sh2x_8_ixi.wav,sh2x_1_ishi.wav,,FALSE,FALSE,,,,,,,,,,,,,,f,0.818,space,1.051,,,,,,,,0,3,3,119,1,,
563e35190980220011572d9a,2023-06-16_10h31.04.674,phx_ver10,2022.2.5,MacIntel,58.82352941,,,,,,,,,,,,10,testing_1,zh2x,i,zh2x_i,zh2x_8_ixi.wav,zh2x_8_ixi_copy.wav,,TRUE,TRUE,,,,,,,,,,,,,,f,0.251,space,0.485,,,,,,,,0,4,4,9,1,,
563e35190980220011572d9a,2023-06-16_10h31.04.674,phx_ver10,2022.2.5,MacIntel,58.82352941,,,,,,,,,,,,86,testing_3,j2x,e,j2x_e,j2x_8_exe.wav,j2x_8_exe.wav,,TRUE,FALSE,,,,,,,,,,,,,,f,1.236,space,1.5,,,,,,,,0,5,5,85,1,,
563e35190980220011572d9a,2023-06-16_10h31.04.674,phx_ver10,2022.2.5,MacIntel,58.82352941,,,,,,,,,,,,20,testing_2,zh2x,au,zh2x_au,zh2x_8_auxau.wav,zh2x_1_auzhau.wav,,FALSE,FALSE,,,,,,,,,,,,,,f,1.74,space,1.851,,,,,,,,0,6,6,19,1,,
563e35190980220011572d9a,2023-06-16_10h31.04.674,phx_ver10,2022.2.5,MacIntel,58.82352941,,,,,,,,,,,,51,testing_3,zh2j,a,zh2j_a,zh2j_1_azha.wav,zh2j_8_aja.wav,,FALSE,FALSE,,,,,,,,,,,,,,f,0.701,space,1.083,,,,,,,,0,7,7,50,1,,
563e35190980220011572d9a,2023-06-16_10h31.04.674,phx_ver10,2022.2.5,MacIntel,58.82352941,,,,,,,,,,,,107,testing_3,sh2x,au,sh2x_au,sh2x_1_aushau.wav,sh2x_8_auxau.wav,,FALSE,FALSE,,,,,,,,,,,,,,j,0.391,space,0.471,,,,,,,,0,8,8,106,1,,
563e35190980220011572d9a,2023-06-16_10h31.04.674,phx_ver10,2022.2.5,MacIntel,58.82352941,,,,,,,,,,,,30,testing_3,zh2sh,ai,zh2sh_ai,zh2sh_8_aishai.wav,zh2sh_8_aishai.wav,,TRUE,FALSE,,,,,,,,,,,,,,f,0.62,space,0.688,,,,,,,,0,9,9,29,1,,
563e35190980220011572d9a,2023-06-16_10h31.04.674,phx_ver10,2022.2.5,MacIntel,58.82352941,,,,,,,,,,,,105,testing_3,sh2x,au,sh2x_au,sh2x_1_aushau.wav,sh2x_1_aushau.wav,,TRUE,FALSE,,,,,,,,,,,,,,f,0.416,space,0.501,,,,,,,,0,10,10,104,1,,
563e35190980220011572d9a,2023-06-16_10h31.04.674,phx_ver10,2022.2.5,MacIntel,58.82352941,,,,,,,,,,,,136,testing_3,sh2j,e,sh2j_e,sh2j_8_eje.wav,sh2j_1_eshe.wav,,FALSE,FALSE,,,,,,,,,,,,,,j,0.84,space,0.936,,,,,,,,0,11,11,135,1,,
563e35190980220011572d9a,2023-06-16_10h31.04.674,phx_ver10,2022.2.5,MacIntel,58.82352941,,,,,,,,,,,,123,testing_3,sh2j,a,sh2j_a,sh2j_1_asha.wav,sh2j_8_aja.wav,,FALSE,FALSE,,,,,,,,,,,,,,j,0.788,space,0.85,,,,,,,,0,12,12,122,1,,
563e35190980220011572d9a,2023-06-16_10h31.04.674,phx_ver10,2022.2.5,MacIntel,58.82352941,,,,,,,,,,,,142,testing_3,sh2j,i,sh2j_i,sh2j_8_iji.wav,sh2j_8_iji.wav,,TRUE,FALSE,,,,,,,,,,,,,,f,0.651,space,0.7,,,,,,,,0,13,13,141,1,,
563e35190980220011572d9a,2023-06-16_10h31.04.674,phx_ver10,2022.2.5,MacIntel,58.82352941,,,,,,,,,,,,32,testing_3,zh2sh,ai,zh2sh_ai,zh2sh_8_aishai.wav,zh2sh_1_aizhai.wav,,FALSE,FALSE,,,,,,,,,,,,,,j,0.519,space,0.617,,,,,,,,0,14,14,31,1,,
563e35190980220011572d9a,2023-06-16_10h31.04.674,phx_ver10,2022.2.5,MacIntel,58.82352941,,,,,,,,,,,,57,testing_3,zh2j,au,zh2j_au,zh2j_1_auzhau.wav,zh2j_1_auzhau.wav,,TRUE,FALSE,,,,,,,,,,,,,,f,0.634,space,0.703,,,,,,,,0,15,15,56,1,,
563e35190980220011572d9a,2023-06-16_10h31.04.674,phx_ver10,2022.2.5,MacIntel,58.82352941,,,,,,,,,,,,22,testing_2,zh2x,ei,zh2x_ei,zh2x_8_eixei.wav,zh2x_8_eixei.wav,,TRUE,FALSE,,,,,,,,,,,,,,f,0.5,space,0.601,,,,,,,,0,16,16,21,1,,
563e35190980220011572d9a,2023-06-16_10h31.04.674,phx_ver10,2022.2.5,MacIntel,58.82352941,,,,,,,,,,,,130,testing_3,sh2j,au,sh2j_au,sh2j_8_aujau.wav,sh2j_8_aujau.wav,,TRUE,FALSE,,,,,,,,,,,,,,f,0.6,space,0.669,,,,,,,,0,17,17,129,1,,
563e35190980220011572d9a,2023-06-16_10h31.04.674,phx_ver10,2022.2.5,MacIntel,58.82352941,,,,,,,,,,,,101,testing_3,sh2x,ai,sh2x_ai,sh2x_1_aishai.wav,sh2x_1_aishai.wav,,TRUE,FALSE,,,,,,,,,,,,,,f,0.404,space,0.476,,,,,,,,0,18,18,100,1,,
563e35190980220011572d9a,2023-06-16_10h31.04.674,phx_ver10,2022.2.5,MacIntel,58.82352941,,,,,,,,,,,,38,testing_3,zh2sh,e,zh2sh_e,zh2sh_8_eshe.wav,zh2sh_8_eshe.wav,,TRUE,FALSE,,,,,,,,,,,,,,f,0.317,space,0.402,,,,,,,,0,19,19,37,1,,
563e35190980220011572d9a,2023-06-16_10h31.04.674,phx_ver10,2022.2.5,MacIntel,58.82352941,,,,,,,,,,,,135,testing_3,sh2j,e,sh2j_e,sh2j_1_eshe.wav,sh2j_8_eje.wav,,FALSE,FALSE,,,,,,,,,,,,,,j,0.534,space,0.6,,,,,,,,0,20,20,134,1,,
563e35190980220011572d9a,2023-06-16_10h31.04.674,phx_ver10,2022.2.5,MacIntel,58.82352941,,,,,,,,,,,,79,testing_3,j2x,ai,j2x_ai,j2x_1_aijai.wav,j2x_8_aixai.wav,,FALSE,FALSE,,,,,,,,,,,,,,j,0.472,space,0.54,,,,,,,,0,21,21,78,1,,
563e35190980220011572d9a,2023-06-16_10h31.04.674,phx_ver10,2022.2.5,MacIntel,58.82352941,,,,,,,,,,,,27,testing_3,zh2sh,a,zh2sh_a,zh2sh_1_azha.wav,zh2sh_8_asha.wav,,FALSE,FALSE,,,,,,,,,,,,,,j,0.418,space,0.486,,,,,,,,0,22,22,26,1,,
563e35190980220011572d9a,2023-06-16_10h31.04.674,phx_ver10,2022.2.5,MacIntel,58.82352941,,,,,,,,,,,,85,testing_3,j2x,e,j2x_e,j2x_1_eje.wav,j2x_1_eje.wav,,TRUE,FALSE,,,,,,,,,,,,,,f,0.44,space,0.503,,,,,,,,0,23,23,84,1,,
563e35190980220011572d9a,2023-06-16_10h31.04.674,phx_ver10,2022.2.5,MacIntel,58.82352941,,,,,,,,,,,,31,testing_3,zh2sh,ai,zh2sh_ai,zh2sh_1_aizhai.wav,zh2sh_8_aishai.wav,,FALSE,FALSE,,,,,,,,,,,,,,j,0.274,space,0.337,,,,,,,,0,24,24,30,1,,
563e35190980220011572d9a,2023-06-16_10h31.04.674,phx_ver10,2022.2.5,MacIntel,58.82352941,,,,,,,,,,,,139,testing_3,sh2j,ei,sh2j_ei,sh2j_1_eishei.wav,sh2j_8_eijei.wav,,FALSE,FALSE,,,,,,,,,,,,,,j,0.617,space,0.7,,,,,,,,0,25,25,138,1,,
563e35190980220011572d9a,2023-06-16_10h31.04.674,phx_ver10,2022.2.5,MacIntel,58.82352941,,,,,,,,,,,,12,testing_1,zh2x,i,zh2x_i,zh2x_8_ixi.wav,zh2x_1_izhi.wav,,FALSE,TRUE,,,,,,,,,,,,,,f,0.534,space,0.603,,,,,,,,0,26,26,11,1,,
563e35190980220011572d9a,2023-06-16_10h31.04.674,phx_ver10,2022.2.5,MacIntel,58.82352941,,,,,,,,,,,,58,testing_3,zh2j,au,zh2j_au,zh2j_8_aujau.wav,zh2j_8_aujau.wav,,TRUE,FALSE,,,,,,,,,,,,,,f,0.317,space,0.399,,,,,,,,0,27,27,57,1,,
563e35190980220011572d9a,2023-06-16_10h31.04.674,phx_ver10,2022.2.5,MacIntel,58.82352941,,,,,,,,,,,,15,testing_2,zh2x,ai,zh2x_ai,zh2x_1_aizhai.wav,zh2x_8_aixai.wav,,FALSE,FALSE,,,,,,,,,,,,,,j,4.203,space,4.273,,,,,,,,0,28,28,14,1,,
563e35190980220011572d9a,2023-06-16_10h31.04.674,phx_ver10,2022.2.5,MacIntel,58.82352941,,,,,,,,,,,,144,testing_3,sh2j,i,sh2j_i,sh2j_8_iji.wav,sh2j_1_ishi.wav,,FALSE,FALSE,,,,,,,,,,,,,,j,0.402,space,0.485,,,,,,,,0,29,29,143,1,,
563e35190980220011572d9a,2023-06-16_10h31.04.674,phx_ver10,2022.2.5,MacIntel,58.82352941,,,,,,,,,,,,76,testing_3,j2x,a,j2x_a,j2x_8_axa.wav,j2x_1_aja.wav,,FALSE,FALSE,,,,,,,,,,,,,,j,0.202,space,0.268,,,,,,,,0,30,30,75,1,,
563e35190980220011572d9a,2023-06-16_10h31.04.674,phx_ver10,2022.2.5,MacIntel,58.82352941,,,,,,,,,,,,103,testing_3,sh2x,ai,sh2x_ai,sh2x_1_aishai.wav,sh2x_8_aixai.wav,,FALSE,FALSE,,,,,,,,,,,,,,f,0.567,space,0.634,,,,,,,,0,31,31,102,1,,
563e35190980220011572d9a,2023-06-16_10h31.04.674,phx_ver10,2022.2.5,MacIntel,58.82352941,,,,,,,,,,,,47,testing_3,zh2sh,i,zh2sh_i,zh2sh_1_izhi.wav,zh2sh_8_ishi.wav,,FALSE,FALSE,,,,,,,,,,,,,,j,0.285,space,0.368,,,,,,,,0,32,32,46,1,,
563e35190980220011572d9a,2023-06-16_10h31.04.674,phx_ver10,2022.2.5,MacIntel,58.82352941,,,,,,,,,,,,2,testing_1,zh2x,a,zh2x_a,zh2x_8_axa.wav,zh2x_8_axa_copy.wav,,TRUE,TRUE,,,,,,,,,,,,,,f,0.335,space,0.401,,,,,,,,0,33,33,1,1,,
563e35190980220011572d9a,2023-06-16_10h31.04.674,phx_ver10,2022.2.5,MacIntel,58.82352941,,,,,,,,,,,,140,testing_3,sh2j,ei,sh2j_ei,sh2j_8_eijei.wav,sh2j_1_eishei.wav,,FALSE,FALSE,,,,,,,,,,,,,,j,0.335,space,0.418,,,,,,,,0,34,34,139,1,,
563e35190980220011572d9a,2023-06-16_10h31.04.674,phx_ver10,2022.2.5,MacIntel,58.82352941,,,,,,,,,,,,66,testing_3,zh2j,ei,zh2j_ei,zh2j_8_eijei.wav,zh2j_8_eijei.wav,,TRUE,FALSE,,,,,,,,,,,,,,f,6.267,space,6.385,,,,,,,,0,35,35,65,1,,
563e35190980220011572d9a,2023-06-16_10h31.04.674,phx_ver10,2022.2.5,MacIntel,58.82352941,,,,,,,,,,,,49,testing_3,zh2j,a,zh2j_a,zh2j_1_azha.wav,zh2j_1_azha.wav,,TRUE,FALSE,,,,,,,,,,,,,,j,1.818,space,1.888,,,,,,,,0,36,36,48,1,,
563e35190980220011572d9a,2023-06-16_10h31.04.674,phx_ver10,2022.2.5,MacIntel,58.82352941,,,,,,,,,,,,65,testing_3,zh2j,ei,zh2j_ei,zh2j_1_eizhei.wav,zh2j_1_eizhei.wav,,TRUE,FALSE,,,,,,,,,,,,,,f,0.583,space,0.653,,,,,,,,0,37,37,64,1,,
563e35190980220011572d9a,2023-06-16_10h31.04.674,phx_ver10,2022.2.5,MacIntel,58.82352941,,,,,,,,,,,,93,testing_3,j2x,i,j2x_i,j2x_1_iji.wav,j2x_1_iji.wav,,TRUE,FALSE,,,,,,,,,,,,,,f,0.301,space,0.367,,,,,,,,0,38,38,92,1,,
563e35190980220011572d9a,2023-06-16_10h31.04.674,phx_ver10,2022.2.5,MacIntel,58.82352941,,,,,,,,,,,,127,testing_3,sh2j,ai,sh2j_ai,sh2j_1_aishai.wav,sh2j_8_aijai.wav,,FALSE,FALSE,,,,,,,,,,,,,,j,0.284,space,0.351,,,,,,,,0,39,39,126,1,,
563e35190980220011572d9a,2023-06-16_10h31.04.674,phx_ver10,2022.2.5,MacIntel,58.82352941,,,,,,,,,,,,48,testing_3,zh2sh,i,zh2sh_i,zh2sh_8_ishi.wav,zh2sh_1_izhi.wav,,FALSE,FALSE,,,,,,,,,,,,,,j,2.22,space,2.3,,,,,,,,0,40,40,47,1,,
563e35190980220011572d9a,2023-06-16_10h31.04.674,phx_ver10,2022.2.5,MacIntel,58.82352941,,,,,,,,,,,,94,testing_3,j2x,i,j2x_i,j2x_8_ixi.wav,j2x_8_ixi.wav,,TRUE,FALSE,,,,,,,,,,,,,,f,0.667,space,0.724,,,,,,,,0,41,41,93,1,,
563e35190980220011572d9a,2023-06-16_10h31.04.674,phx_ver10,2022.2.5,MacIntel,58.82352941,,,,,,,,,,,,89,testing_3,j2x,ei,j2x_ei,j2x_1_eijei.wav,j2x_1_eijei.wav,,TRUE,FALSE,,,,,,,,,,,,,,f,0.784,space,0.867,,,,,,,,0,42,42,88,1,,
563e35190980220011572d9a,2023-06-16_10h31.04.674,phx_ver10,2022.2.5,MacIntel,58.82352941,,,,,,,,,,,,37,testing_3,zh2sh,e,zh2sh_e,zh2sh_1_ezhe.wav,zh2sh_1_ezhe.wav,,TRUE,FALSE,,,,,,,,,,,,,,f,0.251,space,0.351,,,,,,,,0,43,43,36,1,,
563e35190980220011572d9a,2023-06-16_10h31.04.674,phx_ver10,2022.2.5,MacIntel,58.82352941,,,,,,,,,,,,78,testing_3,j2x,ai,j2x_ai,j2x_8_aixai.wav,j2x_8_aixai.wav,,TRUE,FALSE,,,,,,,,,,,,,,f,0.338,space,0.434,,,,,,,,0,44,44,77,1,,
563e35190980220011572d9a,2023-06-16_10h31.04.674,phx_ver10,2022.2.5,MacIntel,58.82352941,,,,,,,,,,,,71,testing_3,zh2j,i,zh2j_i,zh2j_1_izhi.wav,zh2j_8_iji.wav,,FALSE,FALSE,,,,,,,,,,,,,,f,0.151,space,0.223,,,,,,,,0,45,45,70,1,,
563e35190980220011572d9a,2023-06-16_10h31.04.674,phx_ver10,2022.2.5,MacIntel,58.82352941,,,,,,,,,,,,96,testing_3,j2x,i,j2x_i,j2x_8_ixi.wav,j2x_1_iji.wav,,FALSE,FALSE,,,,,,,,,,,,,,f,0.089,space,0.152,,,,,,,,0,46,46,95,1,,
563e35190980220011572d9a,2023-06-16_10h31.04.674,phx_ver10,2022.2.5,MacIntel,58.82352941,,,,,,,,,,,,54,testing_3,zh2j,ai,zh2j_ai,zh2j_8_aijai.wav,zh2j_8_aijai.wav,,TRUE,FALSE,,,,,,,,,,,,,,f,0.723,space,0.8,,,,,,,,0,47,47,53,1,,
563e35190980220011572d9a,2023-06-16_10h31.04.674,phx_ver10,2022.2.5,MacIntel,58.82352941,,,,,,,,,,,,18,testing_2,zh2x,au,zh2x_au,zh2x_8_auxau.wav,zh2x_8_auxau.wav,,TRUE,FALSE,,,,,,,,,,,,,,f,0.168,space,0.234,,,,,,,,0,48,48,17,1,,
563e35190980220011572d9a,2023-06-16_10h31.04.674,phx_ver10,2022.2.5,MacIntel,58.82352941,,,,,,,,,,,,126,testing_3,sh2j,ai,sh2j_ai,sh2j_8_aijai.wav,sh2j_8_aijai.wav,,TRUE,FALSE,,,,,,,,,,,,,,f,0.051,space,0.134,,,,,,,,0,49,49,125,1,,
563e35190980220011572d9a,2023-06-16_10h31.04.674,phx_ver10,2022.2.5,MacIntel,58.82352941,,,,,,,,,,,,106,testing_3,sh2x,au,sh2x_au,sh2x_8_auxau.wav,sh2x_8_auxau.wav,,TRUE,FALSE,,,,,,,,,,,,,,f,0.218,space,0.29,,,,,,,,0,50,50,105,1,,
563e35190980220011572d9a,2023-06-16_10h31.04.674,phx_ver10,2022.2.5,MacIntel,58.82352941,,,,,,,,,,,,88,testing_3,j2x,e,j2x_e,j2x_8_exe.wav,j2x_1_eje.wav,,FALSE,FALSE,,,,,,,,,,,,,,j,0.267,space,0.336,,,,,,,,0,51,51,87,1,,
563e35190980220011572d9a,2023-06-16_10h31.04.674,phx_ver10,2022.2.5,MacIntel,58.82352941,,,,,,,,,,,,118,testing_3,sh2x,i,sh2x_i,sh2x_8_ixi.wav,sh2x_8_ixi.wav,,TRUE,FALSE,,,,,,,,,,,,,,f,0.351,space,0.42,,,,,,,,0,52,52,117,1,,
563e35190980220011572d9a,2023-06-16_10h31.04.674,phx_ver10,2022.2.5,MacIntel,58.82352941,,,,,,,,,,,,91,testing_3,j2x,ei,j2x_ei,j2x_1_eijei.wav,j2x_8_eixei.wav,,FALSE,FALSE,,,,,,,,,,,,,,j,0.485,space,0.559,,,,,,,,0,53,53,90,1,,
563e35190980220011572d9a,2023-06-16_10h31.04.674,phx_ver10,2022.2.5,MacIntel,58.82352941,,,,,,,,,,,,99,testing_3,sh2x,a,sh2x_a,sh2x_1_asha.wav,sh2x_8_axa.wav,,FALSE,FALSE,,,,,,,,,,,,,,j,0.935,space,1.001,,,,,,,,0,54,54,98,1,,
563e35190980220011572d9a,2023-06-16_10h31.04.674,phx_ver10,2022.2.5,MacIntel,58.82352941,,,,,,,,,,,,82,testing_3,j2x,au,j2x_au,j2x_8_auxau.wav,j2x_8_auxau.wav,,TRUE,FALSE,,,,,,,,,,,,,,f,0.775,space,0.851,,,,,,,,0,55,55,81,1,,
563e35190980220011572d9a,2023-06-16_10h31.04.674,phx_ver10,2022.2.5,MacIntel,58.82352941,,,,,,,,,,,,36,testing_3,zh2sh,au,zh2sh_au,zh2sh_8_aushau.wav,zh2sh_1_auzhau.wav,,FALSE,FALSE,,,,,,,,,,,,,,j,13.868,space,13.952,,,,,,,,0,56,56,35,1,,
563e35190980220011572d9a,2023-06-16_10h31.04.674,phx_ver10,2022.2.5,MacIntel,58.82352941,,,,,,,,,,,,13,testing_2,zh2x,ai,zh2x_ai,zh2x_1_aizhai.wav,zh2x_1_aizhai.wav,,TRUE,FALSE,,,,,,,,,,,,,,f,0.184,space,0.268,,,,,,,,0,57,57,12,1,,
563e35190980220011572d9a,2023-06-16_10h31.04.674,phx_ver10,2022.2.5,MacIntel,58.82352941,,,,,,,,,,,,119,testing_3,sh2x,i,sh2x_i,sh2x_1_ishi.wav,sh2x_8_ixi.wav,,FALSE,FALSE,,,,,,,,,,,,,,f,0.168,space,0.241,,,,,,,,0,58,58,118,1,,
563e35190980220011572d9a,2023-06-16_10h31.04.674,phx_ver10,2022.2.5,MacIntel,58.82352941,,,,,,,,,,,,61,testing_3,zh2j,e,zh2j_e,zh2j_1_ezhe.wav,zh2j_1_ezhe.wav,,TRUE,FALSE,,,,,,,,,,,,,,f,26.426,space,26.489,,,,,,,,0,59,59,60,1,,
563e35190980220011572d9a,2023-06-16_10h31.04.674,phx_ver10,2022.2.5,MacIntel,58.82352941,,,,,,,,,,,,42,testing_3,zh2sh,ei,zh2sh_ei,zh2sh_8_eishei.wav,zh2sh_8_eishei.wav,,TRUE,FALSE,,,,,,,,,,,,,,f,0.285,space,0.368,,,,,,,,0,60,60,41,1,,
563e35190980220011572d9a,2023-06-16_10h31.04.674,phx_ver10,2022.2.5,MacIntel,58.82352941,,,,,,,,,,,,17,testing_2,zh2x,au,zh2x_au,zh2x_1_auzhau.wav,zh2x_1_auzhau.wav,,TRUE,FALSE,,,,,,,,,,,,,,f,0.585,space,0.669,,,,,,,,0,61,61,16,1,,
563e35190980220011572d9a,2023-06-16_10h31.04.674,phx_ver10,2022.2.5,MacIntel,58.82352941,,,,,,,,,,,,129,testing_3,sh2j,au,sh2j_au,sh2j_1_aushau.wav,sh2j_1_aushau.wav,,TRUE,FALSE,,,,,,,,,,,,,,f,0.47,space,0.557,,,,,,,,0,62,62,128,1,,
563e35190980220011572d9a,2023-06-16_10h31.04.674,phx_ver10,2022.2.5,MacIntel,58.82352941,,,,,,,,,,,,25,testing_3,zh2sh,a,zh2sh_a,zh2sh_1_azha.wav,zh2sh_1_azha.wav,,TRUE,FALSE,,,,,,,,,,,,,,f,0.167,space,0.251,,,,,,,,0,63,63,24,1,,
563e35190980220011572d9a,2023-06-16_10h31.04.674,phx_ver10,2022.2.5,MacIntel,58.82352941,,,,,,,,,,,,23,testing_2,zh2x,ei,zh2x_ei,zh2x_1_eizhei.wav,zh2x_8_eixei.wav,,FALSE,FALSE,,,,,,,,,,,,,,j,0.785,space,0.843,,,,,,,,0,64,64,22,1,,
563e35190980220011572d9a,2023-06-16_10h31.04.674,phx_ver10,2022.2.5,MacIntel,58.82352941,,,,,,,,,,,,138,testing_3,sh2j,ei,sh2j_ei,sh2j_8_eijei.wav,sh2j_8_eijei.wav,,TRUE,FALSE,,,,,,,,,,,,,,f,0.126,space,0.225,,,,,,,,0,65,65,137,1,,
563e35190980220011572d9a,2023-06-16_10h31.04.674,phx_ver10,2022.2.5,MacIntel,58.82352941,,,,,,,,,,,,70,testing_3,zh2j,i,zh2j_i,zh2j_8_iji.wav,zh2j_8_iji.wav,,TRUE,FALSE,,,,,,,,,,,,,,f,0.484,space,0.609,,,,,,,,0,66,66,69,1,,
563e35190980220011572d9a,2023-06-16_10h31.04.674,phx_ver10,2022.2.5,MacIntel,58.82352941,,,,,,,,,,,,53,testing_3,zh2j,ai,zh2j_ai,zh2j_1_aizhai.wav,zh2j_1_aizhai.wav,,TRUE,FALSE,,,,,,,,,,,,,,f,0.168,space,0.252,,,,,,,,0,67,67,52,1,,
563e35190980220011572d9a,2023-06-16_10h31.04.674,phx_ver10,2022.2.5,MacIntel,58.82352941,,,,,,,,,,,,122,testing_3,sh2j,a,sh2j_a,sh2j_8_aja.wav,sh2j_8_aja.wav,,TRUE,FALSE,,,,,,,,,,,,,,f,0.434,space,0.567,,,,,,,,0,68,68,121,1,,
563e35190980220011572d9a,2023-06-16_10h31.04.674,phx_ver10,2022.2.5,MacIntel,58.82352941,,,,,,,,,,,,3,testing_1,zh2x,a,zh2x_a,zh2x_1_azha.wav,zh2x_8_axa.wav,,FALSE,TRUE,,,,,,,,,,,,,,j,0.335,space,0.557,,,,,,,,0,69,69,2,1,,
563e35190980220011572d9a,2023-06-16_10h31.04.674,phx_ver10,2022.2.5,MacIntel,58.82352941,,,,,,,,,,,,90,testing_3,j2x,ei,j2x_ei,j2x_8_eixei.wav,j2x_8_eixei.wav,,TRUE,FALSE,,,,,,,,,,,,,,f,0.243,space,0.343,,,,,,,,0,70,70,89,1,,
563e35190980220011572d9a,2023-06-16_10h31.04.674,phx_ver10,2022.2.5,MacIntel,58.82352941,,,,,,,,,,,,117,testing_3,sh2x,i,sh2x_i,sh2x_1_ishi.wav,sh2x_1_ishi.wav,,TRUE,FALSE,,,,,,,,,,,,,,f,0.258,space,0.358,,,,,,,,0,71,71,116,1,,
563e35190980220011572d9a,2023-06-16_10h31.04.674,phx_ver10,2022.2.5,MacIntel,58.82352941,,,,,,,,,,,,104,testing_3,sh2x,ai,sh2x_ai,sh2x_8_aixai.wav,sh2x_1_aishai.wav,,FALSE,FALSE,,,,,,,,,,,,,,f,0.318,space,0.336,,,,,,,,0,72,72,103,1,,
563e35190980220011572d9a,2023-06-16_10h31.04.674,phx_ver10,2022.2.5,MacIntel,58.82352941,,,,,,,,,,,,114,testing_3,sh2x,ei,sh2x_ei,sh2x_8_eixei.wav,sh2x_8_eixei.wav,,TRUE,FALSE,,,,,,,,,,,,,,f,0.218,space,0.335,,,,,,,,0,73,73,113,1,,
563e35190980220011572d9a,2023-06-16_10h31.04.674,phx_ver10,2022.2.5,MacIntel,58.82352941,,,,,,,,,,,,29,testing_3,zh2sh,ai,zh2sh_ai,zh2sh_1_aizhai.wav,zh2sh_1_aizhai.wav,,TRUE,FALSE,,,,,,,,,,,,,,f,0.8,space,0.951,,,,,,,,0,74,74,28,1,,
563e35190980220011572d9a,2023-06-16_10h31.04.674,phx_ver10,2022.2.5,MacIntel,58.82352941,,,,,,,,,,,,9,testing_1,zh2x,i,zh2x_i,zh2x_1_izhi.wav,zh2x_1_izhi_copy.wav,,TRUE,TRUE,,,,,,,,,,,,,,f,0.217,space,0.32,,,,,,,,0,75,75,8,1,,
563e35190980220011572d9a,2023-06-16_10h31.04.674,phx_ver10,2022.2.5,MacIntel,58.82352941,,,,,,,,,,,,67,testing_3,zh2j,ei,zh2j_ei,zh2j_1_eizhei.wav,zh2j_8_eijei.wav,,FALSE,FALSE,,,,,,,,,,,,,,f,0.067,space,0.108,,,,,,,,0,76,76,66,1,,
563e35190980220011572d9a,2023-06-16_10h31.04.674,phx_ver10,2022.2.5,MacIntel,58.82352941,,,,,,,,,,,,108,testing_3,sh2x,au,sh2x_au,sh2x_8_auxau.wav,sh2x_1_aushau.wav,,FALSE,FALSE,,,,,,,,,,,,,,f,0.086,space,0.154,,,,,,,,0,77,77,107,1,,
563e35190980220011572d9a,2023-06-16_10h31.04.674,phx_ver10,2022.2.5,MacIntel,58.82352941,,,,,,,,,,,,81,testing_3,j2x,au,j2x_au,j2x_1_aujau.wav,j2x_1_aujau.wav,,TRUE,FALSE,,,,,,,,,,,,,,f,0.404,space,0.509,,,,,,,,0,78,78,80,1,,
563e35190980220011572d9a,2023-06-16_10h31.04.674,phx_ver10,2022.2.5,MacIntel,58.82352941,,,,,,,,,,,,41,testing_3,zh2sh,ei,zh2sh_ei,zh2sh_1_eizhei.wav,zh2sh_1_eizhei.wav,,TRUE,FALSE,,,,,,,,,,,,,,f,0.417,space,0.585,,,,,,,,0,79,79,40,1,,
563e35190980220011572d9a,2023-06-16_10h31.04.674,phx_ver10,2022.2.5,MacIntel,58.82352941,,,,,,,,,,,,87,testing_3,j2x,e,j2x_e,j2x_1_eje.wav,j2x_8_exe.wav,,FALSE,FALSE,,,,,,,,,,,,,,j,0.402,space,0.468,,,,,,,,0,80,80,86,1,,
563e35190980220011572d9a,2023-06-16_10h31.04.674,phx_ver10,2022.2.5,MacIntel,58.82352941,,,,,,,,,,,,72,testing_3,zh2j,i,zh2j_i,zh2j_8_iji.wav,zh2j_1_izhi.wav,,FALSE,FALSE,,,,,,,,,,,,,,f,0.038,space,0.118,,,,,,,,0,81,81,71,1,,
563e35190980220011572d9a,2023-06-16_10h31.04.674,phx_ver10,2022.2.5,MacIntel,58.82352941,,,,,,,,,,,,80,testing_3,j2x,ai,j2x_ai,j2x_8_aixai.wav,j2x_1_aijai.wav,,FALSE,FALSE,,,,,,,,,,,,,,j,0.418,space,0.801,,,,,,,,0,82,82,79,1,,
563e35190980220011572d9a,2023-06-16_10h31.04.674,phx_ver10,2022.2.5,MacIntel,58.82352941,,,,,,,,,,,,68,testing_3,zh2j,ei,zh2j_ei,zh2j_8_eijei.wav,zh2j_1_eizhei.wav,,FALSE,FALSE,,,,,,,,,,,,,,f,0.384,space,0.484,,,,,,,,0,83,83,67,1,,
563e35190980220011572d9a,2023-06-16_10h31.04.674,phx_ver10,2022.2.5,MacIntel,58.82352941,,,,,,,,,,,,56,testing_3,zh2j,ai,zh2j_ai,zh2j_8_aijai.wav,zh2j_1_aizhai.wav,,FALSE,FALSE,,,,,,,,,,,,,,f,0.267,space,0.351,,,,,,,,0,84,84,55,1,,
563e35190980220011572d9a,2023-06-16_10h31.04.674,phx_ver10,2022.2.5,MacIntel,58.82352941,,,,,,,,,,,,83,testing_3,j2x,au,j2x_au,j2x_1_aujau.wav,j2x_8_auxau.wav,,FALSE,FALSE,,,,,,,,,,,,,,j,0.067,space,0.234,,,,,,,,0,85,85,82,1,,
563e35190980220011572d9a,2023-06-16_10h31.04.674,phx_ver10,2022.2.5,MacIntel,58.82352941,,,,,,,,,,,,5,testing_1,zh2x,e,zh2x_e,zh2x_1_ezhe.wav,zh2x_1_ezhe_copy.wav,,TRUE,TRUE,,,,,,,,,,,,,,f,0.251,space,0.335,,,,,,,,0,86,86,4,1,,
563e35190980220011572d9a,2023-06-16_10h31.04.674,phx_ver10,2022.2.5,MacIntel,58.82352941,,,,,,,,,,,,116,testing_3,sh2x,ei,sh2x_ei,sh2x_8_eixei.wav,sh2x_1_eishei.wav,,FALSE,FALSE,,,,,,,,,,,,,,j,4.518,space,5.918,,,,,,,,0,87,87,115,1,,
563e35190980220011572d9a,2023-06-16_10h31.04.674,phx_ver10,2022.2.5,MacIntel,58.82352941,,,,,,,,,,,,121,testing_3,sh2j,a,sh2j_a,sh2j_1_asha.wav,sh2j_1_asha.wav,,TRUE,FALSE,,,,,,,,,,,,,,f,0.95,space,1.055,,,,,,,,0,88,88,120,1,,
563e35190980220011572d9a,2023-06-16_10h31.04.674,phx_ver10,2022.2.5,MacIntel,58.82352941,,,,,,,,,,,,40,testing_3,zh2sh,e,zh2sh_e,zh2sh_8_eshe.wav,zh2sh_1_ezhe.wav,,FALSE,FALSE,,,,,,,,,,,,,,f,0.47,space,0.59,,,,,,,,0,89,89,39,1,,
563e35190980220011572d9a,2023-06-16_10h31.04.674,phx_ver10,2022.2.5,MacIntel,58.82352941,,,,,,,,,,,,4,testing_1,zh2x,a,zh2x_a,zh2x_8_axa.wav,zh2x_1_azha.wav,,FALSE,TRUE,,,,,,,,,,,,,,j,0.35,space,0.817,,,,,,,,0,90,90,3,1,,
563e35190980220011572d9a,2023-06-16_10h31.04.674,phx_ver10,2022.2.5,MacIntel,58.82352941,,,,,,,,,,,,62,testing_3,zh2j,e,zh2j_e,zh2j_8_eje.wav,zh2j_8_eje.wav,,TRUE,FALSE,,,,,,,,,,,,,,f,1.401,space,1.489,,,,,,,,0,91,91,61,1,,
563e35190980220011572d9a,2023-06-16_10h31.04.674,phx_ver10,2022.2.5,MacIntel,58.82352941,,,,,,,,,,,,109,testing_3,sh2x,e,sh2x_e,sh2x_1_eshe.wav,sh2x_1_eshe.wav,,TRUE,FALSE,,,,,,,,,,,,,,f,0.85,space,0.95,,,,,,,,0,92,92,108,1,,
563e35190980220011572d9a,2023-06-16_10h31.04.674,phx_ver10,2022.2.5,MacIntel,58.82352941,,,,,,,,,,,,125,testing_3,sh2j,ai,sh2j_ai,sh2j_1_aishai.wav,sh2j_1_aishai.wav,,TRUE,FALSE,,,,,,,,,,,,,,f,0.668,space,0.773,,,,,,,,0,93,93,124,1,,
563e35190980220011572d9a,2023-06-16_10h31.04.674,phx_ver10,2022.2.5,MacIntel,58.82352941,,,,,,,,,,,,6,testing_1,zh2x,e,zh2x_e,zh2x_8_exe.wav,zh2x_8_exe_copy.wav,,TRUE,TRUE,,,,,,,,,,,,,,f,0.685,space,0.8,,,,,,,,0,94,94,5,1,,
563e35190980220011572d9a,2023-06-16_10h31.04.674,phx_ver10,2022.2.5,MacIntel,58.82352941,,,,,,,,,,,,73,testing_3,j2x,a,j2x_a,j2x_1_aja.wav,j2x_1_aja.wav,,TRUE,FALSE,,,,,,,,,,,,,,f,0.583,space,0.717,,,,,,,,0,95,95,72,1,,
563e35190980220011572d9a,2023-06-16_10h31.04.674,phx_ver10,2022.2.5,MacIntel,58.82352941,,,,,,,,,,,,134,testing_3,sh2j,e,sh2j_e,sh2j_8_eje.wav,sh2j_8_eje.wav,,TRUE,FALSE,,,,,,,,,,,,,,f,0.084,space,0.185,,,,,,,,0,96,96,133,1,,
563e35190980220011572d9a,2023-06-16_10h31.04.674,phx_ver10,2022.2.5,MacIntel,58.82352941,,,,,,,,,,,,7,testing_1,zh2x,e,zh2x_e,zh2x_1_ezhe.wav,zh2x_8_exe.wav,,FALSE,TRUE,,,,,,,,,,,,,,f,3.058,space,3.157,,,,,,,,0,97,97,6,1,,
563e35190980220011572d9a,2023-06-16_10h31.04.674,phx_ver10,2022.2.5,MacIntel,58.82352941,,,,,,,,,,,,55,testing_3,zh2j,ai,zh2j_ai,zh2j_1_aizhai.wav,zh2j_8_aijai.wav,,FALSE,FALSE,,,,,,,,,,,,,,f,0.204,space,0.301,,,,,,,,0,98,98,54,1,,
563e35190980220011572d9a,2023-06-16_10h31.04.674,phx_ver10,2022.2.5,MacIntel,58.82352941,,,,,,,,,,,,95,testing_3,j2x,i,j2x_i,j2x_1_iji.wav,j2x_8_ixi.wav,,FALSE,FALSE,,,,,,,,,,,,,,f,0.434,space,0.517,,,,,,,,0,99,99,94,1,,
563e35190980220011572d9a,2023-06-16_10h31.04.674,phx_ver10,2022.2.5,MacIntel,58.82352941,,,,,,,,,,,,35,testing_3,zh2sh,au,zh2sh_au,zh2sh_1_auzhau.wav,zh2sh_8_aushau.wav,,FALSE,FALSE,,,,,,,,,,,,,,j,0.584,space,1.225,,,,,,,,0,100,100,34,1,,
563e35190980220011572d9a,2023-06-16_10h31.04.674,phx_ver10,2022.2.5,MacIntel,58.82352941,,,,,,,,,,,,132,testing_3,sh2j,au,sh2j_au,sh2j_8_aujau.wav,sh2j_1_aushau.wav,,FALSE,FALSE,,,,,,,,,,,,,,f,1.017,space,1.104,,,,,,,,0,101,101,131,1,,
563e35190980220011572d9a,2023-06-16_10h31.04.674,phx_ver10,2022.2.5,MacIntel,58.82352941,,,,,,,,,,,,110,testing_3,sh2x,e,sh2x_e,sh2x_8_exe.wav,sh2x_8_exe.wav,,TRUE,FALSE,,,,,,,,,,,,,,f,0.8,space,1.218,,,,,,,,0,102,102,109,1,,
563e35190980220011572d9a,2023-06-16_10h31.04.674,phx_ver10,2022.2.5,MacIntel,58.82352941,,,,,,,,,,,,60,testing_3,zh2j,au,zh2j_au,zh2j_8_aujau.wav,zh2j_1_auzhau.wav,,FALSE,FALSE,,,,,,,,,,,,,,j,1.302,space,1.716,,,,,,,,0,103,103,59,1,,
563e35190980220011572d9a,2023-06-16_10h31.04.674,phx_ver10,2022.2.5,MacIntel,58.82352941,,,,,,,,,,,,74,testing_3,j2x,a,j2x_a,j2x_8_axa.wav,j2x_8_axa.wav,,TRUE,FALSE,,,,,,,,,,,,,,f,0.317,space,0.435,,,,,,,,0,104,104,73,1,,
563e35190980220011572d9a,2023-06-16_10h31.04.674,phx_ver10,2022.2.5,MacIntel,58.82352941,,,,,,,,,,,,50,testing_3,zh2j,a,zh2j_a,zh2j_8_aja.wav,zh2j_8_aja.wav,,TRUE,FALSE,,,,,,,,,,,,,,f,0.234,space,0.352,,,,,,,,0,105,105,49,1,,
563e35190980220011572d9a,2023-06-16_10h31.04.674,phx_ver10,2022.2.5,MacIntel,58.82352941,,,,,,,,,,,,143,testing_3,sh2j,i,sh2j_i,sh2j_1_ishi.wav,sh2j_8_iji.wav,,FALSE,FALSE,,,,,,,,,,,,,,f,1.284,space,1.418,,,,,,,,0,106,106,142,1,,
563e35190980220011572d9a,2023-06-16_10h31.04.674,phx_ver10,2022.2.5,MacIntel,58.82352941,,,,,,,,,,,,46,testing_3,zh2sh,i,zh2sh_i,zh2sh_8_ishi.wav,zh2sh_8_ishi.wav,,TRUE,FALSE,,,,,,,,,,,,,,f,0.634,space,0.784,,,,,,,,0,107,107,45,1,,
563e35190980220011572d9a,2023-06-16_10h31.04.674,phx_ver10,2022.2.5,MacIntel,58.82352941,,,,,,,,,,,,11,testing_1,zh2x,i,zh2x_i,zh2x_1_izhi.wav,zh2x_8_ixi.wav,,FALSE,TRUE,,,,,,,,,,,,,,f,0.585,space,0.721,,,,,,,,0,108,108,10,1,,
563e35190980220011572d9a,2023-06-16_10h31.04.674,phx_ver10,2022.2.5,MacIntel,58.82352941,,,,,,,,,,,,133,testing_3,sh2j,e,sh2j_e,sh2j_1_eshe.wav,sh2j_1_eshe.wav,,TRUE,FALSE,,,,,,,,,,,,,,f,0.952,space,1.088,,,,,,,,0,109,109,132,1,,
563e35190980220011572d9a,2023-06-16_10h31.04.674,phx_ver10,2022.2.5,MacIntel,58.82352941,,,,,,,,,,,,59,testing_3,zh2j,au,zh2j_au,zh2j_1_auzhau.wav,zh2j_8_aujau.wav,,FALSE,FALSE,,,,,,,,,,,,,,f,0.684,space,0.817,,,,,,,,0,110,110,58,1,,
563e35190980220011572d9a,2023-06-16_10h31.04.674,phx_ver10,2022.2.5,MacIntel,58.82352941,,,,,,,,,,,,98,testing_3,sh2x,a,sh2x_a,sh2x_8_axa.wav,sh2x_8_axa.wav,,TRUE,FALSE,,,,,,,,,,,,,,f,0.6,space,0.717,,,,,,,,0,111,111,97,1,,
563e35190980220011572d9a,2023-06-16_10h31.04.674,phx_ver10,2022.2.5,MacIntel,58.82352941,,,,,,,,,,,,84,testing_3,j2x,au,j2x_au,j2x_8_auxau.wav,j2x_1_aujau.wav,,FALSE,FALSE,,,,,,,,,,,,,,f,0.889,space,1.051,,,,,,,,0,112,112,83,1,,
563e35190980220011572d9a,2023-06-16_10h31.04.674,phx_ver10,2022.2.5,MacIntel,58.82352941,,,,,,,,,,,,124,testing_3,sh2j,a,sh2j_a,sh2j_8_aja.wav,sh2j_1_asha.wav,,FALSE,FALSE,,,,,,,,,,,,,,f,1.502,space,1.635,,,,,,,,0,113,113,123,1,,
563e35190980220011572d9a,2023-06-16_10h31.04.674,phx_ver10,2022.2.5,MacIntel,58.82352941,,,,,,,,,,,,24,testing_2,zh2x,ei,zh2x_ei,zh2x_8_eixei.wav,zh2x_1_eizhei.wav,,FALSE,FALSE,,,,,,,,,,,,,,f,0.984,space,1.136,,,,,,,,0,114,114,23,1,,
563e35190980220011572d9a,2023-06-16_10h31.04.674,phx_ver10,2022.2.5,MacIntel,58.82352941,,,,,,,,,,,,28,testing_3,zh2sh,a,zh2sh_a,zh2sh_8_asha.wav,zh2sh_1_azha.wav,,FALSE,FALSE,,,,,,,,,,,,,,j,0.937,space,1.35,,,,,,,,0,115,115,27,1,,
563e35190980220011572d9a,2023-06-16_10h31.04.674,phx_ver10,2022.2.5,MacIntel,58.82352941,,,,,,,,,,,,141,testing_3,sh2j,i,sh2j_i,sh2j_1_ishi.wav,sh2j_1_ishi.wav,,TRUE,FALSE,,,,,,,,,,,,,,f,0.921,space,1.035,,,,,,,,0,116,116,140,1,,
563e35190980220011572d9a,2023-06-16_10h31.04.674,phx_ver10,2022.2.5,MacIntel,58.82352941,,,,,,,,,,,,112,testing_3,sh2x,e,sh2x_e,sh2x_8_exe.wav,sh2x_1_eshe.wav,,FALSE,FALSE,,,,,,,,,,,,,,f,0.4,space,0.517,,,,,,,,0,117,117,111,1,,
563e35190980220011572d9a,2023-06-16_10h31.04.674,phx_ver10,2022.2.5,MacIntel,58.82352941,,,,,,,,,,,,113,testing_3,sh2x,ei,sh2x_ei,sh2x_1_eishei.wav,sh2x_1_eishei.wav,,TRUE,FALSE,,,,,,,,,,,,,,f,0.801,space,0.921,,,,,,,,0,118,118,112,1,,
563e35190980220011572d9a,2023-06-16_10h31.04.674,phx_ver10,2022.2.5,MacIntel,58.82352941,,,,,,,,,,,,52,testing_3,zh2j,a,zh2j_a,zh2j_8_aja.wav,zh2j_1_azha.wav,,FALSE,FALSE,,,,,,,,,,,,,,f,0.533,space,0.667,,,,,,,,0,119,119,51,1,,
563e35190980220011572d9a,2023-06-16_10h31.04.674,phx_ver10,2022.2.5,MacIntel,58.82352941,,,,,,,,,,,,69,testing_3,zh2j,i,zh2j_i,zh2j_1_izhi.wav,zh2j_1_izhi.wav,,TRUE,FALSE,,,,,,,,,,,,,,f,0.52,space,0.653,,,,,,,,0,120,120,68,1,,
563e35190980220011572d9a,2023-06-16_10h31.04.674,phx_ver10,2022.2.5,MacIntel,58.82352941,,,,,,,,,,,,21,testing_2,zh2x,ei,zh2x_ei,zh2x_1_eizhei.wav,zh2x_1_eizhei.wav,,TRUE,FALSE,,,,,,,,,,,,,,f,0.438,space,0.551,,,,,,,,0,121,121,20,1,,
563e35190980220011572d9a,2023-06-16_10h31.04.674,phx_ver10,2022.2.5,MacIntel,58.82352941,,,,,,,,,,,,137,testing_3,sh2j,ei,sh2j_ei,sh2j_1_eishei.wav,sh2j_1_eishei.wav,,TRUE,FALSE,,,,,,,,,,,,,,f,0.607,space,0.751,,,,,,,,0,122,122,136,1,,
563e35190980220011572d9a,2023-06-16_10h31.04.674,phx_ver10,2022.2.5,MacIntel,58.82352941,,,,,,,,,,,,39,testing_3,zh2sh,e,zh2sh_e,zh2sh_1_ezhe.wav,zh2sh_8_eshe.wav,,FALSE,FALSE,,,,,,,,,,,,,,f,0.951,space,1.05,,,,,,,,0,123,123,38,1,,
563e35190980220011572d9a,2023-06-16_10h31.04.674,phx_ver10,2022.2.5,MacIntel,58.82352941,,,,,,,,,,,,16,testing_2,zh2x,ai,zh2x_ai,zh2x_8_aixai.wav,zh2x_1_aizhai.wav,,FALSE,FALSE,,,,,,,,,,,,,,j,0.338,space,0.667,,,,,,,,0,124,124,15,1,,
563e35190980220011572d9a,2023-06-16_10h31.04.674,phx_ver10,2022.2.5,MacIntel,58.82352941,,,,,,,,,,,,63,testing_3,zh2j,e,zh2j_e,zh2j_1_ezhe.wav,zh2j_8_eje.wav,,FALSE,FALSE,,,,,,,,,,,,,,f,0.285,space,0.434,,,,,,,,0,125,125,62,1,,
563e35190980220011572d9a,2023-06-16_10h31.04.674,phx_ver10,2022.2.5,MacIntel,58.82352941,,,,,,,,,,,,26,testing_3,zh2sh,a,zh2sh_a,zh2sh_8_asha.wav,zh2sh_8_asha.wav,,TRUE,FALSE,,,,,,,,,,,,,,f,0.001,space,0.168,,,,,,,,0,126,126,25,1,,
563e35190980220011572d9a,2023-06-16_10h31.04.674,phx_ver10,2022.2.5,MacIntel,58.82352941,,,,,,,,,,,,44,testing_3,zh2sh,ei,zh2sh_ei,zh2sh_8_eishei.wav,zh2sh_1_eizhei.wav,,FALSE,FALSE,,,,,,,,,,,,,,f,0.836,space,0.941,,,,,,,,0,127,127,43,1,,
563e35190980220011572d9a,2023-06-16_10h31.04.674,phx_ver10,2022.2.5,MacIntel,58.82352941,,,,,,,,,,,,131,testing_3,sh2j,au,sh2j_au,sh2j_1_aushau.wav,sh2j_8_aujau.wav,,FALSE,FALSE,,,,,,,,,,,,,,f,1.041,space,1.136,,,,,,,,0,128,128,130,1,,
563e35190980220011572d9a,2023-06-16_10h31.04.674,phx_ver10,2022.2.5,MacIntel,58.82352941,,,,,,,,,,,,8,testing_1,zh2x,e,zh2x_e,zh2x_8_exe.wav,zh2x_1_ezhe.wav,,FALSE,TRUE,,,,,,,,,,,,,,j,0.734,space,0.884,,,,,,,,0,129,129,7,1,,
563e35190980220011572d9a,2023-06-16_10h31.04.674,phx_ver10,2022.2.5,MacIntel,58.82352941,,,,,,,,,,,,75,testing_3,j2x,a,j2x_a,j2x_1_aja.wav,j2x_8_axa.wav,,FALSE,FALSE,,,,,,,,,,,,,,f,0.484,space,0.601,,,,,,,,0,130,130,74,1,,
563e35190980220011572d9a,2023-06-16_10h31.04.674,phx_ver10,2022.2.5,MacIntel,58.82352941,,,,,,,,,,,,33,testing_3,zh2sh,au,zh2sh_au,zh2sh_1_auzhau.wav,zh2sh_1_auzhau.wav,,TRUE,FALSE,,,,,,,,,,,,,,j,3.269,space,3.585,,,,,,,,0,131,131,32,1,,
563e35190980220011572d9a,2023-06-16_10h31.04.674,phx_ver10,2022.2.5,MacIntel,58.82352941,,,,,,,,,,,,102,testing_3,sh2x,ai,sh2x_ai,sh2x_8_aixai.wav,sh2x_8_aixai.wav,,TRUE,FALSE,,,,,,,,,,,,,,f,0.357,space,0.434,,,,,,,,0,132,132,101,1,,
563e35190980220011572d9a,2023-06-16_10h31.04.674,phx_ver10,2022.2.5,MacIntel,58.82352941,,,,,,,,,,,,64,testing_3,zh2j,e,zh2j_e,zh2j_8_eje.wav,zh2j_1_ezhe.wav,,FALSE,FALSE,,,,,,,,,,,,,,f,0.734,space,0.818,,,,,,,,0,133,133,63,1,,
563e35190980220011572d9a,2023-06-16_10h31.04.674,phx_ver10,2022.2.5,MacIntel,58.82352941,,,,,,,,,,,,77,testing_3,j2x,ai,j2x_ai,j2x_1_aijai.wav,j2x_1_aijai.wav,,TRUE,FALSE,,,,,,,,,,,,,,f,0.318,space,0.434,,,,,,,,0,134,134,76,1,,
563e35190980220011572d9a,2023-06-16_10h31.04.674,phx_ver10,2022.2.5,MacIntel,58.82352941,,,,,,,,,,,,97,testing_3,sh2x,a,sh2x_a,sh2x_1_asha.wav,sh2x_1_asha.wav,,TRUE,FALSE,,,,,,,,,,,,,,f,0.517,space,0.6,,,,,,,,0,135,135,96,1,,
563e35190980220011572d9a,2023-06-16_10h31.04.674,phx_ver10,2022.2.5,MacIntel,58.82352941,,,,,,,,,,,,34,testing_3,zh2sh,au,zh2sh_au,zh2sh_8_aushau.wav,zh2sh_8_aushau.wav,,TRUE,FALSE,,,,,,,,,,,,,,f,0.635,space,0.735,,,,,,,,0,136,136,33,1,,
563e35190980220011572d9a,2023-06-16_10h31.04.674,phx_ver10,2022.2.5,MacIntel,58.82352941,,,,,,,,,,,,19,testing_2,zh2x,au,zh2x_au,zh2x_1_auzhau.wav,zh2x_8_auxau.wav,,FALSE,FALSE,,,,,,,,,,,,,,f,0.438,space,0.534,,,,,,,,0,137,137,18,1,,
563e35190980220011572d9a,2023-06-16_10h31.04.674,phx_ver10,2022.2.5,MacIntel,58.82352941,,,,,,,,,,,,92,testing_3,j2x,ei,j2x_ei,j2x_8_eixei.wav,j2x_1_eijei.wav,,FALSE,FALSE,,,,,,,,,,,,,,j,0.351,space,0.486,,,,,,,,0,138,138,91,1,,
563e35190980220011572d9a,2023-06-16_10h31.04.674,phx_ver10,2022.2.5,MacIntel,58.82352941,,,,,,,,,,,,45,testing_3,zh2sh,i,zh2sh_i,zh2sh_1_izhi.wav,zh2sh_1_izhi.wav,,TRUE,FALSE,,,,,,,,,,,,,,f,0.291,space,0.4,,,,,,,,0,139,139,44,1,,
563e35190980220011572d9a,2023-06-16_10h31.04.674,phx_ver10,2022.2.5,MacIntel,58.82352941,,,,,,,,,,,,1,testing_1,zh2x,a,zh2x_a,zh2x_1_azha.wav,zh2x_1_azha_copy.wav,,TRUE,TRUE,,,,,,,,,,,,,,f,0.5,space,0.583,,,,,,,,0,140,140,0,1,,
563e35190980220011572d9a,2023-06-16_10h31.04.674,phx_ver10,2022.2.5,MacIntel,58.82352941,,,,,,,,,,,,111,testing_3,sh2x,e,sh2x_e,sh2x_1_eshe.wav,sh2x_8_exe.wav,,FALSE,FALSE,,,,,,,,,,,,,,j,0.518,space,0.801,,,,,,,,0,141,141,110,1,,
563e35190980220011572d9a,2023-06-16_10h31.04.674,phx_ver10,2022.2.5,MacIntel,58.82352941,,,,,,,,,,,,115,testing_3,sh2x,ei,sh2x_ei,sh2x_1_eishei.wav,sh2x_8_eixei.wav,,FALSE,FALSE,,,,,,,,,,,,,,f,0.519,space,0.635,,,,,,,,0,142,142,114,1,,
563e35190980220011572d9a,2023-06-16_10h31.04.674,phx_ver10,2022.2.5,MacIntel,58.82352941,,,,,,,,,,,,100,testing_3,sh2x,a,sh2x_a,sh2x_8_axa.wav,sh2x_1_asha.wav,,FALSE,FALSE,,,,,,,,,,,,,,f,4.983,space,5.085,,,,,,,,0,143,143,99,1,,
563e35190980220011572d9a,2023-06-16_10h31.04.674,phx_ver10,2022.2.5,MacIntel,58.82352941,,,,,,,,,,,,,,,,,,,,,,,,,,,,,,,,,,,,,,,,,,,,,,,,,,,space,1.622
