participant,date,expName,psychopyVersion,OS,frameRate,space_1.keys,space_1.rt,space_2.keys,space_2.rt,space_train.keys,space_train.rt,training.thisRepN,training.thisTrialN,training.thisN,training.thisIndex,training.ran,token_id,task,continuum,vowel,series,sound_1,sound_2,img,same,trained,FJ_attn.keys,FJ_attn.rt,space_attn.keys,space_attn.rt,if_attn_test.thisRepN,if_attn_test.thisTrialN,if_attn_test.thisN,if_attn_test.thisIndex,if_attn_test.ran,space_trans_1.keys,space_trans_1.rt,space_trans_11.keys,space_trans_11.rt,FJ_test.keys,FJ_test.rt,space_test.keys,space_test.rt,testing_pre.thisRepN,testing_pre.thisTrialN,testing_pre.thisN,testing_pre.thisIndex,testing_pre.ran,space_trans_2.keys,space_trans_2.rt,testing_all.thisRepN,testing_all.thisTrialN,testing_all.thisN,testing_all.thisIndex,testing_all.ran,space_ending.keys,space_ending.rt
56b88bf7e1d0a2000b145037,2023-06-16_10h08.32.543,phx_ver10,2022.2.5,Win32,66.64889363,,,,,,,,,,,,,,,,,,,,,,,,,,,,,,,,,,,,,,,,,,,,,,,,,,,,
56b88bf7e1d0a2000b145037,2023-06-16_10h08.32.543,phx_ver10,2022.2.5,Win32,66.64889363,space,5.3048,,,,,,,,,,,,,,,,,,,,,,,,,,,,,,,,,,,,,,,,,,,,,,,,,,
56b88bf7e1d0a2000b145037,2023-06-16_10h08.32.543,phx_ver10,2022.2.5,Win32,66.64889363,,,space,2.9777,,,,,,,,,,,,,,,,,,,,,,,,,,,,,,,,,,,,,,,,,,,,,,,,
56b88bf7e1d0a2000b145037,2023-06-16_10h08.32.543,phx_ver10,2022.2.5,Win32,66.64889363,,,,,space,3.1604,0,0,0,23,1,24,training,zh2x,e,zh2x_e,zh2x_4_ezhe.wav,,ezhe.jpg,,,,,,,,,,,,,,,,,,,,,,,,,,,,,,,,,
56b88bf7e1d0a2000b145037,2023-06-16_10h08.32.543,phx_ver10,2022.2.5,Win32,66.64889363,,,,,space,1.8847,0,1,1,1,1,2,training,zh2x,a,zh2x_a,zh2x_2_azha.wav,,azha.jpg,,,,,,,,,,,,,,,,,,,,,,,,,,,,,,,,,
56b88bf7e1d0a2000b145037,2023-06-16_10h08.32.543,phx_ver10,2022.2.5,Win32,66.64889363,,,,,space,1.6386,0,2,2,21,1,22,training,zh2x,e,zh2x_e,zh2x_3_ezhe.wav,,ezhe.jpg,,,,,,,,,,,,,,,,,,,,,,,,,,,,,,,,,
56b88bf7e1d0a2000b145037,2023-06-16_10h08.32.543,phx_ver10,2022.2.5,Win32,66.64889363,,,,,space,1.0557,0,3,3,19,1,20,training,zh2x,e,zh2x_e,zh2x_2_ezhe.wav,,ezhe.jpg,,,,,,,,,,,,,,,,,,,,,,,,,,,,,,,,,
56b88bf7e1d0a2000b145037,2023-06-16_10h08.32.543,phx_ver10,2022.2.5,Win32,66.64889363,,,,,space,1.4441,0,4,4,14,1,15,training,zh2x,a,zh2x_a,zh2x_7_axa.wav,,axa.jpg,,,,,,,,,,,,,,,,,,,,,,,,,,,,,,,,,
56b88bf7e1d0a2000b145037,2023-06-16_10h08.32.543,phx_ver10,2022.2.5,Win32,66.64889363,,,,,space,2.1934,0,5,5,40,1,41,training,zh2x,i,zh2x_i,zh2x_5_ixi.wav,,ixi.jpg,,,,,,,,,,,,,,,,,,,,,,,,,,,,,,,,,
56b88bf7e1d0a2000b145037,2023-06-16_10h08.32.543,phx_ver10,2022.2.5,Win32,66.64889363,,,,,,,,,,,,,attn_test,,,,zh2x_8_exe.wav,zh2x_1_azha.wav,azha.jpg,RIGHT,,j,5.0563,space,7.2625,0,0,0,0,1,,,,,,,,,,,,,,,,,,,,,,
56b88bf7e1d0a2000b145037,2023-06-16_10h08.32.543,phx_ver10,2022.2.5,Win32,66.64889363,,,,,space,0.9209,0,6,6,17,1,18,training,zh2x,e,zh2x_e,zh2x_2_ezhe.wav,,ezhe.jpg,,,,,,,,,,,,,,,,,,,,,,,,,,,,,,,,,
56b88bf7e1d0a2000b145037,2023-06-16_10h08.32.543,phx_ver10,2022.2.5,Win32,66.64889363,,,,,space,1.0891,0,7,7,28,1,29,training,zh2x,e,zh2x_e,zh2x_7_exe.wav,,exe.jpg,,,,,,,,,,,,,,,,,,,,,,,,,,,,,,,,,
56b88bf7e1d0a2000b145037,2023-06-16_10h08.32.543,phx_ver10,2022.2.5,Win32,66.64889363,,,,,space,0.5806,0,8,8,41,1,42,training,zh2x,i,zh2x_i,zh2x_6_ixi.wav,,ixi.jpg,,,,,,,,,,,,,,,,,,,,,,,,,,,,,,,,,
56b88bf7e1d0a2000b145037,2023-06-16_10h08.32.543,phx_ver10,2022.2.5,Win32,66.64889363,,,,,space,0.503,0,9,9,31,1,32,training,zh2x,e,zh2x_e,zh2x_8_exe.wav,,exe.jpg,,,,,,,,,,,,,,,,,,,,,,,,,,,,,,,,,
56b88bf7e1d0a2000b145037,2023-06-16_10h08.32.543,phx_ver10,2022.2.5,Win32,66.64889363,,,,,space,1.1136,0,10,10,36,1,37,training,zh2x,i,zh2x_i,zh2x_2_izhi.wav,,izhi.jpg,,,,,,,,,,,,,,,,,,,,,,,,,,,,,,,,,
56b88bf7e1d0a2000b145037,2023-06-16_10h08.32.543,phx_ver10,2022.2.5,Win32,66.64889363,,,,,space,0.6677,0,11,11,20,1,21,training,zh2x,e,zh2x_e,zh2x_2_ezhe.wav,,ezhe.jpg,,,,,,,,,,,,,,,,,,,,,,,,,,,,,,,,,
56b88bf7e1d0a2000b145037,2023-06-16_10h08.32.543,phx_ver10,2022.2.5,Win32,66.64889363,,,,,,,,,,,,,attn_test,,,,zh2x_1_izhi.wav,zh2x_8_axa.wav,izhi.jpg,LEFT,,f,3.0288,space,3.7663,0,0,0,0,1,,,,,,,,,,,,,,,,,,,,,,
56b88bf7e1d0a2000b145037,2023-06-16_10h08.32.543,phx_ver10,2022.2.5,Win32,66.64889363,,,,,space,0.7846,0,12,12,18,1,19,training,zh2x,e,zh2x_e,zh2x_2_ezhe.wav,,ezhe.jpg,,,,,,,,,,,,,,,,,,,,,,,,,,,,,,,,,
56b88bf7e1d0a2000b145037,2023-06-16_10h08.32.543,phx_ver10,2022.2.5,Win32,66.64889363,,,,,space,0.6354,0,13,13,42,1,43,training,zh2x,i,zh2x_i,zh2x_6_ixi.wav,,ixi.jpg,,,,,,,,,,,,,,,,,,,,,,,,,,,,,,,,,
56b88bf7e1d0a2000b145037,2023-06-16_10h08.32.543,phx_ver10,2022.2.5,Win32,66.64889363,,,,,space,0.4462,0,14,14,26,1,27,training,zh2x,e,zh2x_e,zh2x_6_exe.wav,,exe.jpg,,,,,,,,,,,,,,,,,,,,,,,,,,,,,,,,,
56b88bf7e1d0a2000b145037,2023-06-16_10h08.32.543,phx_ver10,2022.2.5,Win32,66.64889363,,,,,space,0.9223,0,15,15,10,1,11,training,zh2x,a,zh2x_a,zh2x_6_axa.wav,,axa.jpg,,,,,,,,,,,,,,,,,,,,,,,,,,,,,,,,,
56b88bf7e1d0a2000b145037,2023-06-16_10h08.32.543,phx_ver10,2022.2.5,Win32,66.64889363,,,,,space,0.3762,0,16,16,46,1,47,training,zh2x,i,zh2x_i,zh2x_7_ixi.wav,,ixi.jpg,,,,,,,,,,,,,,,,,,,,,,,,,,,,,,,,,
56b88bf7e1d0a2000b145037,2023-06-16_10h08.32.543,phx_ver10,2022.2.5,Win32,66.64889363,,,,,space,0.2027,0,17,17,24,1,25,training,zh2x,e,zh2x_e,zh2x_5_exe.wav,,exe.jpg,,,,,,,,,,,,,,,,,,,,,,,,,,,,,,,,,
56b88bf7e1d0a2000b145037,2023-06-16_10h08.32.543,phx_ver10,2022.2.5,Win32,66.64889363,,,,,,,,,,,,,attn_test,,,,zh2x_8_exe.wav,zh2x_8_ixi.wav,exe.jpg,LEFT,,f,0.6024,space,1.4513,0,0,0,0,1,,,,,,,,,,,,,,,,,,,,,,
56b88bf7e1d0a2000b145037,2023-06-16_10h08.32.543,phx_ver10,2022.2.5,Win32,66.64889363,,,,,space,0.7704,0,18,18,44,1,45,training,zh2x,i,zh2x_i,zh2x_7_ixi.wav,,ixi.jpg,,,,,,,,,,,,,,,,,,,,,,,,,,,,,,,,,
56b88bf7e1d0a2000b145037,2023-06-16_10h08.32.543,phx_ver10,2022.2.5,Win32,66.64889363,,,,,space,0.53,0,19,19,3,1,4,training,zh2x,a,zh2x_a,zh2x_2_azha.wav,,azha.jpg,,,,,,,,,,,,,,,,,,,,,,,,,,,,,,,,,
56b88bf7e1d0a2000b145037,2023-06-16_10h08.32.543,phx_ver10,2022.2.5,Win32,66.64889363,,,,,space,0.1853,0,20,20,11,1,12,training,zh2x,a,zh2x_a,zh2x_7_axa.wav,,axa.jpg,,,,,,,,,,,,,,,,,,,,,,,,,,,,,,,,,
56b88bf7e1d0a2000b145037,2023-06-16_10h08.32.543,phx_ver10,2022.2.5,Win32,66.64889363,,,,,space,0.1745,0,21,21,0,1,1,training,zh2x,a,zh2x_a,zh2x_1_azha.wav,,azha.jpg,,,,,,,,,,,,,,,,,,,,,,,,,,,,,,,,,
56b88bf7e1d0a2000b145037,2023-06-16_10h08.32.543,phx_ver10,2022.2.5,Win32,66.64889363,,,,,space,0.1816,0,22,22,35,1,36,training,zh2x,i,zh2x_i,zh2x_2_izhi.wav,,izhi.jpg,,,,,,,,,,,,,,,,,,,,,,,,,,,,,,,,,
56b88bf7e1d0a2000b145037,2023-06-16_10h08.32.543,phx_ver10,2022.2.5,Win32,66.64889363,,,,,space,0.1071,0,23,23,43,1,44,training,zh2x,i,zh2x_i,zh2x_7_ixi.wav,,ixi.jpg,,,,,,,,,,,,,,,,,,,,,,,,,,,,,,,,,
56b88bf7e1d0a2000b145037,2023-06-16_10h08.32.543,phx_ver10,2022.2.5,Win32,66.64889363,,,,,,,,,,,,,attn_test,,,,zh2x_1_azha.wav,zh2x_8_axa.wav,axa.jpg,RIGHT,,f,2.3193,space,2.9846,0,0,0,0,1,,,,,,,,,,,,,,,,,,,,,,
56b88bf7e1d0a2000b145037,2023-06-16_10h08.32.543,phx_ver10,2022.2.5,Win32,66.64889363,,,,,space,0.5976,0,24,24,47,1,48,training,zh2x,i,zh2x_i,zh2x_8_ixi.wav,,ixi.jpg,,,,,,,,,,,,,,,,,,,,,,,,,,,,,,,,,
56b88bf7e1d0a2000b145037,2023-06-16_10h08.32.543,phx_ver10,2022.2.5,Win32,66.64889363,,,,,space,0.5927,0,25,25,39,1,40,training,zh2x,i,zh2x_i,zh2x_4_izhi.wav,,izhi.jpg,,,,,,,,,,,,,,,,,,,,,,,,,,,,,,,,,
56b88bf7e1d0a2000b145037,2023-06-16_10h08.32.543,phx_ver10,2022.2.5,Win32,66.64889363,,,,,space,0.4756,0,26,26,25,1,26,training,zh2x,e,zh2x_e,zh2x_6_exe.wav,,exe.jpg,,,,,,,,,,,,,,,,,,,,,,,,,,,,,,,,,
56b88bf7e1d0a2000b145037,2023-06-16_10h08.32.543,phx_ver10,2022.2.5,Win32,66.64889363,,,,,space,0.1487,0,27,27,6,1,7,training,zh2x,a,zh2x_a,zh2x_3_azha.wav,,azha.jpg,,,,,,,,,,,,,,,,,,,,,,,,,,,,,,,,,
56b88bf7e1d0a2000b145037,2023-06-16_10h08.32.543,phx_ver10,2022.2.5,Win32,66.64889363,,,,,space,0.1651,0,28,28,32,1,33,training,zh2x,i,zh2x_i,zh2x_1_izhi.wav,,izhi.jpg,,,,,,,,,,,,,,,,,,,,,,,,,,,,,,,,,
56b88bf7e1d0a2000b145037,2023-06-16_10h08.32.543,phx_ver10,2022.2.5,Win32,66.64889363,,,,,space,0.0071,0,29,29,34,1,35,training,zh2x,i,zh2x_i,zh2x_2_izhi.wav,,izhi.jpg,,,,,,,,,,,,,,,,,,,,,,,,,,,,,,,,,
56b88bf7e1d0a2000b145037,2023-06-16_10h08.32.543,phx_ver10,2022.2.5,Win32,66.64889363,,,,,,,,,,,,,attn_test,,,,zh2x_8_axa.wav,zh2x_1_izhi.wav,izhi.jpg,RIGHT,,j,0.3606,space,1.1465,0,0,0,0,1,,,,,,,,,,,,,,,,,,,,,,
56b88bf7e1d0a2000b145037,2023-06-16_10h08.32.543,phx_ver10,2022.2.5,Win32,66.64889363,,,,,space,0.1302,0,30,30,8,1,9,training,zh2x,a,zh2x_a,zh2x_5_axa.wav,,axa.jpg,,,,,,,,,,,,,,,,,,,,,,,,,,,,,,,,,
56b88bf7e1d0a2000b145037,2023-06-16_10h08.32.543,phx_ver10,2022.2.5,Win32,66.64889363,,,,,space,0.1377,0,31,31,22,1,23,training,zh2x,e,zh2x_e,zh2x_3_ezhe.wav,,ezhe.jpg,,,,,,,,,,,,,,,,,,,,,,,,,,,,,,,,,
56b88bf7e1d0a2000b145037,2023-06-16_10h08.32.543,phx_ver10,2022.2.5,Win32,66.64889363,,,,,space,0.1561,0,32,32,33,1,34,training,zh2x,i,zh2x_i,zh2x_2_izhi.wav,,izhi.jpg,,,,,,,,,,,,,,,,,,,,,,,,,,,,,,,,,
56b88bf7e1d0a2000b145037,2023-06-16_10h08.32.543,phx_ver10,2022.2.5,Win32,66.64889363,,,,,space,0.0563,0,33,33,13,1,14,training,zh2x,a,zh2x_a,zh2x_7_axa.wav,,axa.jpg,,,,,,,,,,,,,,,,,,,,,,,,,,,,,,,,,
56b88bf7e1d0a2000b145037,2023-06-16_10h08.32.543,phx_ver10,2022.2.5,Win32,66.64889363,,,,,space,0.0264,0,34,34,4,1,5,training,zh2x,a,zh2x_a,zh2x_2_azha.wav,,azha.jpg,,,,,,,,,,,,,,,,,,,,,,,,,,,,,,,,,
56b88bf7e1d0a2000b145037,2023-06-16_10h08.32.543,phx_ver10,2022.2.5,Win32,66.64889363,,,,,space,0.8612,0,35,35,7,1,8,training,zh2x,a,zh2x_a,zh2x_4_azha.wav,,azha.jpg,,,,,,,,,,,,,,,,,,,,,,,,,,,,,,,,,
56b88bf7e1d0a2000b145037,2023-06-16_10h08.32.543,phx_ver10,2022.2.5,Win32,66.64889363,,,,,,,,,,,,,attn_test,,,,zh2x_1_ezhe.wav,zh2x_1_azha.wav,azha.jpg,RIGHT,,j,0.1563,space,0.9568,0,0,0,0,1,,,,,,,,,,,,,,,,,,,,,,
56b88bf7e1d0a2000b145037,2023-06-16_10h08.32.543,phx_ver10,2022.2.5,Win32,66.64889363,,,,,space,0.0843,0,36,36,9,1,10,training,zh2x,a,zh2x_a,zh2x_6_axa.wav,,axa.jpg,,,,,,,,,,,,,,,,,,,,,,,,,,,,,,,,,
56b88bf7e1d0a2000b145037,2023-06-16_10h08.32.543,phx_ver10,2022.2.5,Win32,66.64889363,,,,,space,0.2806,0,37,37,30,1,31,training,zh2x,e,zh2x_e,zh2x_7_exe.wav,,exe.jpg,,,,,,,,,,,,,,,,,,,,,,,,,,,,,,,,,
56b88bf7e1d0a2000b145037,2023-06-16_10h08.32.543,phx_ver10,2022.2.5,Win32,66.64889363,,,,,space,0.0833,0,38,38,16,1,17,training,zh2x,e,zh2x_e,zh2x_1_ezhe.wav,,ezhe.jpg,,,,,,,,,,,,,,,,,,,,,,,,,,,,,,,,,
56b88bf7e1d0a2000b145037,2023-06-16_10h08.32.543,phx_ver10,2022.2.5,Win32,66.64889363,,,,,space,0.0121,0,39,39,37,1,38,training,zh2x,i,zh2x_i,zh2x_3_izhi.wav,,izhi.jpg,,,,,,,,,,,,,,,,,,,,,,,,,,,,,,,,,
56b88bf7e1d0a2000b145037,2023-06-16_10h08.32.543,phx_ver10,2022.2.5,Win32,66.64889363,,,,,space,0.0478,0,40,40,5,1,6,training,zh2x,a,zh2x_a,zh2x_3_azha.wav,,azha.jpg,,,,,,,,,,,,,,,,,,,,,,,,,,,,,,,,,
56b88bf7e1d0a2000b145037,2023-06-16_10h08.32.543,phx_ver10,2022.2.5,Win32,66.64889363,,,,,space,0.932,0,41,41,12,1,13,training,zh2x,a,zh2x_a,zh2x_7_axa.wav,,axa.jpg,,,,,,,,,,,,,,,,,,,,,,,,,,,,,,,,,
56b88bf7e1d0a2000b145037,2023-06-16_10h08.32.543,phx_ver10,2022.2.5,Win32,66.64889363,,,,,,,,,,,,,attn_test,,,,zh2x_8_ixi.wav,zh2x_8_exe.wav,exe.jpg,RIGHT,,f,1.1657,space,1.8348,0,0,0,0,1,,,,,,,,,,,,,,,,,,,,,,
56b88bf7e1d0a2000b145037,2023-06-16_10h08.32.543,phx_ver10,2022.2.5,Win32,66.64889363,,,,,space,0.4839,0,42,42,2,1,3,training,zh2x,a,zh2x_a,zh2x_2_azha.wav,,azha.jpg,,,,,,,,,,,,,,,,,,,,,,,,,,,,,,,,,
56b88bf7e1d0a2000b145037,2023-06-16_10h08.32.543,phx_ver10,2022.2.5,Win32,66.64889363,,,,,space,0.1267,0,43,43,29,1,30,training,zh2x,e,zh2x_e,zh2x_7_exe.wav,,exe.jpg,,,,,,,,,,,,,,,,,,,,,,,,,,,,,,,,,
56b88bf7e1d0a2000b145037,2023-06-16_10h08.32.543,phx_ver10,2022.2.5,Win32,66.64889363,,,,,space,0.7703,0,44,44,38,1,39,training,zh2x,i,zh2x_i,zh2x_3_izhi.wav,,izhi.jpg,,,,,,,,,,,,,,,,,,,,,,,,,,,,,,,,,
56b88bf7e1d0a2000b145037,2023-06-16_10h08.32.543,phx_ver10,2022.2.5,Win32,66.64889363,,,,,space,0.4156,0,45,45,15,1,16,training,zh2x,a,zh2x_a,zh2x_8_axa.wav,,axa.jpg,,,,,,,,,,,,,,,,,,,,,,,,,,,,,,,,,
56b88bf7e1d0a2000b145037,2023-06-16_10h08.32.543,phx_ver10,2022.2.5,Win32,66.64889363,,,,,space,0.0669,0,46,46,45,1,46,training,zh2x,i,zh2x_i,zh2x_7_ixi.wav,,ixi.jpg,,,,,,,,,,,,,,,,,,,,,,,,,,,,,,,,,
56b88bf7e1d0a2000b145037,2023-06-16_10h08.32.543,phx_ver10,2022.2.5,Win32,66.64889363,,,,,space,0.0063,0,47,47,27,1,28,training,zh2x,e,zh2x_e,zh2x_7_exe.wav,,exe.jpg,,,,,,,,,,,,,,,,,,,,,,,,,,,,,,,,,
56b88bf7e1d0a2000b145037,2023-06-16_10h08.32.543,phx_ver10,2022.2.5,Win32,66.64889363,,,,,,,,,,,,,attn_test,,,,zh2x_1_azha.wav,zh2x_8_exe.wav,exe.jpg,RIGHT,,j,0.0618,space,0.7895,,,,,,,,,,,,,,,,,,,,,,,,,,,
56b88bf7e1d0a2000b145037,2023-06-16_10h08.32.543,phx_ver10,2022.2.5,Win32,66.64889363,,,,,,,,,,,,,,,,,,,,,,,,,,,,,,,space,0.1678,,,,,,,,,,,,,,,,,,,,
56b88bf7e1d0a2000b145037,2023-06-16_10h08.32.543,phx_ver10,2022.2.5,Win32,66.64889363,,,,,,,,,,,,,,,,,,,,,,,,,,,,,,,,,space,4.6798,,,,,,,,,,,,,,,,,,
56b88bf7e1d0a2000b145037,2023-06-16_10h08.32.543,phx_ver10,2022.2.5,Win32,66.64889363,,,,,,,,,,,,4,testing_pre,,,,eihei.wav,eihei.wav,,TRUE,,,,,,,,,,,,,,,f,1.379,space,2.1595,0,0,0,3,1,,,,,,,,,
56b88bf7e1d0a2000b145037,2023-06-16_10h08.32.543,phx_ver10,2022.2.5,Win32,66.64889363,,,,,,,,,,,,1,testing_pre,,,,ifi.wav,ifi.wav,,TRUE,,,,,,,,,,,,,,,f,0.7205,space,1.4118,0,1,1,0,1,,,,,,,,,
56b88bf7e1d0a2000b145037,2023-06-16_10h08.32.543,phx_ver10,2022.2.5,Win32,66.64889363,,,,,,,,,,,,3,testing_pre,,,,afa.wav,aha.wav,,FALSE,,,,,,,,,,,,,,,j,1.3365,space,1.9604,0,2,2,2,1,,,,,,,,,
56b88bf7e1d0a2000b145037,2023-06-16_10h08.32.543,phx_ver10,2022.2.5,Win32,66.64889363,,,,,,,,,,,,5,testing_pre,,,,ihi.wav,ifi.wav,,FALSE,,,,,,,,,,,,,,,j,0.6474,space,1.2318,0,3,3,4,1,,,,,,,,,
56b88bf7e1d0a2000b145037,2023-06-16_10h08.32.543,phx_ver10,2022.2.5,Win32,66.64889363,,,,,,,,,,,,2,testing_pre,,,,auhau.wav,aufau.wav,,FALSE,,,,,,,,,,,,,,,j,0.5473,space,1.1392,0,4,4,1,1,,,,,,,,,
56b88bf7e1d0a2000b145037,2023-06-16_10h08.32.543,phx_ver10,2022.2.5,Win32,66.64889363,,,,,,,,,,,,,,,,,,,,,,,,,,,,,,,,,,,,,,,,,,,,space,0.8332,,,,,,,
56b88bf7e1d0a2000b145037,2023-06-16_10h08.32.543,phx_ver10,2022.2.5,Win32,66.64889363,,,,,,,,,,,,110,testing_3,sh2x,e,sh2x_e,sh2x_8_exe.wav,sh2x_8_exe.wav,,TRUE,FALSE,,,,,,,,,,,,,,f,1.0337,space,1.6257,,,,,,,,0,0,0,109,1,,
56b88bf7e1d0a2000b145037,2023-06-16_10h08.32.543,phx_ver10,2022.2.5,Win32,66.64889363,,,,,,,,,,,,144,testing_3,sh2j,i,sh2j_i,sh2j_8_iji.wav,sh2j_1_ishi.wav,,FALSE,FALSE,,,,,,,,,,,,,,j,1.6239,space,2.0258,,,,,,,,0,1,1,143,1,,
56b88bf7e1d0a2000b145037,2023-06-16_10h08.32.543,phx_ver10,2022.2.5,Win32,66.64889363,,,,,,,,,,,,130,testing_3,sh2j,au,sh2j_au,sh2j_8_aujau.wav,sh2j_8_aujau.wav,,TRUE,FALSE,,,,,,,,,,,,,,f,0.7006,space,1.2821,,,,,,,,0,2,2,129,1,,
56b88bf7e1d0a2000b145037,2023-06-16_10h08.32.543,phx_ver10,2022.2.5,Win32,66.64889363,,,,,,,,,,,,45,testing_3,zh2sh,i,zh2sh_i,zh2sh_1_izhi.wav,zh2sh_1_izhi.wav,,TRUE,FALSE,,,,,,,,,,,,,,f,0.7146,space,1.1088,,,,,,,,0,3,3,44,1,,
56b88bf7e1d0a2000b145037,2023-06-16_10h08.32.543,phx_ver10,2022.2.5,Win32,66.64889363,,,,,,,,,,,,125,testing_3,sh2j,ai,sh2j_ai,sh2j_1_aishai.wav,sh2j_1_aishai.wav,,TRUE,FALSE,,,,,,,,,,,,,,f,0.3129,space,0.681,,,,,,,,0,4,4,124,1,,
56b88bf7e1d0a2000b145037,2023-06-16_10h08.32.543,phx_ver10,2022.2.5,Win32,66.64889363,,,,,,,,,,,,98,testing_3,sh2x,a,sh2x_a,sh2x_8_axa.wav,sh2x_8_axa.wav,,TRUE,FALSE,,,,,,,,,,,,,,f,0.5425,space,0.8989,,,,,,,,0,5,5,97,1,,
56b88bf7e1d0a2000b145037,2023-06-16_10h08.32.543,phx_ver10,2022.2.5,Win32,66.64889363,,,,,,,,,,,,22,testing_2,zh2x,ei,zh2x_ei,zh2x_8_eixei.wav,zh2x_8_eixei.wav,,TRUE,FALSE,,,,,,,,,,,,,,f,0.474,space,0.7726,,,,,,,,0,6,6,21,1,,
56b88bf7e1d0a2000b145037,2023-06-16_10h08.32.543,phx_ver10,2022.2.5,Win32,66.64889363,,,,,,,,,,,,59,testing_3,zh2j,au,zh2j_au,zh2j_1_auzhau.wav,zh2j_8_aujau.wav,,FALSE,FALSE,,,,,,,,,,,,,,f,0.3914,space,0.6623,,,,,,,,0,7,7,58,1,,
56b88bf7e1d0a2000b145037,2023-06-16_10h08.32.543,phx_ver10,2022.2.5,Win32,66.64889363,,,,,,,,,,,,95,testing_3,j2x,i,j2x_i,j2x_1_iji.wav,j2x_8_ixi.wav,,FALSE,FALSE,,,,,,,,,,,,,,f,0.665,space,0.9076,,,,,,,,0,8,8,94,1,,
56b88bf7e1d0a2000b145037,2023-06-16_10h08.32.543,phx_ver10,2022.2.5,Win32,66.64889363,,,,,,,,,,,,104,testing_3,sh2x,ai,sh2x_ai,sh2x_8_aixai.wav,sh2x_1_aishai.wav,,FALSE,FALSE,,,,,,,,,,,,,,f,0.4748,space,0.6626,,,,,,,,0,9,9,103,1,,
56b88bf7e1d0a2000b145037,2023-06-16_10h08.32.543,phx_ver10,2022.2.5,Win32,66.64889363,,,,,,,,,,,,92,testing_3,j2x,ei,j2x_ei,j2x_8_eixei.wav,j2x_1_eijei.wav,,FALSE,FALSE,,,,,,,,,,,,,,j,2.3431,space,2.6766,,,,,,,,0,10,10,91,1,,
56b88bf7e1d0a2000b145037,2023-06-16_10h08.32.543,phx_ver10,2022.2.5,Win32,66.64889363,,,,,,,,,,,,105,testing_3,sh2x,au,sh2x_au,sh2x_1_aushau.wav,sh2x_1_aushau.wav,,TRUE,FALSE,,,,,,,,,,,,,,f,0.5982,space,0.889,,,,,,,,0,11,11,104,1,,
56b88bf7e1d0a2000b145037,2023-06-16_10h08.32.543,phx_ver10,2022.2.5,Win32,66.64889363,,,,,,,,,,,,99,testing_3,sh2x,a,sh2x_a,sh2x_1_asha.wav,sh2x_8_axa.wav,,FALSE,FALSE,,,,,,,,,,,,,,j,1.1573,space,1.3824,,,,,,,,0,12,12,98,1,,
56b88bf7e1d0a2000b145037,2023-06-16_10h08.32.543,phx_ver10,2022.2.5,Win32,66.64889363,,,,,,,,,,,,21,testing_2,zh2x,ei,zh2x_ei,zh2x_1_eizhei.wav,zh2x_1_eizhei.wav,,TRUE,FALSE,,,,,,,,,,,,,,f,0.6001,space,0.8694,,,,,,,,0,13,13,20,1,,
56b88bf7e1d0a2000b145037,2023-06-16_10h08.32.543,phx_ver10,2022.2.5,Win32,66.64889363,,,,,,,,,,,,74,testing_3,j2x,a,j2x_a,j2x_8_axa.wav,j2x_8_axa.wav,,TRUE,FALSE,,,,,,,,,,,,,,f,0.3202,space,0.5564,,,,,,,,0,14,14,73,1,,
56b88bf7e1d0a2000b145037,2023-06-16_10h08.32.543,phx_ver10,2022.2.5,Win32,66.64889363,,,,,,,,,,,,70,testing_3,zh2j,i,zh2j_i,zh2j_8_iji.wav,zh2j_8_iji.wav,,TRUE,FALSE,,,,,,,,,,,,,,f,0.4925,space,0.6619,,,,,,,,0,15,15,69,1,,
56b88bf7e1d0a2000b145037,2023-06-16_10h08.32.543,phx_ver10,2022.2.5,Win32,66.64889363,,,,,,,,,,,,12,testing_1,zh2x,i,zh2x_i,zh2x_8_ixi.wav,zh2x_1_izhi.wav,,FALSE,TRUE,,,,,,,,,,,,,,f,0.5592,space,0.7781,,,,,,,,0,16,16,11,1,,
56b88bf7e1d0a2000b145037,2023-06-16_10h08.32.543,phx_ver10,2022.2.5,Win32,66.64889363,,,,,,,,,,,,16,testing_2,zh2x,ai,zh2x_ai,zh2x_8_aixai.wav,zh2x_1_aizhai.wav,,FALSE,FALSE,,,,,,,,,,,,,,f,1.4161,space,1.6914,,,,,,,,0,17,17,15,1,,
56b88bf7e1d0a2000b145037,2023-06-16_10h08.32.543,phx_ver10,2022.2.5,Win32,66.64889363,,,,,,,,,,,,120,testing_3,sh2x,i,sh2x_i,sh2x_8_ixi.wav,sh2x_1_ishi.wav,,FALSE,FALSE,,,,,,,,,,,,,,f,0.5677,space,0.8698,,,,,,,,0,18,18,119,1,,
56b88bf7e1d0a2000b145037,2023-06-16_10h08.32.543,phx_ver10,2022.2.5,Win32,66.64889363,,,,,,,,,,,,44,testing_3,zh2sh,ei,zh2sh_ei,zh2sh_8_eishei.wav,zh2sh_1_eizhei.wav,,FALSE,FALSE,,,,,,,,,,,,,,j,0.4206,space,0.8293,,,,,,,,0,19,19,43,1,,
56b88bf7e1d0a2000b145037,2023-06-16_10h08.32.543,phx_ver10,2022.2.5,Win32,66.64889363,,,,,,,,,,,,134,testing_3,sh2j,e,sh2j_e,sh2j_8_eje.wav,sh2j_8_eje.wav,,TRUE,FALSE,,,,,,,,,,,,,,f,0.629,space,1.0216,,,,,,,,0,20,20,133,1,,
56b88bf7e1d0a2000b145037,2023-06-16_10h08.32.543,phx_ver10,2022.2.5,Win32,66.64889363,,,,,,,,,,,,77,testing_3,j2x,ai,j2x_ai,j2x_1_aijai.wav,j2x_1_aijai.wav,,TRUE,FALSE,,,,,,,,,,,,,,f,0.3944,space,0.6506,,,,,,,,0,21,21,76,1,,
56b88bf7e1d0a2000b145037,2023-06-16_10h08.32.543,phx_ver10,2022.2.5,Win32,66.64889363,,,,,,,,,,,,111,testing_3,sh2x,e,sh2x_e,sh2x_1_eshe.wav,sh2x_8_exe.wav,,FALSE,FALSE,,,,,,,,,,,,,,j,0.6664,space,1.0359,,,,,,,,0,22,22,110,1,,
56b88bf7e1d0a2000b145037,2023-06-16_10h08.32.543,phx_ver10,2022.2.5,Win32,66.64889363,,,,,,,,,,,,1,testing_1,zh2x,a,zh2x_a,zh2x_1_azha.wav,zh2x_1_azha_copy.wav,,TRUE,TRUE,,,,,,,,,,,,,,f,0.3212,space,0.6422,,,,,,,,0,23,23,0,1,,
56b88bf7e1d0a2000b145037,2023-06-16_10h08.32.543,phx_ver10,2022.2.5,Win32,66.64889363,,,,,,,,,,,,76,testing_3,j2x,a,j2x_a,j2x_8_axa.wav,j2x_1_aja.wav,,FALSE,FALSE,,,,,,,,,,,,,,f,1.274,space,1.7124,,,,,,,,0,24,24,75,1,,
56b88bf7e1d0a2000b145037,2023-06-16_10h08.32.543,phx_ver10,2022.2.5,Win32,66.64889363,,,,,,,,,,,,108,testing_3,sh2x,au,sh2x_au,sh2x_8_auxau.wav,sh2x_1_aushau.wav,,FALSE,FALSE,,,,,,,,,,,,,,f,0.263,space,0.5655,,,,,,,,0,25,25,107,1,,
56b88bf7e1d0a2000b145037,2023-06-16_10h08.32.543,phx_ver10,2022.2.5,Win32,66.64889363,,,,,,,,,,,,94,testing_3,j2x,i,j2x_i,j2x_8_ixi.wav,j2x_8_ixi.wav,,TRUE,FALSE,,,,,,,,,,,,,,f,0.2628,space,0.4766,,,,,,,,0,26,26,93,1,,
56b88bf7e1d0a2000b145037,2023-06-16_10h08.32.543,phx_ver10,2022.2.5,Win32,66.64889363,,,,,,,,,,,,117,testing_3,sh2x,i,sh2x_i,sh2x_1_ishi.wav,sh2x_1_ishi.wav,,TRUE,FALSE,,,,,,,,,,,,,,f,0.2634,space,0.4699,,,,,,,,0,27,27,116,1,,
56b88bf7e1d0a2000b145037,2023-06-16_10h08.32.543,phx_ver10,2022.2.5,Win32,66.64889363,,,,,,,,,,,,84,testing_3,j2x,au,j2x_au,j2x_8_auxau.wav,j2x_1_aujau.wav,,FALSE,FALSE,,,,,,,,,,,,,,j,0.3009,space,0.5006,,,,,,,,0,28,28,83,1,,
56b88bf7e1d0a2000b145037,2023-06-16_10h08.32.543,phx_ver10,2022.2.5,Win32,66.64889363,,,,,,,,,,,,8,testing_1,zh2x,e,zh2x_e,zh2x_8_exe.wav,zh2x_1_ezhe.wav,,FALSE,TRUE,,,,,,,,,,,,,,j,0.1591,space,0.3984,,,,,,,,0,29,29,7,1,,
56b88bf7e1d0a2000b145037,2023-06-16_10h08.32.543,phx_ver10,2022.2.5,Win32,66.64889363,,,,,,,,,,,,18,testing_2,zh2x,au,zh2x_au,zh2x_8_auxau.wav,zh2x_8_auxau.wav,,TRUE,FALSE,,,,,,,,,,,,,,f,0.3304,space,0.5287,,,,,,,,0,30,30,17,1,,
56b88bf7e1d0a2000b145037,2023-06-16_10h08.32.543,phx_ver10,2022.2.5,Win32,66.64889363,,,,,,,,,,,,102,testing_3,sh2x,ai,sh2x_ai,sh2x_8_aixai.wav,sh2x_8_aixai.wav,,TRUE,FALSE,,,,,,,,,,,,,,f,0.2842,space,0.4695,,,,,,,,0,31,31,101,1,,
56b88bf7e1d0a2000b145037,2023-06-16_10h08.32.543,phx_ver10,2022.2.5,Win32,66.64889363,,,,,,,,,,,,34,testing_3,zh2sh,au,zh2sh_au,zh2sh_8_aushau.wav,zh2sh_8_aushau.wav,,TRUE,FALSE,,,,,,,,,,,,,,f,0.3351,space,0.4952,,,,,,,,0,32,32,33,1,,
56b88bf7e1d0a2000b145037,2023-06-16_10h08.32.543,phx_ver10,2022.2.5,Win32,66.64889363,,,,,,,,,,,,29,testing_3,zh2sh,ai,zh2sh_ai,zh2sh_1_aizhai.wav,zh2sh_1_aizhai.wav,,TRUE,FALSE,,,,,,,,,,,,,,f,0.479,space,0.7045,,,,,,,,0,33,33,28,1,,
56b88bf7e1d0a2000b145037,2023-06-16_10h08.32.543,phx_ver10,2022.2.5,Win32,66.64889363,,,,,,,,,,,,81,testing_3,j2x,au,j2x_au,j2x_1_aujau.wav,j2x_1_aujau.wav,,TRUE,FALSE,,,,,,,,,,,,,,f,0.391,space,0.5468,,,,,,,,0,34,34,80,1,,
56b88bf7e1d0a2000b145037,2023-06-16_10h08.32.543,phx_ver10,2022.2.5,Win32,66.64889363,,,,,,,,,,,,61,testing_3,zh2j,e,zh2j_e,zh2j_1_ezhe.wav,zh2j_1_ezhe.wav,,TRUE,FALSE,,,,,,,,,,,,,,f,0.4136,space,0.5837,,,,,,,,0,35,35,60,1,,
56b88bf7e1d0a2000b145037,2023-06-16_10h08.32.543,phx_ver10,2022.2.5,Win32,66.64889363,,,,,,,,,,,,4,testing_1,zh2x,a,zh2x_a,zh2x_8_axa.wav,zh2x_1_azha.wav,,FALSE,TRUE,,,,,,,,,,,,,,f,0.3085,space,0.6219,,,,,,,,0,36,36,3,1,,
56b88bf7e1d0a2000b145037,2023-06-16_10h08.32.543,phx_ver10,2022.2.5,Win32,66.64889363,,,,,,,,,,,,11,testing_1,zh2x,i,zh2x_i,zh2x_1_izhi.wav,zh2x_8_ixi.wav,,FALSE,TRUE,,,,,,,,,,,,,,j,0.2787,space,0.6507,,,,,,,,0,37,37,10,1,,
56b88bf7e1d0a2000b145037,2023-06-16_10h08.32.543,phx_ver10,2022.2.5,Win32,66.64889363,,,,,,,,,,,,47,testing_3,zh2sh,i,zh2sh_i,zh2sh_1_izhi.wav,zh2sh_8_ishi.wav,,FALSE,FALSE,,,,,,,,,,,,,,j,0.9674,space,1.2568,,,,,,,,0,38,38,46,1,,
56b88bf7e1d0a2000b145037,2023-06-16_10h08.32.543,phx_ver10,2022.2.5,Win32,66.64889363,,,,,,,,,,,,115,testing_3,sh2x,ei,sh2x_ei,sh2x_1_eishei.wav,sh2x_8_eixei.wav,,FALSE,FALSE,,,,,,,,,,,,,,f,0.8376,space,1.1119,,,,,,,,0,39,39,114,1,,
56b88bf7e1d0a2000b145037,2023-06-16_10h08.32.543,phx_ver10,2022.2.5,Win32,66.64889363,,,,,,,,,,,,38,testing_3,zh2sh,e,zh2sh_e,zh2sh_8_eshe.wav,zh2sh_8_eshe.wav,,TRUE,FALSE,,,,,,,,,,,,,,f,0.2909,space,0.5086,,,,,,,,0,40,40,37,1,,
56b88bf7e1d0a2000b145037,2023-06-16_10h08.32.543,phx_ver10,2022.2.5,Win32,66.64889363,,,,,,,,,,,,60,testing_3,zh2j,au,zh2j_au,zh2j_8_aujau.wav,zh2j_1_auzhau.wav,,FALSE,FALSE,,,,,,,,,,,,,,f,0.3347,space,0.5635,,,,,,,,0,41,41,59,1,,
56b88bf7e1d0a2000b145037,2023-06-16_10h08.32.543,phx_ver10,2022.2.5,Win32,66.64889363,,,,,,,,,,,,73,testing_3,j2x,a,j2x_a,j2x_1_aja.wav,j2x_1_aja.wav,,TRUE,FALSE,,,,,,,,,,,,,,f,0.2019,space,0.3411,,,,,,,,0,42,42,72,1,,
56b88bf7e1d0a2000b145037,2023-06-16_10h08.32.543,phx_ver10,2022.2.5,Win32,66.64889363,,,,,,,,,,,,17,testing_2,zh2x,au,zh2x_au,zh2x_1_auzhau.wav,zh2x_1_auzhau.wav,,TRUE,FALSE,,,,,,,,,,,,,,f,0.1241,space,0.2864,,,,,,,,0,43,43,16,1,,
56b88bf7e1d0a2000b145037,2023-06-16_10h08.32.543,phx_ver10,2022.2.5,Win32,66.64889363,,,,,,,,,,,,53,testing_3,zh2j,ai,zh2j_ai,zh2j_1_aizhai.wav,zh2j_1_aizhai.wav,,TRUE,FALSE,,,,,,,,,,,,,,f,0.2505,space,0.4494,,,,,,,,0,44,44,52,1,,
56b88bf7e1d0a2000b145037,2023-06-16_10h08.32.543,phx_ver10,2022.2.5,Win32,66.64889363,,,,,,,,,,,,119,testing_3,sh2x,i,sh2x_i,sh2x_1_ishi.wav,sh2x_8_ixi.wav,,FALSE,FALSE,,,,,,,,,,,,,,f,0.3637,space,0.6336,,,,,,,,0,45,45,118,1,,
56b88bf7e1d0a2000b145037,2023-06-16_10h08.32.543,phx_ver10,2022.2.5,Win32,66.64889363,,,,,,,,,,,,37,testing_3,zh2sh,e,zh2sh_e,zh2sh_1_ezhe.wav,zh2sh_1_ezhe.wav,,TRUE,FALSE,,,,,,,,,,,,,,f,0.3127,space,0.5644,,,,,,,,0,46,46,36,1,,
56b88bf7e1d0a2000b145037,2023-06-16_10h08.32.543,phx_ver10,2022.2.5,Win32,66.64889363,,,,,,,,,,,,137,testing_3,sh2j,ei,sh2j_ei,sh2j_1_eishei.wav,sh2j_1_eishei.wav,,TRUE,FALSE,,,,,,,,,,,,,,f,0.0591,space,0.2779,,,,,,,,0,47,47,136,1,,
56b88bf7e1d0a2000b145037,2023-06-16_10h08.32.543,phx_ver10,2022.2.5,Win32,66.64889363,,,,,,,,,,,,54,testing_3,zh2j,ai,zh2j_ai,zh2j_8_aijai.wav,zh2j_8_aijai.wav,,TRUE,FALSE,,,,,,,,,,,,,,f,0.1684,space,0.3498,,,,,,,,0,48,48,53,1,,
56b88bf7e1d0a2000b145037,2023-06-16_10h08.32.543,phx_ver10,2022.2.5,Win32,66.64889363,,,,,,,,,,,,139,testing_3,sh2j,ei,sh2j_ei,sh2j_1_eishei.wav,sh2j_8_eijei.wav,,FALSE,FALSE,,,,,,,,,,,,,,j,0.2892,space,0.461,,,,,,,,0,49,49,138,1,,
56b88bf7e1d0a2000b145037,2023-06-16_10h08.32.543,phx_ver10,2022.2.5,Win32,66.64889363,,,,,,,,,,,,62,testing_3,zh2j,e,zh2j_e,zh2j_8_eje.wav,zh2j_8_eje.wav,,TRUE,FALSE,,,,,,,,,,,,,,f,0.256,space,0.5763,,,,,,,,0,50,50,61,1,,
56b88bf7e1d0a2000b145037,2023-06-16_10h08.32.543,phx_ver10,2022.2.5,Win32,66.64889363,,,,,,,,,,,,127,testing_3,sh2j,ai,sh2j_ai,sh2j_1_aishai.wav,sh2j_8_aijai.wav,,FALSE,FALSE,,,,,,,,,,,,,,j,0.3242,space,0.5822,,,,,,,,0,51,51,126,1,,
56b88bf7e1d0a2000b145037,2023-06-16_10h08.32.543,phx_ver10,2022.2.5,Win32,66.64889363,,,,,,,,,,,,80,testing_3,j2x,ai,j2x_ai,j2x_8_aixai.wav,j2x_1_aijai.wav,,FALSE,FALSE,,,,,,,,,,,,,,j,0.4524,space,0.776,,,,,,,,0,52,52,79,1,,
56b88bf7e1d0a2000b145037,2023-06-16_10h08.32.543,phx_ver10,2022.2.5,Win32,66.64889363,,,,,,,,,,,,128,testing_3,sh2j,ai,sh2j_ai,sh2j_8_aijai.wav,sh2j_1_aishai.wav,,FALSE,FALSE,,,,,,,,,,,,,,j,0.1943,space,0.9095,,,,,,,,0,53,53,127,1,,
56b88bf7e1d0a2000b145037,2023-06-16_10h08.32.543,phx_ver10,2022.2.5,Win32,66.64889363,,,,,,,,,,,,57,testing_3,zh2j,au,zh2j_au,zh2j_1_auzhau.wav,zh2j_1_auzhau.wav,,TRUE,FALSE,,,,,,,,,,,,,,f,0.3852,space,0.6806,,,,,,,,0,54,54,56,1,,
56b88bf7e1d0a2000b145037,2023-06-16_10h08.32.543,phx_ver10,2022.2.5,Win32,66.64889363,,,,,,,,,,,,14,testing_2,zh2x,ai,zh2x_ai,zh2x_8_aixai.wav,zh2x_8_aixai.wav,,TRUE,FALSE,,,,,,,,,,,,,,f,0.3601,space,0.5915,,,,,,,,0,55,55,13,1,,
56b88bf7e1d0a2000b145037,2023-06-16_10h08.32.543,phx_ver10,2022.2.5,Win32,66.64889363,,,,,,,,,,,,30,testing_3,zh2sh,ai,zh2sh_ai,zh2sh_8_aishai.wav,zh2sh_8_aishai.wav,,TRUE,FALSE,,,,,,,,,,,,,,f,0.2609,space,0.5271,,,,,,,,0,56,56,29,1,,
56b88bf7e1d0a2000b145037,2023-06-16_10h08.32.543,phx_ver10,2022.2.5,Win32,66.64889363,,,,,,,,,,,,24,testing_2,zh2x,ei,zh2x_ei,zh2x_8_eixei.wav,zh2x_1_eizhei.wav,,FALSE,FALSE,,,,,,,,,,,,,,j,0.4801,space,0.7333,,,,,,,,0,57,57,23,1,,
56b88bf7e1d0a2000b145037,2023-06-16_10h08.32.543,phx_ver10,2022.2.5,Win32,66.64889363,,,,,,,,,,,,10,testing_1,zh2x,i,zh2x_i,zh2x_8_ixi.wav,zh2x_8_ixi_copy.wav,,TRUE,TRUE,,,,,,,,,,,,,,f,0.5483,space,0.8496,,,,,,,,0,58,58,9,1,,
56b88bf7e1d0a2000b145037,2023-06-16_10h08.32.543,phx_ver10,2022.2.5,Win32,66.64889363,,,,,,,,,,,,100,testing_3,sh2x,a,sh2x_a,sh2x_8_axa.wav,sh2x_1_asha.wav,,FALSE,FALSE,,,,,,,,,,,,,,f,0.3544,space,0.5967,,,,,,,,0,59,59,99,1,,
56b88bf7e1d0a2000b145037,2023-06-16_10h08.32.543,phx_ver10,2022.2.5,Win32,66.64889363,,,,,,,,,,,,131,testing_3,sh2j,au,sh2j_au,sh2j_1_aushau.wav,sh2j_8_aujau.wav,,FALSE,FALSE,,,,,,,,,,,,,,j,0.2203,space,0.5516,,,,,,,,0,60,60,130,1,,
56b88bf7e1d0a2000b145037,2023-06-16_10h08.32.543,phx_ver10,2022.2.5,Win32,66.64889363,,,,,,,,,,,,114,testing_3,sh2x,ei,sh2x_ei,sh2x_8_eixei.wav,sh2x_8_eixei.wav,,TRUE,FALSE,,,,,,,,,,,,,,f,0.2352,space,0.5028,,,,,,,,0,61,61,113,1,,
56b88bf7e1d0a2000b145037,2023-06-16_10h08.32.543,phx_ver10,2022.2.5,Win32,66.64889363,,,,,,,,,,,,121,testing_3,sh2j,a,sh2j_a,sh2j_1_asha.wav,sh2j_1_asha.wav,,TRUE,FALSE,,,,,,,,,,,,,,f,0.3762,space,0.5778,,,,,,,,0,62,62,120,1,,
56b88bf7e1d0a2000b145037,2023-06-16_10h08.32.543,phx_ver10,2022.2.5,Win32,66.64889363,,,,,,,,,,,,20,testing_2,zh2x,au,zh2x_au,zh2x_8_auxau.wav,zh2x_1_auzhau.wav,,FALSE,FALSE,,,,,,,,,,,,,,j,0.26,space,0.4644,,,,,,,,0,63,63,19,1,,
56b88bf7e1d0a2000b145037,2023-06-16_10h08.32.543,phx_ver10,2022.2.5,Win32,66.64889363,,,,,,,,,,,,129,testing_3,sh2j,au,sh2j_au,sh2j_1_aushau.wav,sh2j_1_aushau.wav,,TRUE,FALSE,,,,,,,,,,,,,,f,1.3892,space,1.6555,,,,,,,,0,64,64,128,1,,
56b88bf7e1d0a2000b145037,2023-06-16_10h08.32.543,phx_ver10,2022.2.5,Win32,66.64889363,,,,,,,,,,,,68,testing_3,zh2j,ei,zh2j_ei,zh2j_8_eijei.wav,zh2j_1_eizhei.wav,,FALSE,FALSE,,,,,,,,,,,,,,f,0.2419,space,0.5477,,,,,,,,0,65,65,67,1,,
56b88bf7e1d0a2000b145037,2023-06-16_10h08.32.543,phx_ver10,2022.2.5,Win32,66.64889363,,,,,,,,,,,,64,testing_3,zh2j,e,zh2j_e,zh2j_8_eje.wav,zh2j_1_ezhe.wav,,FALSE,FALSE,,,,,,,,,,,,,,f,0.3055,space,0.527,,,,,,,,0,66,66,63,1,,
56b88bf7e1d0a2000b145037,2023-06-16_10h08.32.543,phx_ver10,2022.2.5,Win32,66.64889363,,,,,,,,,,,,27,testing_3,zh2sh,a,zh2sh_a,zh2sh_1_azha.wav,zh2sh_8_asha.wav,,FALSE,FALSE,,,,,,,,,,,,,,j,0.2759,space,0.6411,,,,,,,,0,67,67,26,1,,
56b88bf7e1d0a2000b145037,2023-06-16_10h08.32.543,phx_ver10,2022.2.5,Win32,66.64889363,,,,,,,,,,,,33,testing_3,zh2sh,au,zh2sh_au,zh2sh_1_auzhau.wav,zh2sh_1_auzhau.wav,,TRUE,FALSE,,,,,,,,,,,,,,f,0.6147,space,1.0604,,,,,,,,0,68,68,32,1,,
56b88bf7e1d0a2000b145037,2023-06-16_10h08.32.543,phx_ver10,2022.2.5,Win32,66.64889363,,,,,,,,,,,,138,testing_3,sh2j,ei,sh2j_ei,sh2j_8_eijei.wav,sh2j_8_eijei.wav,,TRUE,FALSE,,,,,,,,,,,,,,f,0.225,space,0.5086,,,,,,,,0,69,69,137,1,,
56b88bf7e1d0a2000b145037,2023-06-16_10h08.32.543,phx_ver10,2022.2.5,Win32,66.64889363,,,,,,,,,,,,79,testing_3,j2x,ai,j2x_ai,j2x_1_aijai.wav,j2x_8_aixai.wav,,FALSE,FALSE,,,,,,,,,,,,,,j,0.325,space,0.7678,,,,,,,,0,70,70,78,1,,
56b88bf7e1d0a2000b145037,2023-06-16_10h08.32.543,phx_ver10,2022.2.5,Win32,66.64889363,,,,,,,,,,,,109,testing_3,sh2x,e,sh2x_e,sh2x_1_eshe.wav,sh2x_1_eshe.wav,,TRUE,FALSE,,,,,,,,,,,,,,f,0.5767,space,1.0593,,,,,,,,0,71,71,108,1,,
56b88bf7e1d0a2000b145037,2023-06-16_10h08.32.543,phx_ver10,2022.2.5,Win32,66.64889363,,,,,,,,,,,,49,testing_3,zh2j,a,zh2j_a,zh2j_1_azha.wav,zh2j_1_azha.wav,,TRUE,FALSE,,,,,,,,,,,,,,f,0.8365,space,1.0954,,,,,,,,0,72,72,48,1,,
56b88bf7e1d0a2000b145037,2023-06-16_10h08.32.543,phx_ver10,2022.2.5,Win32,66.64889363,,,,,,,,,,,,135,testing_3,sh2j,e,sh2j_e,sh2j_1_eshe.wav,sh2j_8_eje.wav,,FALSE,FALSE,,,,,,,,,,,,,,j,0.4984,space,0.9709,,,,,,,,0,73,73,134,1,,
56b88bf7e1d0a2000b145037,2023-06-16_10h08.32.543,phx_ver10,2022.2.5,Win32,66.64889363,,,,,,,,,,,,123,testing_3,sh2j,a,sh2j_a,sh2j_1_asha.wav,sh2j_8_aja.wav,,FALSE,FALSE,,,,,,,,,,,,,,j,0.4478,space,0.8596,,,,,,,,0,74,74,122,1,,
56b88bf7e1d0a2000b145037,2023-06-16_10h08.32.543,phx_ver10,2022.2.5,Win32,66.64889363,,,,,,,,,,,,35,testing_3,zh2sh,au,zh2sh_au,zh2sh_1_auzhau.wav,zh2sh_8_aushau.wav,,FALSE,FALSE,,,,,,,,,,,,,,j,0.1698,space,0.5073,,,,,,,,0,75,75,34,1,,
56b88bf7e1d0a2000b145037,2023-06-16_10h08.32.543,phx_ver10,2022.2.5,Win32,66.64889363,,,,,,,,,,,,69,testing_3,zh2j,i,zh2j_i,zh2j_1_izhi.wav,zh2j_1_izhi.wav,,TRUE,FALSE,,,,,,,,,,,,,,f,0.3068,space,0.6923,,,,,,,,0,76,76,68,1,,
56b88bf7e1d0a2000b145037,2023-06-16_10h08.32.543,phx_ver10,2022.2.5,Win32,66.64889363,,,,,,,,,,,,113,testing_3,sh2x,ei,sh2x_ei,sh2x_1_eishei.wav,sh2x_1_eishei.wav,,TRUE,FALSE,,,,,,,,,,,,,,f,0.1363,space,0.3762,,,,,,,,0,77,77,112,1,,
56b88bf7e1d0a2000b145037,2023-06-16_10h08.32.543,phx_ver10,2022.2.5,Win32,66.64889363,,,,,,,,,,,,5,testing_1,zh2x,e,zh2x_e,zh2x_1_ezhe.wav,zh2x_1_ezhe_copy.wav,,TRUE,TRUE,,,,,,,,,,,,,,f,0.2088,space,0.5282,,,,,,,,0,78,78,4,1,,
56b88bf7e1d0a2000b145037,2023-06-16_10h08.32.543,phx_ver10,2022.2.5,Win32,66.64889363,,,,,,,,,,,,15,testing_2,zh2x,ai,zh2x_ai,zh2x_1_aizhai.wav,zh2x_8_aixai.wav,,FALSE,FALSE,,,,,,,,,,,,,,j,0.4948,space,0.8125,,,,,,,,0,79,79,14,1,,
56b88bf7e1d0a2000b145037,2023-06-16_10h08.32.543,phx_ver10,2022.2.5,Win32,66.64889363,,,,,,,,,,,,66,testing_3,zh2j,ei,zh2j_ei,zh2j_8_eijei.wav,zh2j_8_eijei.wav,,TRUE,FALSE,,,,,,,,,,,,,,f,1.4129,space,1.7156,,,,,,,,0,80,80,65,1,,
56b88bf7e1d0a2000b145037,2023-06-16_10h08.32.543,phx_ver10,2022.2.5,Win32,66.64889363,,,,,,,,,,,,93,testing_3,j2x,i,j2x_i,j2x_1_iji.wav,j2x_1_iji.wav,,TRUE,FALSE,,,,,,,,,,,,,,f,0.326,space,0.8507,,,,,,,,0,81,81,92,1,,
56b88bf7e1d0a2000b145037,2023-06-16_10h08.32.543,phx_ver10,2022.2.5,Win32,66.64889363,,,,,,,,,,,,23,testing_2,zh2x,ei,zh2x_ei,zh2x_1_eizhei.wav,zh2x_8_eixei.wav,,FALSE,FALSE,,,,,,,,,,,,,,j,0.3134,space,1.5931,,,,,,,,0,82,82,22,1,,
56b88bf7e1d0a2000b145037,2023-06-16_10h08.32.543,phx_ver10,2022.2.5,Win32,66.64889363,,,,,,,,,,,,39,testing_3,zh2sh,e,zh2sh_e,zh2sh_1_ezhe.wav,zh2sh_8_eshe.wav,,FALSE,FALSE,,,,,,,,,,,,,,j,1.0215,space,1.6714,,,,,,,,0,83,83,38,1,,
56b88bf7e1d0a2000b145037,2023-06-16_10h08.32.543,phx_ver10,2022.2.5,Win32,66.64889363,,,,,,,,,,,,9,testing_1,zh2x,i,zh2x_i,zh2x_1_izhi.wav,zh2x_1_izhi_copy.wav,,TRUE,TRUE,,,,,,,,,,,,,,f,0.3133,space,0.7045,,,,,,,,0,84,84,8,1,,
56b88bf7e1d0a2000b145037,2023-06-16_10h08.32.543,phx_ver10,2022.2.5,Win32,66.64889363,,,,,,,,,,,,26,testing_3,zh2sh,a,zh2sh_a,zh2sh_8_asha.wav,zh2sh_8_asha.wav,,TRUE,FALSE,,,,,,,,,,,,,,f,0.1501,space,0.402,,,,,,,,0,85,85,25,1,,
56b88bf7e1d0a2000b145037,2023-06-16_10h08.32.543,phx_ver10,2022.2.5,Win32,66.64889363,,,,,,,,,,,,143,testing_3,sh2j,i,sh2j_i,sh2j_1_ishi.wav,sh2j_8_iji.wav,,FALSE,FALSE,,,,,,,,,,,,,,j,0.2417,space,0.5405,,,,,,,,0,86,86,142,1,,
56b88bf7e1d0a2000b145037,2023-06-16_10h08.32.543,phx_ver10,2022.2.5,Win32,66.64889363,,,,,,,,,,,,97,testing_3,sh2x,a,sh2x_a,sh2x_1_asha.wav,sh2x_1_asha.wav,,TRUE,FALSE,,,,,,,,,,,,,,f,0.2719,space,0.4912,,,,,,,,0,87,87,96,1,,
56b88bf7e1d0a2000b145037,2023-06-16_10h08.32.543,phx_ver10,2022.2.5,Win32,66.64889363,,,,,,,,,,,,19,testing_2,zh2x,au,zh2x_au,zh2x_1_auzhau.wav,zh2x_8_auxau.wav,,FALSE,FALSE,,,,,,,,,,,,,,j,0.2247,space,0.6653,,,,,,,,0,88,88,18,1,,
56b88bf7e1d0a2000b145037,2023-06-16_10h08.32.543,phx_ver10,2022.2.5,Win32,66.64889363,,,,,,,,,,,,67,testing_3,zh2j,ei,zh2j_ei,zh2j_1_eizhei.wav,zh2j_8_eijei.wav,,FALSE,FALSE,,,,,,,,,,,,,,f,0.3678,space,0.7762,,,,,,,,0,89,89,66,1,,
56b88bf7e1d0a2000b145037,2023-06-16_10h08.32.543,phx_ver10,2022.2.5,Win32,66.64889363,,,,,,,,,,,,83,testing_3,j2x,au,j2x_au,j2x_1_aujau.wav,j2x_8_auxau.wav,,FALSE,FALSE,,,,,,,,,,,,,,j,0.161,space,0.6277,,,,,,,,0,90,90,82,1,,
56b88bf7e1d0a2000b145037,2023-06-16_10h08.32.543,phx_ver10,2022.2.5,Win32,66.64889363,,,,,,,,,,,,116,testing_3,sh2x,ei,sh2x_ei,sh2x_8_eixei.wav,sh2x_1_eishei.wav,,FALSE,FALSE,,,,,,,,,,,,,,f,0.5095,space,0.8634,,,,,,,,0,91,91,115,1,,
56b88bf7e1d0a2000b145037,2023-06-16_10h08.32.543,phx_ver10,2022.2.5,Win32,66.64889363,,,,,,,,,,,,6,testing_1,zh2x,e,zh2x_e,zh2x_8_exe.wav,zh2x_8_exe_copy.wav,,TRUE,TRUE,,,,,,,,,,,,,,f,0.6094,space,0.9597,,,,,,,,0,92,92,5,1,,
56b88bf7e1d0a2000b145037,2023-06-16_10h08.32.543,phx_ver10,2022.2.5,Win32,66.64889363,,,,,,,,,,,,142,testing_3,sh2j,i,sh2j_i,sh2j_8_iji.wav,sh2j_8_iji.wav,,TRUE,FALSE,,,,,,,,,,,,,,f,21.5613,space,22.1541,,,,,,,,0,93,93,141,1,,
56b88bf7e1d0a2000b145037,2023-06-16_10h08.32.543,phx_ver10,2022.2.5,Win32,66.64889363,,,,,,,,,,,,124,testing_3,sh2j,a,sh2j_a,sh2j_8_aja.wav,sh2j_1_asha.wav,,FALSE,FALSE,,,,,,,,,,,,,,j,0.0428,space,0.6507,,,,,,,,0,94,94,123,1,,
56b88bf7e1d0a2000b145037,2023-06-16_10h08.32.543,phx_ver10,2022.2.5,Win32,66.64889363,,,,,,,,,,,,63,testing_3,zh2j,e,zh2j_e,zh2j_1_ezhe.wav,zh2j_8_eje.wav,,FALSE,FALSE,,,,,,,,,,,,,,j,0.4272,space,0.676,,,,,,,,0,95,95,62,1,,
56b88bf7e1d0a2000b145037,2023-06-16_10h08.32.543,phx_ver10,2022.2.5,Win32,66.64889363,,,,,,,,,,,,141,testing_3,sh2j,i,sh2j_i,sh2j_1_ishi.wav,sh2j_1_ishi.wav,,TRUE,FALSE,,,,,,,,,,,,,,f,0.2045,space,0.4809,,,,,,,,0,96,96,140,1,,
56b88bf7e1d0a2000b145037,2023-06-16_10h08.32.543,phx_ver10,2022.2.5,Win32,66.64889363,,,,,,,,,,,,7,testing_1,zh2x,e,zh2x_e,zh2x_1_ezhe.wav,zh2x_8_exe.wav,,FALSE,TRUE,,,,,,,,,,,,,,j,0.3574,space,0.7442,,,,,,,,0,97,97,6,1,,
56b88bf7e1d0a2000b145037,2023-06-16_10h08.32.543,phx_ver10,2022.2.5,Win32,66.64889363,,,,,,,,,,,,51,testing_3,zh2j,a,zh2j_a,zh2j_1_azha.wav,zh2j_8_aja.wav,,FALSE,FALSE,,,,,,,,,,,,,,f,0.1769,space,0.4163,,,,,,,,0,98,98,50,1,,
56b88bf7e1d0a2000b145037,2023-06-16_10h08.32.543,phx_ver10,2022.2.5,Win32,66.64889363,,,,,,,,,,,,133,testing_3,sh2j,e,sh2j_e,sh2j_1_eshe.wav,sh2j_1_eshe.wav,,TRUE,FALSE,,,,,,,,,,,,,,f,0.177,space,0.4554,,,,,,,,0,99,99,132,1,,
56b88bf7e1d0a2000b145037,2023-06-16_10h08.32.543,phx_ver10,2022.2.5,Win32,66.64889363,,,,,,,,,,,,75,testing_3,j2x,a,j2x_a,j2x_1_aja.wav,j2x_8_axa.wav,,FALSE,FALSE,,,,,,,,,,,,,,j,0.1288,space,0.5343,,,,,,,,0,100,100,74,1,,
56b88bf7e1d0a2000b145037,2023-06-16_10h08.32.543,phx_ver10,2022.2.5,Win32,66.64889363,,,,,,,,,,,,78,testing_3,j2x,ai,j2x_ai,j2x_8_aixai.wav,j2x_8_aixai.wav,,TRUE,FALSE,,,,,,,,,,,,,,j,0.1868,space,0.3847,,,,,,,,0,101,101,77,1,,
56b88bf7e1d0a2000b145037,2023-06-16_10h08.32.543,phx_ver10,2022.2.5,Win32,66.64889363,,,,,,,,,,,,36,testing_3,zh2sh,au,zh2sh_au,zh2sh_8_aushau.wav,zh2sh_1_auzhau.wav,,FALSE,FALSE,,,,,,,,,,,,,,j,0.3012,space,0.5598,,,,,,,,0,102,102,35,1,,
56b88bf7e1d0a2000b145037,2023-06-16_10h08.32.543,phx_ver10,2022.2.5,Win32,66.64889363,,,,,,,,,,,,40,testing_3,zh2sh,e,zh2sh_e,zh2sh_8_eshe.wav,zh2sh_1_ezhe.wav,,FALSE,FALSE,,,,,,,,,,,,,,j,0.7612,space,1.0974,,,,,,,,0,103,103,39,1,,
56b88bf7e1d0a2000b145037,2023-06-16_10h08.32.543,phx_ver10,2022.2.5,Win32,66.64889363,,,,,,,,,,,,140,testing_3,sh2j,ei,sh2j_ei,sh2j_8_eijei.wav,sh2j_1_eishei.wav,,FALSE,FALSE,,,,,,,,,,,,,,j,0.2905,space,0.5347,,,,,,,,0,104,104,139,1,,
56b88bf7e1d0a2000b145037,2023-06-16_10h08.32.543,phx_ver10,2022.2.5,Win32,66.64889363,,,,,,,,,,,,96,testing_3,j2x,i,j2x_i,j2x_8_ixi.wav,j2x_1_iji.wav,,FALSE,FALSE,,,,,,,,,,,,,,j,0.2078,space,0.503,,,,,,,,0,105,105,95,1,,
56b88bf7e1d0a2000b145037,2023-06-16_10h08.32.543,phx_ver10,2022.2.5,Win32,66.64889363,,,,,,,,,,,,50,testing_3,zh2j,a,zh2j_a,zh2j_8_aja.wav,zh2j_8_aja.wav,,TRUE,FALSE,,,,,,,,,,,,,,f,0.2626,space,0.5415,,,,,,,,0,106,106,49,1,,
56b88bf7e1d0a2000b145037,2023-06-16_10h08.32.543,phx_ver10,2022.2.5,Win32,66.64889363,,,,,,,,,,,,88,testing_3,j2x,e,j2x_e,j2x_8_exe.wav,j2x_1_eje.wav,,FALSE,FALSE,,,,,,,,,,,,,,f,0.2701,space,0.5063,,,,,,,,0,107,107,87,1,,
56b88bf7e1d0a2000b145037,2023-06-16_10h08.32.543,phx_ver10,2022.2.5,Win32,66.64889363,,,,,,,,,,,,82,testing_3,j2x,au,j2x_au,j2x_8_auxau.wav,j2x_8_auxau.wav,,TRUE,FALSE,,,,,,,,,,,,,,f,0.3768,space,0.5805,,,,,,,,0,108,108,81,1,,
56b88bf7e1d0a2000b145037,2023-06-16_10h08.32.543,phx_ver10,2022.2.5,Win32,66.64889363,,,,,,,,,,,,89,testing_3,j2x,ei,j2x_ei,j2x_1_eijei.wav,j2x_1_eijei.wav,,TRUE,FALSE,,,,,,,,,,,,,,f,0.2427,space,0.5269,,,,,,,,0,109,109,88,1,,
56b88bf7e1d0a2000b145037,2023-06-16_10h08.32.543,phx_ver10,2022.2.5,Win32,66.64889363,,,,,,,,,,,,25,testing_3,zh2sh,a,zh2sh_a,zh2sh_1_azha.wav,zh2sh_1_azha.wav,,TRUE,FALSE,,,,,,,,,,,,,,f,0.1829,space,0.3845,,,,,,,,0,110,110,24,1,,
56b88bf7e1d0a2000b145037,2023-06-16_10h08.32.543,phx_ver10,2022.2.5,Win32,66.64889363,,,,,,,,,,,,126,testing_3,sh2j,ai,sh2j_ai,sh2j_8_aijai.wav,sh2j_8_aijai.wav,,TRUE,FALSE,,,,,,,,,,,,,,f,0.2368,space,0.4463,,,,,,,,0,111,111,125,1,,
56b88bf7e1d0a2000b145037,2023-06-16_10h08.32.543,phx_ver10,2022.2.5,Win32,66.64889363,,,,,,,,,,,,31,testing_3,zh2sh,ai,zh2sh_ai,zh2sh_1_aizhai.wav,zh2sh_8_aishai.wav,,FALSE,FALSE,,,,,,,,,,,,,,j,0.1275,space,0.5789,,,,,,,,0,112,112,30,1,,
56b88bf7e1d0a2000b145037,2023-06-16_10h08.32.543,phx_ver10,2022.2.5,Win32,66.64889363,,,,,,,,,,,,122,testing_3,sh2j,a,sh2j_a,sh2j_8_aja.wav,sh2j_8_aja.wav,,TRUE,FALSE,,,,,,,,,,,,,,f,0.1885,space,0.4379,,,,,,,,0,113,113,121,1,,
56b88bf7e1d0a2000b145037,2023-06-16_10h08.32.543,phx_ver10,2022.2.5,Win32,66.64889363,,,,,,,,,,,,13,testing_2,zh2x,ai,zh2x_ai,zh2x_1_aizhai.wav,zh2x_1_aizhai.wav,,TRUE,FALSE,,,,,,,,,,,,,,f,0.1043,space,0.3219,,,,,,,,0,114,114,12,1,,
56b88bf7e1d0a2000b145037,2023-06-16_10h08.32.543,phx_ver10,2022.2.5,Win32,66.64889363,,,,,,,,,,,,72,testing_3,zh2j,i,zh2j_i,zh2j_8_iji.wav,zh2j_1_izhi.wav,,FALSE,FALSE,,,,,,,,,,,,,,f,0.2272,space,0.4313,,,,,,,,0,115,115,71,1,,
56b88bf7e1d0a2000b145037,2023-06-16_10h08.32.543,phx_ver10,2022.2.5,Win32,66.64889363,,,,,,,,,,,,3,testing_1,zh2x,a,zh2x_a,zh2x_1_azha.wav,zh2x_8_axa.wav,,FALSE,TRUE,,,,,,,,,,,,,,j,0.5646,space,0.952,,,,,,,,0,116,116,2,1,,
56b88bf7e1d0a2000b145037,2023-06-16_10h08.32.543,phx_ver10,2022.2.5,Win32,66.64889363,,,,,,,,,,,,58,testing_3,zh2j,au,zh2j_au,zh2j_8_aujau.wav,zh2j_8_aujau.wav,,TRUE,FALSE,,,,,,,,,,,,,,f,0.2876,space,0.5005,,,,,,,,0,117,117,57,1,,
56b88bf7e1d0a2000b145037,2023-06-16_10h08.32.543,phx_ver10,2022.2.5,Win32,66.64889363,,,,,,,,,,,,132,testing_3,sh2j,au,sh2j_au,sh2j_8_aujau.wav,sh2j_1_aushau.wav,,FALSE,FALSE,,,,,,,,,,,,,,j,0.0724,space,0.3945,,,,,,,,0,118,118,131,1,,
56b88bf7e1d0a2000b145037,2023-06-16_10h08.32.543,phx_ver10,2022.2.5,Win32,66.64889363,,,,,,,,,,,,101,testing_3,sh2x,ai,sh2x_ai,sh2x_1_aishai.wav,sh2x_1_aishai.wav,,TRUE,FALSE,,,,,,,,,,,,,,f,0.2245,space,0.4917,,,,,,,,0,119,119,100,1,,
56b88bf7e1d0a2000b145037,2023-06-16_10h08.32.543,phx_ver10,2022.2.5,Win32,66.64889363,,,,,,,,,,,,112,testing_3,sh2x,e,sh2x_e,sh2x_8_exe.wav,sh2x_1_eshe.wav,,FALSE,FALSE,,,,,,,,,,,,,,j,0.187,space,0.421,,,,,,,,0,120,120,111,1,,
56b88bf7e1d0a2000b145037,2023-06-16_10h08.32.543,phx_ver10,2022.2.5,Win32,66.64889363,,,,,,,,,,,,103,testing_3,sh2x,ai,sh2x_ai,sh2x_1_aishai.wav,sh2x_8_aixai.wav,,FALSE,FALSE,,,,,,,,,,,,,,j,0.062,space,0.3277,,,,,,,,0,121,121,102,1,,
56b88bf7e1d0a2000b145037,2023-06-16_10h08.32.543,phx_ver10,2022.2.5,Win32,66.64889363,,,,,,,,,,,,56,testing_3,zh2j,ai,zh2j_ai,zh2j_8_aijai.wav,zh2j_1_aizhai.wav,,FALSE,FALSE,,,,,,,,,,,,,,f,0.1239,space,0.2949,,,,,,,,0,122,122,55,1,,
56b88bf7e1d0a2000b145037,2023-06-16_10h08.32.543,phx_ver10,2022.2.5,Win32,66.64889363,,,,,,,,,,,,87,testing_3,j2x,e,j2x_e,j2x_1_eje.wav,j2x_8_exe.wav,,FALSE,FALSE,,,,,,,,,,,,,,j,0.0982,space,0.3303,,,,,,,,0,123,123,86,1,,
56b88bf7e1d0a2000b145037,2023-06-16_10h08.32.543,phx_ver10,2022.2.5,Win32,66.64889363,,,,,,,,,,,,86,testing_3,j2x,e,j2x_e,j2x_8_exe.wav,j2x_8_exe.wav,,TRUE,FALSE,,,,,,,,,,,,,,f,0.4068,space,0.6574,,,,,,,,0,124,124,85,1,,
56b88bf7e1d0a2000b145037,2023-06-16_10h08.32.543,phx_ver10,2022.2.5,Win32,66.64889363,,,,,,,,,,,,28,testing_3,zh2sh,a,zh2sh_a,zh2sh_8_asha.wav,zh2sh_1_azha.wav,,FALSE,FALSE,,,,,,,,,,,,,,j,0.2545,space,0.6063,,,,,,,,0,125,125,27,1,,
56b88bf7e1d0a2000b145037,2023-06-16_10h08.32.543,phx_ver10,2022.2.5,Win32,66.64889363,,,,,,,,,,,,55,testing_3,zh2j,ai,zh2j_ai,zh2j_1_aizhai.wav,zh2j_8_aijai.wav,,FALSE,FALSE,,,,,,,,,,,,,,f,0.2766,space,0.4421,,,,,,,,0,126,126,54,1,,
56b88bf7e1d0a2000b145037,2023-06-16_10h08.32.543,phx_ver10,2022.2.5,Win32,66.64889363,,,,,,,,,,,,118,testing_3,sh2x,i,sh2x_i,sh2x_8_ixi.wav,sh2x_8_ixi.wav,,TRUE,FALSE,,,,,,,,,,,,,,f,0.1716,space,0.3206,,,,,,,,0,127,127,117,1,,
56b88bf7e1d0a2000b145037,2023-06-16_10h08.32.543,phx_ver10,2022.2.5,Win32,66.64889363,,,,,,,,,,,,107,testing_3,sh2x,au,sh2x_au,sh2x_1_aushau.wav,sh2x_8_auxau.wav,,FALSE,FALSE,,,,,,,,,,,,,,j,0.1251,space,0.3179,,,,,,,,0,128,128,106,1,,
56b88bf7e1d0a2000b145037,2023-06-16_10h08.32.543,phx_ver10,2022.2.5,Win32,66.64889363,,,,,,,,,,,,41,testing_3,zh2sh,ei,zh2sh_ei,zh2sh_1_eizhei.wav,zh2sh_1_eizhei.wav,,TRUE,FALSE,,,,,,,,,,,,,,f,0.2943,space,0.4937,,,,,,,,0,129,129,40,1,,
56b88bf7e1d0a2000b145037,2023-06-16_10h08.32.543,phx_ver10,2022.2.5,Win32,66.64889363,,,,,,,,,,,,2,testing_1,zh2x,a,zh2x_a,zh2x_8_axa.wav,zh2x_8_axa_copy.wav,,TRUE,TRUE,,,,,,,,,,,,,,f,0.1295,space,0.281,,,,,,,,0,130,130,1,1,,
56b88bf7e1d0a2000b145037,2023-06-16_10h08.32.543,phx_ver10,2022.2.5,Win32,66.64889363,,,,,,,,,,,,52,testing_3,zh2j,a,zh2j_a,zh2j_8_aja.wav,zh2j_1_azha.wav,,FALSE,FALSE,,,,,,,,,,,,,,f,0.0776,space,0.2065,,,,,,,,0,131,131,51,1,,
56b88bf7e1d0a2000b145037,2023-06-16_10h08.32.543,phx_ver10,2022.2.5,Win32,66.64889363,,,,,,,,,,,,106,testing_3,sh2x,au,sh2x_au,sh2x_8_auxau.wav,sh2x_8_auxau.wav,,TRUE,FALSE,,,,,,,,,,,,,,f,1.2582,space,1.4405,,,,,,,,0,132,132,105,1,,
56b88bf7e1d0a2000b145037,2023-06-16_10h08.32.543,phx_ver10,2022.2.5,Win32,66.64889363,,,,,,,,,,,,85,testing_3,j2x,e,j2x_e,j2x_1_eje.wav,j2x_1_eje.wav,,TRUE,FALSE,,,,,,,,,,,,,,f,0.2272,space,0.5996,,,,,,,,0,133,133,84,1,,
56b88bf7e1d0a2000b145037,2023-06-16_10h08.32.543,phx_ver10,2022.2.5,Win32,66.64889363,,,,,,,,,,,,42,testing_3,zh2sh,ei,zh2sh_ei,zh2sh_8_eishei.wav,zh2sh_8_eishei.wav,,TRUE,FALSE,,,,,,,,,,,,,,f,0.0748,space,0.2114,,,,,,,,0,134,134,41,1,,
56b88bf7e1d0a2000b145037,2023-06-16_10h08.32.543,phx_ver10,2022.2.5,Win32,66.64889363,,,,,,,,,,,,65,testing_3,zh2j,ei,zh2j_ei,zh2j_1_eizhei.wav,zh2j_1_eizhei.wav,,TRUE,FALSE,,,,,,,,,,,,,,f,0.0852,space,0.2096,,,,,,,,0,135,135,64,1,,
56b88bf7e1d0a2000b145037,2023-06-16_10h08.32.543,phx_ver10,2022.2.5,Win32,66.64889363,,,,,,,,,,,,46,testing_3,zh2sh,i,zh2sh_i,zh2sh_8_ishi.wav,zh2sh_8_ishi.wav,,TRUE,FALSE,,,,,,,,,,,,,,f,0.1128,space,0.2605,,,,,,,,0,136,136,45,1,,
56b88bf7e1d0a2000b145037,2023-06-16_10h08.32.543,phx_ver10,2022.2.5,Win32,66.64889363,,,,,,,,,,,,71,testing_3,zh2j,i,zh2j_i,zh2j_1_izhi.wav,zh2j_8_iji.wav,,FALSE,FALSE,,,,,,,,,,,,,,f,0.1085,space,0.2671,,,,,,,,0,137,137,70,1,,
56b88bf7e1d0a2000b145037,2023-06-16_10h08.32.543,phx_ver10,2022.2.5,Win32,66.64889363,,,,,,,,,,,,32,testing_3,zh2sh,ai,zh2sh_ai,zh2sh_8_aishai.wav,zh2sh_1_aizhai.wav,,FALSE,FALSE,,,,,,,,,,,,,,j,0.2734,space,0.4474,,,,,,,,0,138,138,31,1,,
56b88bf7e1d0a2000b145037,2023-06-16_10h08.32.543,phx_ver10,2022.2.5,Win32,66.64889363,,,,,,,,,,,,43,testing_3,zh2sh,ei,zh2sh_ei,zh2sh_1_eizhei.wav,zh2sh_8_eishei.wav,,FALSE,FALSE,,,,,,,,,,,,,,j,0.1556,space,0.3827,,,,,,,,0,139,139,42,1,,
56b88bf7e1d0a2000b145037,2023-06-16_10h08.32.543,phx_ver10,2022.2.5,Win32,66.64889363,,,,,,,,,,,,91,testing_3,j2x,ei,j2x_ei,j2x_1_eijei.wav,j2x_8_eixei.wav,,FALSE,FALSE,,,,,,,,,,,,,,j,0.0262,space,0.2586,,,,,,,,0,140,140,90,1,,
56b88bf7e1d0a2000b145037,2023-06-16_10h08.32.543,phx_ver10,2022.2.5,Win32,66.64889363,,,,,,,,,,,,90,testing_3,j2x,ei,j2x_ei,j2x_8_eixei.wav,j2x_8_eixei.wav,,TRUE,FALSE,,,,,,,,,,,,,,f,0.4248,space,0.76,,,,,,,,0,141,141,89,1,,
56b88bf7e1d0a2000b145037,2023-06-16_10h08.32.543,phx_ver10,2022.2.5,Win32,66.64889363,,,,,,,,,,,,136,testing_3,sh2j,e,sh2j_e,sh2j_8_eje.wav,sh2j_1_eshe.wav,,FALSE,FALSE,,,,,,,,,,,,,,j,0.1619,space,0.5002,,,,,,,,0,142,142,135,1,,
56b88bf7e1d0a2000b145037,2023-06-16_10h08.32.543,phx_ver10,2022.2.5,Win32,66.64889363,,,,,,,,,,,,48,testing_3,zh2sh,i,zh2sh_i,zh2sh_8_ishi.wav,zh2sh_1_izhi.wav,,FALSE,FALSE,,,,,,,,,,,,,,j,0.4922,space,0.7074,,,,,,,,0,143,143,47,1,,
56b88bf7e1d0a2000b145037,2023-06-16_10h08.32.543,phx_ver10,2022.2.5,Win32,66.64889363,,,,,,,,,,,,,,,,,,,,,,,,,,,,,,,,,,,,,,,,,,,,,,,,,,,space,1.8858
