participant,date,expName,psychopyVersion,OS,frameRate,space_1.keys,space_1.rt,space_2.keys,space_2.rt,space_train.keys,space_train.rt,training.thisRepN,training.thisTrialN,training.thisN,training.thisIndex,training.ran,token_id,task,continuum,vowel,series,sound_1,sound_2,img,same,trained,FJ_attn.keys,FJ_attn.rt,space_attn.keys,space_attn.rt,if_attn_test.thisRepN,if_attn_test.thisTrialN,if_attn_test.thisN,if_attn_test.thisIndex,if_attn_test.ran,space_trans_1.keys,space_trans_1.rt,space_trans_11.keys,space_trans_11.rt,FJ_test.keys,FJ_test.rt,space_test.keys,space_test.rt,testing_pre.thisRepN,testing_pre.thisTrialN,testing_pre.thisN,testing_pre.thisIndex,testing_pre.ran,space_trans_2.keys,space_trans_2.rt,testing_all.thisRepN,testing_all.thisTrialN,testing_all.thisN,testing_all.thisIndex,testing_all.ran,space_ending.keys,space_ending.rt
5770de783ac68100019d77af,2023-06-16_19h15.51.989,phx_ver10,2022.2.5,Win32,59.84798612,,,,,,,,,,,,,,,,,,,,,,,,,,,,,,,,,,,,,,,,,,,,,,,,,,,,
5770de783ac68100019d77af,2023-06-16_19h15.51.989,phx_ver10,2022.2.5,Win32,59.84798612,space,3.4122,,,,,,,,,,,,,,,,,,,,,,,,,,,,,,,,,,,,,,,,,,,,,,,,,,
5770de783ac68100019d77af,2023-06-16_19h15.51.989,phx_ver10,2022.2.5,Win32,59.84798612,,,space,1.2265,,,,,,,,,,,,,,,,,,,,,,,,,,,,,,,,,,,,,,,,,,,,,,,,
5770de783ac68100019d77af,2023-06-16_19h15.51.989,phx_ver10,2022.2.5,Win32,59.84798612,,,,,space,1.5365,0,0,0,27,1,28,training,zh2x,e,zh2x_e,zh2x_7_exe.wav,,exe.jpg,,,,,,,,,,,,,,,,,,,,,,,,,,,,,,,,,
5770de783ac68100019d77af,2023-06-16_19h15.51.989,phx_ver10,2022.2.5,Win32,59.84798612,,,,,space,0.8838,0,1,1,0,1,1,training,zh2x,a,zh2x_a,zh2x_1_azha.wav,,azha.jpg,,,,,,,,,,,,,,,,,,,,,,,,,,,,,,,,,
5770de783ac68100019d77af,2023-06-16_19h15.51.989,phx_ver10,2022.2.5,Win32,59.84798612,,,,,space,2.7542,0,2,2,21,1,22,training,zh2x,e,zh2x_e,zh2x_3_ezhe.wav,,ezhe.jpg,,,,,,,,,,,,,,,,,,,,,,,,,,,,,,,,,
5770de783ac68100019d77af,2023-06-16_19h15.51.989,phx_ver10,2022.2.5,Win32,59.84798612,,,,,space,0.6936,0,3,3,4,1,5,training,zh2x,a,zh2x_a,zh2x_2_azha.wav,,azha.jpg,,,,,,,,,,,,,,,,,,,,,,,,,,,,,,,,,
5770de783ac68100019d77af,2023-06-16_19h15.51.989,phx_ver10,2022.2.5,Win32,59.84798612,,,,,space,0.5162,0,4,4,45,1,46,training,zh2x,i,zh2x_i,zh2x_7_ixi.wav,,ixi.jpg,,,,,,,,,,,,,,,,,,,,,,,,,,,,,,,,,
5770de783ac68100019d77af,2023-06-16_19h15.51.989,phx_ver10,2022.2.5,Win32,59.84798612,,,,,space,1.1003,0,5,5,34,1,35,training,zh2x,i,zh2x_i,zh2x_2_izhi.wav,,izhi.jpg,,,,,,,,,,,,,,,,,,,,,,,,,,,,,,,,,
5770de783ac68100019d77af,2023-06-16_19h15.51.989,phx_ver10,2022.2.5,Win32,59.84798612,,,,,,,,,,,,,attn_test,,,,zh2x_8_axa.wav,zh2x_8_ixi.wav,ixi.jpg,RIGHT,,j,5.8314,space,6.5921,0,0,0,0,1,,,,,,,,,,,,,,,,,,,,,,
5770de783ac68100019d77af,2023-06-16_19h15.51.989,phx_ver10,2022.2.5,Win32,59.84798612,,,,,space,0.5118,0,6,6,22,1,23,training,zh2x,e,zh2x_e,zh2x_3_ezhe.wav,,ezhe.jpg,,,,,,,,,,,,,,,,,,,,,,,,,,,,,,,,,
5770de783ac68100019d77af,2023-06-16_19h15.51.989,phx_ver10,2022.2.5,Win32,59.84798612,,,,,space,0.317,0,7,7,24,1,25,training,zh2x,e,zh2x_e,zh2x_5_exe.wav,,exe.jpg,,,,,,,,,,,,,,,,,,,,,,,,,,,,,,,,,
5770de783ac68100019d77af,2023-06-16_19h15.51.989,phx_ver10,2022.2.5,Win32,59.84798612,,,,,space,0.3055,0,8,8,5,1,6,training,zh2x,a,zh2x_a,zh2x_3_azha.wav,,azha.jpg,,,,,,,,,,,,,,,,,,,,,,,,,,,,,,,,,
5770de783ac68100019d77af,2023-06-16_19h15.51.989,phx_ver10,2022.2.5,Win32,59.84798612,,,,,space,0.7225,0,9,9,41,1,42,training,zh2x,i,zh2x_i,zh2x_6_ixi.wav,,ixi.jpg,,,,,,,,,,,,,,,,,,,,,,,,,,,,,,,,,
5770de783ac68100019d77af,2023-06-16_19h15.51.989,phx_ver10,2022.2.5,Win32,59.84798612,,,,,space,0.4495,0,10,10,38,1,39,training,zh2x,i,zh2x_i,zh2x_3_izhi.wav,,izhi.jpg,,,,,,,,,,,,,,,,,,,,,,,,,,,,,,,,,
5770de783ac68100019d77af,2023-06-16_19h15.51.989,phx_ver10,2022.2.5,Win32,59.84798612,,,,,space,0.2251,0,11,11,28,1,29,training,zh2x,e,zh2x_e,zh2x_7_exe.wav,,exe.jpg,,,,,,,,,,,,,,,,,,,,,,,,,,,,,,,,,
5770de783ac68100019d77af,2023-06-16_19h15.51.989,phx_ver10,2022.2.5,Win32,59.84798612,,,,,,,,,,,,,attn_test,,,,zh2x_1_ezhe.wav,zh2x_1_izhi.wav,ezhe.jpg,LEFT,,f,0.0336,space,0.6836,0,0,0,0,1,,,,,,,,,,,,,,,,,,,,,,
5770de783ac68100019d77af,2023-06-16_19h15.51.989,phx_ver10,2022.2.5,Win32,59.84798612,,,,,space,0.3678,0,12,12,42,1,43,training,zh2x,i,zh2x_i,zh2x_6_ixi.wav,,ixi.jpg,,,,,,,,,,,,,,,,,,,,,,,,,,,,,,,,,
5770de783ac68100019d77af,2023-06-16_19h15.51.989,phx_ver10,2022.2.5,Win32,59.84798612,,,,,space,0.387,0,13,13,3,1,4,training,zh2x,a,zh2x_a,zh2x_2_azha.wav,,azha.jpg,,,,,,,,,,,,,,,,,,,,,,,,,,,,,,,,,
5770de783ac68100019d77af,2023-06-16_19h15.51.989,phx_ver10,2022.2.5,Win32,59.84798612,,,,,space,0.4161,0,14,14,13,1,14,training,zh2x,a,zh2x_a,zh2x_7_axa.wav,,axa.jpg,,,,,,,,,,,,,,,,,,,,,,,,,,,,,,,,,
5770de783ac68100019d77af,2023-06-16_19h15.51.989,phx_ver10,2022.2.5,Win32,59.84798612,,,,,space,0.0427,0,15,15,39,1,40,training,zh2x,i,zh2x_i,zh2x_4_izhi.wav,,izhi.jpg,,,,,,,,,,,,,,,,,,,,,,,,,,,,,,,,,
5770de783ac68100019d77af,2023-06-16_19h15.51.989,phx_ver10,2022.2.5,Win32,59.84798612,,,,,space,0.0616,0,16,16,31,1,32,training,zh2x,e,zh2x_e,zh2x_8_exe.wav,,exe.jpg,,,,,,,,,,,,,,,,,,,,,,,,,,,,,,,,,
5770de783ac68100019d77af,2023-06-16_19h15.51.989,phx_ver10,2022.2.5,Win32,59.84798612,,,,,space,0.3002,0,17,17,26,1,27,training,zh2x,e,zh2x_e,zh2x_6_exe.wav,,exe.jpg,,,,,,,,,,,,,,,,,,,,,,,,,,,,,,,,,
5770de783ac68100019d77af,2023-06-16_19h15.51.989,phx_ver10,2022.2.5,Win32,59.84798612,,,,,,,,,,,,,attn_test,,,,zh2x_8_exe.wav,zh2x_8_ixi.wav,exe.jpg,LEFT,,f,0.4339,space,1.2011,0,0,0,0,1,,,,,,,,,,,,,,,,,,,,,,
5770de783ac68100019d77af,2023-06-16_19h15.51.989,phx_ver10,2022.2.5,Win32,59.84798612,,,,,space,0.4447,0,18,18,18,1,19,training,zh2x,e,zh2x_e,zh2x_2_ezhe.wav,,ezhe.jpg,,,,,,,,,,,,,,,,,,,,,,,,,,,,,,,,,
5770de783ac68100019d77af,2023-06-16_19h15.51.989,phx_ver10,2022.2.5,Win32,59.84798612,,,,,space,0.3362,0,19,19,7,1,8,training,zh2x,a,zh2x_a,zh2x_4_azha.wav,,azha.jpg,,,,,,,,,,,,,,,,,,,,,,,,,,,,,,,,,
5770de783ac68100019d77af,2023-06-16_19h15.51.989,phx_ver10,2022.2.5,Win32,59.84798612,,,,,space,0.7751,0,20,20,25,1,26,training,zh2x,e,zh2x_e,zh2x_6_exe.wav,,exe.jpg,,,,,,,,,,,,,,,,,,,,,,,,,,,,,,,,,
5770de783ac68100019d77af,2023-06-16_19h15.51.989,phx_ver10,2022.2.5,Win32,59.84798612,,,,,space,0.1532,0,21,21,8,1,9,training,zh2x,a,zh2x_a,zh2x_5_axa.wav,,axa.jpg,,,,,,,,,,,,,,,,,,,,,,,,,,,,,,,,,
5770de783ac68100019d77af,2023-06-16_19h15.51.989,phx_ver10,2022.2.5,Win32,59.84798612,,,,,space,0.2334,0,22,22,11,1,12,training,zh2x,a,zh2x_a,zh2x_7_axa.wav,,axa.jpg,,,,,,,,,,,,,,,,,,,,,,,,,,,,,,,,,
5770de783ac68100019d77af,2023-06-16_19h15.51.989,phx_ver10,2022.2.5,Win32,59.84798612,,,,,space,0.1842,0,23,23,33,1,34,training,zh2x,i,zh2x_i,zh2x_2_izhi.wav,,izhi.jpg,,,,,,,,,,,,,,,,,,,,,,,,,,,,,,,,,
5770de783ac68100019d77af,2023-06-16_19h15.51.989,phx_ver10,2022.2.5,Win32,59.84798612,,,,,,,,,,,,,attn_test,,,,zh2x_8_ixi.wav,zh2x_8_axa.wav,axa.jpg,RIGHT,,j,1.2347,space,1.6671,0,0,0,0,1,,,,,,,,,,,,,,,,,,,,,,
5770de783ac68100019d77af,2023-06-16_19h15.51.989,phx_ver10,2022.2.5,Win32,59.84798612,,,,,space,0.3709,0,24,24,46,1,47,training,zh2x,i,zh2x_i,zh2x_7_ixi.wav,,ixi.jpg,,,,,,,,,,,,,,,,,,,,,,,,,,,,,,,,,
5770de783ac68100019d77af,2023-06-16_19h15.51.989,phx_ver10,2022.2.5,Win32,59.84798612,,,,,space,0.2672,0,25,25,10,1,11,training,zh2x,a,zh2x_a,zh2x_6_axa.wav,,axa.jpg,,,,,,,,,,,,,,,,,,,,,,,,,,,,,,,,,
5770de783ac68100019d77af,2023-06-16_19h15.51.989,phx_ver10,2022.2.5,Win32,59.84798612,,,,,space,0.0248,0,26,26,12,1,13,training,zh2x,a,zh2x_a,zh2x_7_axa.wav,,axa.jpg,,,,,,,,,,,,,,,,,,,,,,,,,,,,,,,,,
5770de783ac68100019d77af,2023-06-16_19h15.51.989,phx_ver10,2022.2.5,Win32,59.84798612,,,,,space,0.2765,0,27,27,6,1,7,training,zh2x,a,zh2x_a,zh2x_3_azha.wav,,azha.jpg,,,,,,,,,,,,,,,,,,,,,,,,,,,,,,,,,
5770de783ac68100019d77af,2023-06-16_19h15.51.989,phx_ver10,2022.2.5,Win32,59.84798612,,,,,space,0.2164,0,28,28,14,1,15,training,zh2x,a,zh2x_a,zh2x_7_axa.wav,,axa.jpg,,,,,,,,,,,,,,,,,,,,,,,,,,,,,,,,,
5770de783ac68100019d77af,2023-06-16_19h15.51.989,phx_ver10,2022.2.5,Win32,59.84798612,,,,,space,0.0902,0,29,29,17,1,18,training,zh2x,e,zh2x_e,zh2x_2_ezhe.wav,,ezhe.jpg,,,,,,,,,,,,,,,,,,,,,,,,,,,,,,,,,
5770de783ac68100019d77af,2023-06-16_19h15.51.989,phx_ver10,2022.2.5,Win32,59.84798612,,,,,,,,,,,,,attn_test,,,,zh2x_1_ezhe.wav,zh2x_8_axa.wav,ezhe.jpg,LEFT,,f,0.3328,space,0.9827,0,0,0,0,1,,,,,,,,,,,,,,,,,,,,,,
5770de783ac68100019d77af,2023-06-16_19h15.51.989,phx_ver10,2022.2.5,Win32,59.84798612,,,,,space,0.3376,0,30,30,9,1,10,training,zh2x,a,zh2x_a,zh2x_6_axa.wav,,axa.jpg,,,,,,,,,,,,,,,,,,,,,,,,,,,,,,,,,
5770de783ac68100019d77af,2023-06-16_19h15.51.989,phx_ver10,2022.2.5,Win32,59.84798612,,,,,space,2.9206,0,31,31,47,1,48,training,zh2x,i,zh2x_i,zh2x_8_ixi.wav,,ixi.jpg,,,,,,,,,,,,,,,,,,,,,,,,,,,,,,,,,
5770de783ac68100019d77af,2023-06-16_19h15.51.989,phx_ver10,2022.2.5,Win32,59.84798612,,,,,space,0.3092,0,32,32,1,1,2,training,zh2x,a,zh2x_a,zh2x_2_azha.wav,,azha.jpg,,,,,,,,,,,,,,,,,,,,,,,,,,,,,,,,,
5770de783ac68100019d77af,2023-06-16_19h15.51.989,phx_ver10,2022.2.5,Win32,59.84798612,,,,,space,0.272,0,33,33,2,1,3,training,zh2x,a,zh2x_a,zh2x_2_azha.wav,,azha.jpg,,,,,,,,,,,,,,,,,,,,,,,,,,,,,,,,,
5770de783ac68100019d77af,2023-06-16_19h15.51.989,phx_ver10,2022.2.5,Win32,59.84798612,,,,,space,0.2824,0,34,34,43,1,44,training,zh2x,i,zh2x_i,zh2x_7_ixi.wav,,ixi.jpg,,,,,,,,,,,,,,,,,,,,,,,,,,,,,,,,,
5770de783ac68100019d77af,2023-06-16_19h15.51.989,phx_ver10,2022.2.5,Win32,59.84798612,,,,,space,0.1842,0,35,35,20,1,21,training,zh2x,e,zh2x_e,zh2x_2_ezhe.wav,,ezhe.jpg,,,,,,,,,,,,,,,,,,,,,,,,,,,,,,,,,
5770de783ac68100019d77af,2023-06-16_19h15.51.989,phx_ver10,2022.2.5,Win32,59.84798612,,,,,,,,,,,,,attn_test,,,,zh2x_8_ixi.wav,zh2x_1_azha.wav,azha.jpg,RIGHT,,j,0.0836,space,0.5668,0,0,0,0,1,,,,,,,,,,,,,,,,,,,,,,
5770de783ac68100019d77af,2023-06-16_19h15.51.989,phx_ver10,2022.2.5,Win32,59.84798612,,,,,space,0.3507,0,36,36,36,1,37,training,zh2x,i,zh2x_i,zh2x_2_izhi.wav,,izhi.jpg,,,,,,,,,,,,,,,,,,,,,,,,,,,,,,,,,
5770de783ac68100019d77af,2023-06-16_19h15.51.989,phx_ver10,2022.2.5,Win32,59.84798612,,,,,space,0.1389,0,37,37,19,1,20,training,zh2x,e,zh2x_e,zh2x_2_ezhe.wav,,ezhe.jpg,,,,,,,,,,,,,,,,,,,,,,,,,,,,,,,,,
5770de783ac68100019d77af,2023-06-16_19h15.51.989,phx_ver10,2022.2.5,Win32,59.84798612,,,,,space,0.077,0,38,38,35,1,36,training,zh2x,i,zh2x_i,zh2x_2_izhi.wav,,izhi.jpg,,,,,,,,,,,,,,,,,,,,,,,,,,,,,,,,,
5770de783ac68100019d77af,2023-06-16_19h15.51.989,phx_ver10,2022.2.5,Win32,59.84798612,,,,,space,0.1003,0,39,39,37,1,38,training,zh2x,i,zh2x_i,zh2x_3_izhi.wav,,izhi.jpg,,,,,,,,,,,,,,,,,,,,,,,,,,,,,,,,,
5770de783ac68100019d77af,2023-06-16_19h15.51.989,phx_ver10,2022.2.5,Win32,59.84798612,,,,,space,0.1503,0,40,40,15,1,16,training,zh2x,a,zh2x_a,zh2x_8_axa.wav,,axa.jpg,,,,,,,,,,,,,,,,,,,,,,,,,,,,,,,,,
5770de783ac68100019d77af,2023-06-16_19h15.51.989,phx_ver10,2022.2.5,Win32,59.84798612,,,,,space,0.0503,0,41,41,40,1,41,training,zh2x,i,zh2x_i,zh2x_5_ixi.wav,,ixi.jpg,,,,,,,,,,,,,,,,,,,,,,,,,,,,,,,,,
5770de783ac68100019d77af,2023-06-16_19h15.51.989,phx_ver10,2022.2.5,Win32,59.84798612,,,,,,,,,,,,,attn_test,,,,zh2x_8_axa.wav,zh2x_1_izhi.wav,izhi.jpg,RIGHT,,j,0.0174,space,0.408,0,0,0,0,1,,,,,,,,,,,,,,,,,,,,,,
5770de783ac68100019d77af,2023-06-16_19h15.51.989,phx_ver10,2022.2.5,Win32,59.84798612,,,,,space,0.4167,0,42,42,30,1,31,training,zh2x,e,zh2x_e,zh2x_7_exe.wav,,exe.jpg,,,,,,,,,,,,,,,,,,,,,,,,,,,,,,,,,
5770de783ac68100019d77af,2023-06-16_19h15.51.989,phx_ver10,2022.2.5,Win32,59.84798612,,,,,space,0.2746,0,43,43,16,1,17,training,zh2x,e,zh2x_e,zh2x_1_ezhe.wav,,ezhe.jpg,,,,,,,,,,,,,,,,,,,,,,,,,,,,,,,,,
5770de783ac68100019d77af,2023-06-16_19h15.51.989,phx_ver10,2022.2.5,Win32,59.84798612,,,,,space,0.0844,0,44,44,44,1,45,training,zh2x,i,zh2x_i,zh2x_7_ixi.wav,,ixi.jpg,,,,,,,,,,,,,,,,,,,,,,,,,,,,,,,,,
5770de783ac68100019d77af,2023-06-16_19h15.51.989,phx_ver10,2022.2.5,Win32,59.84798612,,,,,space,0.057,0,45,45,23,1,24,training,zh2x,e,zh2x_e,zh2x_4_ezhe.wav,,ezhe.jpg,,,,,,,,,,,,,,,,,,,,,,,,,,,,,,,,,
5770de783ac68100019d77af,2023-06-16_19h15.51.989,phx_ver10,2022.2.5,Win32,59.84798612,,,,,space,0.1085,0,46,46,29,1,30,training,zh2x,e,zh2x_e,zh2x_7_exe.wav,,exe.jpg,,,,,,,,,,,,,,,,,,,,,,,,,,,,,,,,,
5770de783ac68100019d77af,2023-06-16_19h15.51.989,phx_ver10,2022.2.5,Win32,59.84798612,,,,,space,0.2025,0,47,47,32,1,33,training,zh2x,i,zh2x_i,zh2x_1_izhi.wav,,izhi.jpg,,,,,,,,,,,,,,,,,,,,,,,,,,,,,,,,,
5770de783ac68100019d77af,2023-06-16_19h15.51.989,phx_ver10,2022.2.5,Win32,59.84798612,,,,,,,,,,,,,attn_test,,,,zh2x_1_izhi.wav,zh2x_1_ezhe.wav,ezhe.jpg,RIGHT,,j,0.1499,space,0.7071,,,,,,,,,,,,,,,,,,,,,,,,,,,
5770de783ac68100019d77af,2023-06-16_19h15.51.989,phx_ver10,2022.2.5,Win32,59.84798612,,,,,,,,,,,,,,,,,,,,,,,,,,,,,,,space,0.3606,,,,,,,,,,,,,,,,,,,,
5770de783ac68100019d77af,2023-06-16_19h15.51.989,phx_ver10,2022.2.5,Win32,59.84798612,,,,,,,,,,,,,,,,,,,,,,,,,,,,,,,,,space,4.5531,,,,,,,,,,,,,,,,,,
5770de783ac68100019d77af,2023-06-16_19h15.51.989,phx_ver10,2022.2.5,Win32,59.84798612,,,,,,,,,,,,4,testing_pre,,,,eihei.wav,eihei.wav,,TRUE,,,,,,,,,,,,,,,f,0.0895,space,0.6235,0,0,0,3,1,,,,,,,,,
5770de783ac68100019d77af,2023-06-16_19h15.51.989,phx_ver10,2022.2.5,Win32,59.84798612,,,,,,,,,,,,1,testing_pre,,,,ifi.wav,ifi.wav,,TRUE,,,,,,,,,,,,,,,f,0.0267,space,0.4399,0,1,1,0,1,,,,,,,,,
5770de783ac68100019d77af,2023-06-16_19h15.51.989,phx_ver10,2022.2.5,Win32,59.84798612,,,,,,,,,,,,3,testing_pre,,,,afa.wav,aha.wav,,FALSE,,,,,,,,,,,,,,,f,0.2327,space,0.5028,0,2,2,2,1,,,,,,,,,
5770de783ac68100019d77af,2023-06-16_19h15.51.989,phx_ver10,2022.2.5,Win32,59.84798612,,,,,,,,,,,,5,testing_pre,,,,ihi.wav,ifi.wav,,FALSE,,,,,,,,,,,,,,,f,0.0345,space,0.3535,0,3,3,4,1,,,,,,,,,
5770de783ac68100019d77af,2023-06-16_19h15.51.989,phx_ver10,2022.2.5,Win32,59.84798612,,,,,,,,,,,,2,testing_pre,,,,auhau.wav,aufau.wav,,FALSE,,,,,,,,,,,,,,,j,0.4106,space,0.7214,0,4,4,1,1,,,,,,,,,
5770de783ac68100019d77af,2023-06-16_19h15.51.989,phx_ver10,2022.2.5,Win32,59.84798612,,,,,,,,,,,,,,,,,,,,,,,,,,,,,,,,,,,,,,,,,,,,space,0.4882,,,,,,,
5770de783ac68100019d77af,2023-06-16_19h15.51.989,phx_ver10,2022.2.5,Win32,59.84798612,,,,,,,,,,,,122,testing_3,sh2j,a,sh2j_a,sh2j_8_aja.wav,sh2j_8_aja.wav,,TRUE,FALSE,,,,,,,,,,,,,,f,0.369,space,0.767,,,,,,,,0,0,0,121,1,,
5770de783ac68100019d77af,2023-06-16_19h15.51.989,phx_ver10,2022.2.5,Win32,59.84798612,,,,,,,,,,,,137,testing_3,sh2j,ei,sh2j_ei,sh2j_1_eishei.wav,sh2j_1_eishei.wav,,TRUE,FALSE,,,,,,,,,,,,,,f,0.1437,space,0.4436,,,,,,,,0,1,1,136,1,,
5770de783ac68100019d77af,2023-06-16_19h15.51.989,phx_ver10,2022.2.5,Win32,59.84798612,,,,,,,,,,,,19,testing_2,zh2x,au,zh2x_au,zh2x_1_auzhau.wav,zh2x_8_auxau.wav,,FALSE,FALSE,,,,,,,,,,,,,,j,0.2344,space,0.5763,,,,,,,,0,2,2,18,1,,
5770de783ac68100019d77af,2023-06-16_19h15.51.989,phx_ver10,2022.2.5,Win32,59.84798612,,,,,,,,,,,,16,testing_2,zh2x,ai,zh2x_ai,zh2x_8_aixai.wav,zh2x_1_aizhai.wav,,FALSE,FALSE,,,,,,,,,,,,,,j,0.2401,space,0.5509,,,,,,,,0,3,3,15,1,,
5770de783ac68100019d77af,2023-06-16_19h15.51.989,phx_ver10,2022.2.5,Win32,59.84798612,,,,,,,,,,,,8,testing_1,zh2x,e,zh2x_e,zh2x_8_exe.wav,zh2x_1_ezhe.wav,,FALSE,TRUE,,,,,,,,,,,,,,f,0.2685,space,0.5917,,,,,,,,0,4,4,7,1,,
5770de783ac68100019d77af,2023-06-16_19h15.51.989,phx_ver10,2022.2.5,Win32,59.84798612,,,,,,,,,,,,34,testing_3,zh2sh,au,zh2sh_au,zh2sh_8_aushau.wav,zh2sh_8_aushau.wav,,TRUE,FALSE,,,,,,,,,,,,,,f,0.2441,space,0.4671,,,,,,,,0,5,5,33,1,,
5770de783ac68100019d77af,2023-06-16_19h15.51.989,phx_ver10,2022.2.5,Win32,59.84798612,,,,,,,,,,,,87,testing_3,j2x,e,j2x_e,j2x_1_eje.wav,j2x_8_exe.wav,,FALSE,FALSE,,,,,,,,,,,,,,j,0.0241,space,0.3329,,,,,,,,0,6,6,86,1,,
5770de783ac68100019d77af,2023-06-16_19h15.51.989,phx_ver10,2022.2.5,Win32,59.84798612,,,,,,,,,,,,3,testing_1,zh2x,a,zh2x_a,zh2x_1_azha.wav,zh2x_8_axa.wav,,FALSE,TRUE,,,,,,,,,,,,,,j,0.3342,space,0.9419,,,,,,,,0,7,7,2,1,,
5770de783ac68100019d77af,2023-06-16_19h15.51.989,phx_ver10,2022.2.5,Win32,59.84798612,,,,,,,,,,,,56,testing_3,zh2j,ai,zh2j_ai,zh2j_8_aijai.wav,zh2j_1_aizhai.wav,,FALSE,FALSE,,,,,,,,,,,,,,f,0.2433,space,0.4763,,,,,,,,0,8,8,55,1,,
5770de783ac68100019d77af,2023-06-16_19h15.51.989,phx_ver10,2022.2.5,Win32,59.84798612,,,,,,,,,,,,92,testing_3,j2x,ei,j2x_ei,j2x_8_eixei.wav,j2x_1_eijei.wav,,FALSE,FALSE,,,,,,,,,,,,,,f,0.1504,space,0.4197,,,,,,,,0,9,9,91,1,,
5770de783ac68100019d77af,2023-06-16_19h15.51.989,phx_ver10,2022.2.5,Win32,59.84798612,,,,,,,,,,,,108,testing_3,sh2x,au,sh2x_au,sh2x_8_auxau.wav,sh2x_1_aushau.wav,,FALSE,FALSE,,,,,,,,,,,,,,j,1.0162,space,1.3455,,,,,,,,0,10,10,107,1,,
5770de783ac68100019d77af,2023-06-16_19h15.51.989,phx_ver10,2022.2.5,Win32,59.84798612,,,,,,,,,,,,120,testing_3,sh2x,i,sh2x_i,sh2x_8_ixi.wav,sh2x_1_ishi.wav,,FALSE,FALSE,,,,,,,,,,,,,,f,0.0829,space,0.4165,,,,,,,,0,11,11,119,1,,
5770de783ac68100019d77af,2023-06-16_19h15.51.989,phx_ver10,2022.2.5,Win32,59.84798612,,,,,,,,,,,,116,testing_3,sh2x,ei,sh2x_ei,sh2x_8_eixei.wav,sh2x_1_eishei.wav,,FALSE,FALSE,,,,,,,,,,,,,,f,0.2017,space,0.3747,,,,,,,,0,12,12,115,1,,
5770de783ac68100019d77af,2023-06-16_19h15.51.989,phx_ver10,2022.2.5,Win32,59.84798612,,,,,,,,,,,,60,testing_3,zh2j,au,zh2j_au,zh2j_8_aujau.wav,zh2j_1_auzhau.wav,,FALSE,FALSE,,,,,,,,,,,,,,f,0.1623,space,0.4124,,,,,,,,0,13,13,59,1,,
5770de783ac68100019d77af,2023-06-16_19h15.51.989,phx_ver10,2022.2.5,Win32,59.84798612,,,,,,,,,,,,134,testing_3,sh2j,e,sh2j_e,sh2j_8_eje.wav,sh2j_8_eje.wav,,TRUE,FALSE,,,,,,,,,,,,,,f,0.1273,space,0.3394,,,,,,,,0,14,14,133,1,,
5770de783ac68100019d77af,2023-06-16_19h15.51.989,phx_ver10,2022.2.5,Win32,59.84798612,,,,,,,,,,,,11,testing_1,zh2x,i,zh2x_i,zh2x_1_izhi.wav,zh2x_8_ixi.wav,,FALSE,TRUE,,,,,,,,,,,,,,j,0.0516,space,0.2195,,,,,,,,0,15,15,10,1,,
5770de783ac68100019d77af,2023-06-16_19h15.51.989,phx_ver10,2022.2.5,Win32,59.84798612,,,,,,,,,,,,14,testing_2,zh2x,ai,zh2x_ai,zh2x_8_aixai.wav,zh2x_8_aixai.wav,,TRUE,FALSE,,,,,,,,,,,,,,f,0.0615,space,0.3512,,,,,,,,0,16,16,13,1,,
5770de783ac68100019d77af,2023-06-16_19h15.51.989,phx_ver10,2022.2.5,Win32,59.84798612,,,,,,,,,,,,31,testing_3,zh2sh,ai,zh2sh_ai,zh2sh_1_aizhai.wav,zh2sh_8_aishai.wav,,FALSE,FALSE,,,,,,,,,,,,,,j,0.1199,space,0.41,,,,,,,,0,17,17,30,1,,
5770de783ac68100019d77af,2023-06-16_19h15.51.989,phx_ver10,2022.2.5,Win32,59.84798612,,,,,,,,,,,,71,testing_3,zh2j,i,zh2j_i,zh2j_1_izhi.wav,zh2j_8_iji.wav,,FALSE,FALSE,,,,,,,,,,,,,,f,0.0518,space,0.2429,,,,,,,,0,18,18,70,1,,
5770de783ac68100019d77af,2023-06-16_19h15.51.989,phx_ver10,2022.2.5,Win32,59.84798612,,,,,,,,,,,,6,testing_1,zh2x,e,zh2x_e,zh2x_8_exe.wav,zh2x_8_exe_copy.wav,,TRUE,TRUE,,,,,,,,,,,,,,j,0.3792,space,0.5452,,,,,,,,0,19,19,5,1,,
5770de783ac68100019d77af,2023-06-16_19h15.51.989,phx_ver10,2022.2.5,Win32,59.84798612,,,,,,,,,,,,51,testing_3,zh2j,a,zh2j_a,zh2j_1_azha.wav,zh2j_8_aja.wav,,FALSE,FALSE,,,,,,,,,,,,,,f,0.0874,space,0.6731,,,,,,,,0,20,20,50,1,,
5770de783ac68100019d77af,2023-06-16_19h15.51.989,phx_ver10,2022.2.5,Win32,59.84798612,,,,,,,,,,,,52,testing_3,zh2j,a,zh2j_a,zh2j_8_aja.wav,zh2j_1_azha.wav,,FALSE,FALSE,,,,,,,,,,,,,,f,0.3861,space,0.519,,,,,,,,0,21,21,51,1,,
5770de783ac68100019d77af,2023-06-16_19h15.51.989,phx_ver10,2022.2.5,Win32,59.84798612,,,,,,,,,,,,48,testing_3,zh2sh,i,zh2sh_i,zh2sh_8_ishi.wav,zh2sh_1_izhi.wav,,FALSE,FALSE,,,,,,,,,,,,,,f,0.239,space,0.3841,,,,,,,,0,22,22,47,1,,
5770de783ac68100019d77af,2023-06-16_19h15.51.989,phx_ver10,2022.2.5,Win32,59.84798612,,,,,,,,,,,,93,testing_3,j2x,i,j2x_i,j2x_1_iji.wav,j2x_1_iji.wav,,TRUE,FALSE,,,,,,,,,,,,,,f,0.4057,space,0.5506,,,,,,,,0,23,23,92,1,,
5770de783ac68100019d77af,2023-06-16_19h15.51.989,phx_ver10,2022.2.5,Win32,59.84798612,,,,,,,,,,,,109,testing_3,sh2x,e,sh2x_e,sh2x_1_eshe.wav,sh2x_1_eshe.wav,,TRUE,FALSE,,,,,,,,,,,,,,f,0.1218,space,0.2949,,,,,,,,0,24,24,108,1,,
5770de783ac68100019d77af,2023-06-16_19h15.51.989,phx_ver10,2022.2.5,Win32,59.84798612,,,,,,,,,,,,26,testing_3,zh2sh,a,zh2sh_a,zh2sh_8_asha.wav,zh2sh_8_asha.wav,,TRUE,FALSE,,,,,,,,,,,,,,f,0.0521,space,0.3392,,,,,,,,0,25,25,25,1,,
5770de783ac68100019d77af,2023-06-16_19h15.51.989,phx_ver10,2022.2.5,Win32,59.84798612,,,,,,,,,,,,83,testing_3,j2x,au,j2x_au,j2x_1_aujau.wav,j2x_8_auxau.wav,,FALSE,FALSE,,,,,,,,,,,,,,j,0.1357,space,0.3505,,,,,,,,0,26,26,82,1,,
5770de783ac68100019d77af,2023-06-16_19h15.51.989,phx_ver10,2022.2.5,Win32,59.84798612,,,,,,,,,,,,30,testing_3,zh2sh,ai,zh2sh_ai,zh2sh_8_aishai.wav,zh2sh_8_aishai.wav,,TRUE,FALSE,,,,,,,,,,,,,,f,0.0901,space,0.3242,,,,,,,,0,27,27,29,1,,
5770de783ac68100019d77af,2023-06-16_19h15.51.989,phx_ver10,2022.2.5,Win32,59.84798612,,,,,,,,,,,,61,testing_3,zh2j,e,zh2j_e,zh2j_1_ezhe.wav,zh2j_1_ezhe.wav,,TRUE,FALSE,,,,,,,,,,,,,,f,0.0122,space,0.237,,,,,,,,0,28,28,60,1,,
5770de783ac68100019d77af,2023-06-16_19h15.51.989,phx_ver10,2022.2.5,Win32,59.84798612,,,,,,,,,,,,10,testing_1,zh2x,i,zh2x_i,zh2x_8_ixi.wav,zh2x_8_ixi_copy.wav,,TRUE,TRUE,,,,,,,,,,,,,,j,0.021,space,0.155,,,,,,,,0,29,29,9,1,,
5770de783ac68100019d77af,2023-06-16_19h15.51.989,phx_ver10,2022.2.5,Win32,59.84798612,,,,,,,,,,,,53,testing_3,zh2j,ai,zh2j_ai,zh2j_1_aizhai.wav,zh2j_1_aizhai.wav,,TRUE,FALSE,,,,,,,,,,,,,,f,0.241,space,0.3608,,,,,,,,0,30,30,52,1,,
5770de783ac68100019d77af,2023-06-16_19h15.51.989,phx_ver10,2022.2.5,Win32,59.84798612,,,,,,,,,,,,84,testing_3,j2x,au,j2x_au,j2x_8_auxau.wav,j2x_1_aujau.wav,,FALSE,FALSE,,,,,,,,,,,,,,j,0.2167,space,0.3288,,,,,,,,0,31,31,83,1,,
5770de783ac68100019d77af,2023-06-16_19h15.51.989,phx_ver10,2022.2.5,Win32,59.84798612,,,,,,,,,,,,139,testing_3,sh2j,ei,sh2j_ei,sh2j_1_eishei.wav,sh2j_8_eijei.wav,,FALSE,FALSE,,,,,,,,,,,,,,j,0.0833,space,0.3166,,,,,,,,0,32,32,138,1,,
5770de783ac68100019d77af,2023-06-16_19h15.51.989,phx_ver10,2022.2.5,Win32,59.84798612,,,,,,,,,,,,106,testing_3,sh2x,au,sh2x_au,sh2x_8_auxau.wav,sh2x_8_auxau.wav,,TRUE,FALSE,,,,,,,,,,,,,,f,0.1725,space,0.322,,,,,,,,0,33,33,105,1,,
5770de783ac68100019d77af,2023-06-16_19h15.51.989,phx_ver10,2022.2.5,Win32,59.84798612,,,,,,,,,,,,100,testing_3,sh2x,a,sh2x_a,sh2x_8_axa.wav,sh2x_1_asha.wav,,FALSE,FALSE,,,,,,,,,,,,,,f,0.1538,space,0.3504,,,,,,,,0,34,34,99,1,,
5770de783ac68100019d77af,2023-06-16_19h15.51.989,phx_ver10,2022.2.5,Win32,59.84798612,,,,,,,,,,,,88,testing_3,j2x,e,j2x_e,j2x_8_exe.wav,j2x_1_eje.wav,,FALSE,FALSE,,,,,,,,,,,,,,j,0.4169,space,0.5504,,,,,,,,0,35,35,87,1,,
5770de783ac68100019d77af,2023-06-16_19h15.51.989,phx_ver10,2022.2.5,Win32,59.84798612,,,,,,,,,,,,41,testing_3,zh2sh,ei,zh2sh_ei,zh2sh_1_eizhei.wav,zh2sh_1_eizhei.wav,,TRUE,FALSE,,,,,,,,,,,,,,f,0.167,space,0.317,,,,,,,,0,36,36,40,1,,
5770de783ac68100019d77af,2023-06-16_19h15.51.989,phx_ver10,2022.2.5,Win32,59.84798612,,,,,,,,,,,,85,testing_3,j2x,e,j2x_e,j2x_1_eje.wav,j2x_1_eje.wav,,TRUE,FALSE,,,,,,,,,,,,,,f,0.2165,space,0.3499,,,,,,,,0,37,37,84,1,,
5770de783ac68100019d77af,2023-06-16_19h15.51.989,phx_ver10,2022.2.5,Win32,59.84798612,,,,,,,,,,,,22,testing_2,zh2x,ei,zh2x_ei,zh2x_8_eixei.wav,zh2x_8_eixei.wav,,TRUE,FALSE,,,,,,,,,,,,,,f,0.0838,space,0.2337,,,,,,,,0,38,38,21,1,,
5770de783ac68100019d77af,2023-06-16_19h15.51.989,phx_ver10,2022.2.5,Win32,59.84798612,,,,,,,,,,,,112,testing_3,sh2x,e,sh2x_e,sh2x_8_exe.wav,sh2x_1_eshe.wav,,FALSE,FALSE,,,,,,,,,,,,,,j,0.3171,space,0.4338,,,,,,,,0,39,39,111,1,,
5770de783ac68100019d77af,2023-06-16_19h15.51.989,phx_ver10,2022.2.5,Win32,59.84798612,,,,,,,,,,,,55,testing_3,zh2j,ai,zh2j_ai,zh2j_1_aizhai.wav,zh2j_8_aijai.wav,,FALSE,FALSE,,,,,,,,,,,,,,f,0.0672,space,0.3838,,,,,,,,0,40,40,54,1,,
5770de783ac68100019d77af,2023-06-16_19h15.51.989,phx_ver10,2022.2.5,Win32,59.84798612,,,,,,,,,,,,133,testing_3,sh2j,e,sh2j_e,sh2j_1_eshe.wav,sh2j_1_eshe.wav,,TRUE,FALSE,,,,,,,,,,,,,,f,0.1397,space,0.2374,,,,,,,,0,41,41,132,1,,
5770de783ac68100019d77af,2023-06-16_19h15.51.989,phx_ver10,2022.2.5,Win32,59.84798612,,,,,,,,,,,,75,testing_3,j2x,a,j2x_a,j2x_1_aja.wav,j2x_8_axa.wav,,FALSE,FALSE,,,,,,,,,,,,,,j,0.2656,space,0.3654,,,,,,,,0,42,42,74,1,,
5770de783ac68100019d77af,2023-06-16_19h15.51.989,phx_ver10,2022.2.5,Win32,59.84798612,,,,,,,,,,,,78,testing_3,j2x,ai,j2x_ai,j2x_8_aixai.wav,j2x_8_aixai.wav,,TRUE,FALSE,,,,,,,,,,,,,,f,0.1004,space,0.2671,,,,,,,,0,43,43,77,1,,
5770de783ac68100019d77af,2023-06-16_19h15.51.989,phx_ver10,2022.2.5,Win32,59.84798612,,,,,,,,,,,,140,testing_3,sh2j,ei,sh2j_ei,sh2j_8_eijei.wav,sh2j_1_eishei.wav,,FALSE,FALSE,,,,,,,,,,,,,,j,0.0337,space,0.317,,,,,,,,0,44,44,139,1,,
5770de783ac68100019d77af,2023-06-16_19h15.51.989,phx_ver10,2022.2.5,Win32,59.84798612,,,,,,,,,,,,102,testing_3,sh2x,ai,sh2x_ai,sh2x_8_aixai.wav,sh2x_8_aixai.wav,,TRUE,FALSE,,,,,,,,,,,,,,f,0.1002,space,0.2503,,,,,,,,0,45,45,101,1,,
5770de783ac68100019d77af,2023-06-16_19h15.51.989,phx_ver10,2022.2.5,Win32,59.84798612,,,,,,,,,,,,125,testing_3,sh2j,ai,sh2j_ai,sh2j_1_aishai.wav,sh2j_1_aishai.wav,,TRUE,FALSE,,,,,,,,,,,,,,f,0.0505,space,0.2171,,,,,,,,0,46,46,124,1,,
5770de783ac68100019d77af,2023-06-16_19h15.51.989,phx_ver10,2022.2.5,Win32,59.84798612,,,,,,,,,,,,68,testing_3,zh2j,ei,zh2j_ei,zh2j_8_eijei.wav,zh2j_1_eizhei.wav,,FALSE,FALSE,,,,,,,,,,,,,,f,0.017,space,0.2003,,,,,,,,0,47,47,67,1,,
5770de783ac68100019d77af,2023-06-16_19h15.51.989,phx_ver10,2022.2.5,Win32,59.84798612,,,,,,,,,,,,27,testing_3,zh2sh,a,zh2sh_a,zh2sh_1_azha.wav,zh2sh_8_asha.wav,,FALSE,FALSE,,,,,,,,,,,,,,j,0.0337,space,0.2087,,,,,,,,0,48,48,26,1,,
5770de783ac68100019d77af,2023-06-16_19h15.51.989,phx_ver10,2022.2.5,Win32,59.84798612,,,,,,,,,,,,66,testing_3,zh2j,ei,zh2j_ei,zh2j_8_eijei.wav,zh2j_8_eijei.wav,,TRUE,FALSE,,,,,,,,,,,,,,f,0.2002,space,0.3223,,,,,,,,0,49,49,65,1,,
5770de783ac68100019d77af,2023-06-16_19h15.51.989,phx_ver10,2022.2.5,Win32,59.84798612,,,,,,,,,,,,12,testing_1,zh2x,i,zh2x_i,zh2x_8_ixi.wav,zh2x_1_izhi.wav,,FALSE,TRUE,,,,,,,,,,,,,,f,0.0049,space,0.1822,,,,,,,,0,50,50,11,1,,
5770de783ac68100019d77af,2023-06-16_19h15.51.989,phx_ver10,2022.2.5,Win32,59.84798612,,,,,,,,,,,,17,testing_2,zh2x,au,zh2x_au,zh2x_1_auzhau.wav,zh2x_1_auzhau.wav,,TRUE,FALSE,,,,,,,,,,,,,,f,0.1487,space,0.3279,,,,,,,,0,51,51,16,1,,
5770de783ac68100019d77af,2023-06-16_19h15.51.989,phx_ver10,2022.2.5,Win32,59.84798612,,,,,,,,,,,,39,testing_3,zh2sh,e,zh2sh_e,zh2sh_1_ezhe.wav,zh2sh_8_eshe.wav,,FALSE,FALSE,,,,,,,,,,,,,,j,0.0004,space,0.2419,,,,,,,,0,52,52,38,1,,
5770de783ac68100019d77af,2023-06-16_19h15.51.989,phx_ver10,2022.2.5,Win32,59.84798612,,,,,,,,,,,,67,testing_3,zh2j,ei,zh2j_ei,zh2j_1_eizhei.wav,zh2j_8_eijei.wav,,FALSE,FALSE,,,,,,,,,,,,,,f,0.0504,space,0.2003,,,,,,,,0,53,53,66,1,,
5770de783ac68100019d77af,2023-06-16_19h15.51.989,phx_ver10,2022.2.5,Win32,59.84798612,,,,,,,,,,,,82,testing_3,j2x,au,j2x_au,j2x_8_auxau.wav,j2x_8_auxau.wav,,TRUE,FALSE,,,,,,,,,,,,,,j,0.4499,space,0.567,,,,,,,,0,54,54,81,1,,
5770de783ac68100019d77af,2023-06-16_19h15.51.989,phx_ver10,2022.2.5,Win32,59.84798612,,,,,,,,,,,,144,testing_3,sh2j,i,sh2j_i,sh2j_8_iji.wav,sh2j_1_ishi.wav,,FALSE,FALSE,,,,,,,,,,,,,,,,space,0.3126,,,,,,,,0,55,55,143,1,,
5770de783ac68100019d77af,2023-06-16_19h15.51.989,phx_ver10,2022.2.5,Win32,59.84798612,,,,,,,,,,,,97,testing_3,sh2x,a,sh2x_a,sh2x_1_asha.wav,sh2x_1_asha.wav,,TRUE,FALSE,,,,,,,,,,,,,,f,0.0836,space,0.2836,,,,,,,,0,56,56,96,1,,
5770de783ac68100019d77af,2023-06-16_19h15.51.989,phx_ver10,2022.2.5,Win32,59.84798612,,,,,,,,,,,,118,testing_3,sh2x,i,sh2x_i,sh2x_8_ixi.wav,sh2x_8_ixi.wav,,TRUE,FALSE,,,,,,,,,,,,,,f,0.2169,space,0.3169,,,,,,,,0,57,57,117,1,,
5770de783ac68100019d77af,2023-06-16_19h15.51.989,phx_ver10,2022.2.5,Win32,59.84798612,,,,,,,,,,,,46,testing_3,zh2sh,i,zh2sh_i,zh2sh_8_ishi.wav,zh2sh_8_ishi.wav,,TRUE,FALSE,,,,,,,,,,,,,,f,0.0264,space,0.2044,,,,,,,,0,58,58,45,1,,
5770de783ac68100019d77af,2023-06-16_19h15.51.989,phx_ver10,2022.2.5,Win32,59.84798612,,,,,,,,,,,,29,testing_3,zh2sh,ai,zh2sh_ai,zh2sh_1_aizhai.wav,zh2sh_1_aizhai.wav,,TRUE,FALSE,,,,,,,,,,,,,,f,0.1504,space,0.267,,,,,,,,0,59,59,28,1,,
5770de783ac68100019d77af,2023-06-16_19h15.51.989,phx_ver10,2022.2.5,Win32,59.84798612,,,,,,,,,,,,20,testing_2,zh2x,au,zh2x_au,zh2x_8_auxau.wav,zh2x_1_auzhau.wav,,FALSE,FALSE,,,,,,,,,,,,,,j,0.1836,space,0.4004,,,,,,,,0,60,60,19,1,,
5770de783ac68100019d77af,2023-06-16_19h15.51.989,phx_ver10,2022.2.5,Win32,59.84798612,,,,,,,,,,,,123,testing_3,sh2j,a,sh2j_a,sh2j_1_asha.wav,sh2j_8_aja.wav,,FALSE,FALSE,,,,,,,,,,,,,,f,0.3049,space,0.5129,,,,,,,,0,61,61,122,1,,
5770de783ac68100019d77af,2023-06-16_19h15.51.989,phx_ver10,2022.2.5,Win32,59.84798612,,,,,,,,,,,,107,testing_3,sh2x,au,sh2x_au,sh2x_1_aushau.wav,sh2x_8_auxau.wav,,FALSE,FALSE,,,,,,,,,,,,,,j,0.0719,space,0.2335,,,,,,,,0,62,62,106,1,,
5770de783ac68100019d77af,2023-06-16_19h15.51.989,phx_ver10,2022.2.5,Win32,59.84798612,,,,,,,,,,,,95,testing_3,j2x,i,j2x_i,j2x_1_iji.wav,j2x_8_ixi.wav,,FALSE,FALSE,,,,,,,,,,,,,,j,0.1337,space,0.26,,,,,,,,0,63,63,94,1,,
5770de783ac68100019d77af,2023-06-16_19h15.51.989,phx_ver10,2022.2.5,Win32,59.84798612,,,,,,,,,,,,127,testing_3,sh2j,ai,sh2j_ai,sh2j_1_aishai.wav,sh2j_8_aijai.wav,,FALSE,FALSE,,,,,,,,,,,,,,j,0.1264,space,0.2503,,,,,,,,0,64,64,126,1,,
5770de783ac68100019d77af,2023-06-16_19h15.51.989,phx_ver10,2022.2.5,Win32,59.84798612,,,,,,,,,,,,90,testing_3,j2x,ei,j2x_ei,j2x_8_eixei.wav,j2x_8_eixei.wav,,TRUE,FALSE,,,,,,,,,,,,,,f,0.3255,space,0.567,,,,,,,,0,65,65,89,1,,
5770de783ac68100019d77af,2023-06-16_19h15.51.989,phx_ver10,2022.2.5,Win32,59.84798612,,,,,,,,,,,,99,testing_3,sh2x,a,sh2x_a,sh2x_1_asha.wav,sh2x_8_axa.wav,,FALSE,FALSE,,,,,,,,,,,,,,f,0.1671,space,0.3535,,,,,,,,0,66,66,98,1,,
5770de783ac68100019d77af,2023-06-16_19h15.51.989,phx_ver10,2022.2.5,Win32,59.84798612,,,,,,,,,,,,50,testing_3,zh2j,a,zh2j_a,zh2j_8_aja.wav,zh2j_8_aja.wav,,TRUE,FALSE,,,,,,,,,,,,,,f,0.1836,space,0.3836,,,,,,,,0,67,67,49,1,,
5770de783ac68100019d77af,2023-06-16_19h15.51.989,phx_ver10,2022.2.5,Win32,59.84798612,,,,,,,,,,,,15,testing_2,zh2x,ai,zh2x_ai,zh2x_1_aizhai.wav,zh2x_8_aixai.wav,,FALSE,FALSE,,,,,,,,,,,,,,j,0.1502,space,0.3384,,,,,,,,0,68,68,14,1,,
5770de783ac68100019d77af,2023-06-16_19h15.51.989,phx_ver10,2022.2.5,Win32,59.84798612,,,,,,,,,,,,21,testing_2,zh2x,ei,zh2x_ei,zh2x_1_eizhei.wav,zh2x_1_eizhei.wav,,TRUE,FALSE,,,,,,,,,,,,,,f,0.1149,space,0.3109,,,,,,,,0,69,69,20,1,,
5770de783ac68100019d77af,2023-06-16_19h15.51.989,phx_ver10,2022.2.5,Win32,59.84798612,,,,,,,,,,,,63,testing_3,zh2j,e,zh2j_e,zh2j_1_ezhe.wav,zh2j_8_eje.wav,,FALSE,FALSE,,,,,,,,,,,,,,f,0.1169,space,0.2751,,,,,,,,0,70,70,62,1,,
5770de783ac68100019d77af,2023-06-16_19h15.51.989,phx_ver10,2022.2.5,Win32,59.84798612,,,,,,,,,,,,119,testing_3,sh2x,i,sh2x_i,sh2x_1_ishi.wav,sh2x_8_ixi.wav,,FALSE,FALSE,,,,,,,,,,,,,,f,0.2336,space,0.4003,,,,,,,,0,71,71,118,1,,
5770de783ac68100019d77af,2023-06-16_19h15.51.989,phx_ver10,2022.2.5,Win32,59.84798612,,,,,,,,,,,,101,testing_3,sh2x,ai,sh2x_ai,sh2x_1_aishai.wav,sh2x_1_aishai.wav,,TRUE,FALSE,,,,,,,,,,,,,,f,0.0549,space,0.2004,,,,,,,,0,72,72,100,1,,
5770de783ac68100019d77af,2023-06-16_19h15.51.989,phx_ver10,2022.2.5,Win32,59.84798612,,,,,,,,,,,,110,testing_3,sh2x,e,sh2x_e,sh2x_8_exe.wav,sh2x_8_exe.wav,,TRUE,FALSE,,,,,,,,,,,,,,f,0.3004,space,0.3669,,,,,,,,0,73,73,109,1,,
5770de783ac68100019d77af,2023-06-16_19h15.51.989,phx_ver10,2022.2.5,Win32,59.84798612,,,,,,,,,,,,69,testing_3,zh2j,i,zh2j_i,zh2j_1_izhi.wav,zh2j_1_izhi.wav,,TRUE,FALSE,,,,,,,,,,,,,,f,0.0403,space,0.2502,,,,,,,,0,74,74,68,1,,
5770de783ac68100019d77af,2023-06-16_19h15.51.989,phx_ver10,2022.2.5,Win32,59.84798612,,,,,,,,,,,,121,testing_3,sh2j,a,sh2j_a,sh2j_1_asha.wav,sh2j_1_asha.wav,,TRUE,FALSE,,,,,,,,,,,,,,f,0.0018,space,0.1503,,,,,,,,0,75,75,120,1,,
5770de783ac68100019d77af,2023-06-16_19h15.51.989,phx_ver10,2022.2.5,Win32,59.84798612,,,,,,,,,,,,62,testing_3,zh2j,e,zh2j_e,zh2j_8_eje.wav,zh2j_8_eje.wav,,TRUE,FALSE,,,,,,,,,,,,,,f,0.0674,space,0.1785,,,,,,,,0,76,76,61,1,,
5770de783ac68100019d77af,2023-06-16_19h15.51.989,phx_ver10,2022.2.5,Win32,59.84798612,,,,,,,,,,,,64,testing_3,zh2j,e,zh2j_e,zh2j_8_eje.wav,zh2j_1_ezhe.wav,,FALSE,FALSE,,,,,,,,,,,,,,f,0.0504,space,0.1734,,,,,,,,0,77,77,63,1,,
5770de783ac68100019d77af,2023-06-16_19h15.51.989,phx_ver10,2022.2.5,Win32,59.84798612,,,,,,,,,,,,40,testing_3,zh2sh,e,zh2sh_e,zh2sh_8_eshe.wav,zh2sh_1_ezhe.wav,,FALSE,FALSE,,,,,,,,,,,,,,j,0.134,space,0.2419,,,,,,,,0,78,78,39,1,,
5770de783ac68100019d77af,2023-06-16_19h15.51.989,phx_ver10,2022.2.5,Win32,59.84798612,,,,,,,,,,,,44,testing_3,zh2sh,ei,zh2sh_ei,zh2sh_8_eishei.wav,zh2sh_1_eizhei.wav,,FALSE,FALSE,,,,,,,,,,,,,,j,0.1444,space,0.3004,,,,,,,,0,79,79,43,1,,
5770de783ac68100019d77af,2023-06-16_19h15.51.989,phx_ver10,2022.2.5,Win32,59.84798612,,,,,,,,,,,,65,testing_3,zh2j,ei,zh2j_ei,zh2j_1_eizhei.wav,zh2j_1_eizhei.wav,,TRUE,FALSE,,,,,,,,,,,,,,f,0.2693,space,0.3503,,,,,,,,0,80,80,64,1,,
5770de783ac68100019d77af,2023-06-16_19h15.51.989,phx_ver10,2022.2.5,Win32,59.84798612,,,,,,,,,,,,136,testing_3,sh2j,e,sh2j_e,sh2j_8_eje.wav,sh2j_1_eshe.wav,,FALSE,FALSE,,,,,,,,,,,,,,j,0.1558,space,0.3173,,,,,,,,0,81,81,135,1,,
5770de783ac68100019d77af,2023-06-16_19h15.51.989,phx_ver10,2022.2.5,Win32,59.84798612,,,,,,,,,,,,89,testing_3,j2x,ei,j2x_ei,j2x_1_eijei.wav,j2x_1_eijei.wav,,TRUE,FALSE,,,,,,,,,,,,,,f,0.0545,space,0.2671,,,,,,,,0,82,82,88,1,,
5770de783ac68100019d77af,2023-06-16_19h15.51.989,phx_ver10,2022.2.5,Win32,59.84798612,,,,,,,,,,,,91,testing_3,j2x,ei,j2x_ei,j2x_1_eijei.wav,j2x_8_eixei.wav,,FALSE,FALSE,,,,,,,,,,,,,,j,0.1026,space,0.2425,,,,,,,,0,83,83,90,1,,
5770de783ac68100019d77af,2023-06-16_19h15.51.989,phx_ver10,2022.2.5,Win32,59.84798612,,,,,,,,,,,,70,testing_3,zh2j,i,zh2j_i,zh2j_8_iji.wav,zh2j_8_iji.wav,,TRUE,FALSE,,,,,,,,,,,,,,f,0.0912,space,0.2667,,,,,,,,0,84,84,69,1,,
5770de783ac68100019d77af,2023-06-16_19h15.51.989,phx_ver10,2022.2.5,Win32,59.84798612,,,,,,,,,,,,131,testing_3,sh2j,au,sh2j_au,sh2j_1_aushau.wav,sh2j_8_aujau.wav,,FALSE,FALSE,,,,,,,,,,,,,,j,0.167,space,0.2927,,,,,,,,0,85,85,130,1,,
5770de783ac68100019d77af,2023-06-16_19h15.51.989,phx_ver10,2022.2.5,Win32,59.84798612,,,,,,,,,,,,33,testing_3,zh2sh,au,zh2sh_au,zh2sh_1_auzhau.wav,zh2sh_1_auzhau.wav,,TRUE,FALSE,,,,,,,,,,,,,,f,0.1338,space,0.2672,,,,,,,,0,86,86,32,1,,
5770de783ac68100019d77af,2023-06-16_19h15.51.989,phx_ver10,2022.2.5,Win32,59.84798612,,,,,,,,,,,,117,testing_3,sh2x,i,sh2x_i,sh2x_1_ishi.wav,sh2x_1_ishi.wav,,TRUE,FALSE,,,,,,,,,,,,,,f,0.0003,space,0.108,,,,,,,,0,87,87,116,1,,
5770de783ac68100019d77af,2023-06-16_19h15.51.989,phx_ver10,2022.2.5,Win32,59.84798612,,,,,,,,,,,,124,testing_3,sh2j,a,sh2j_a,sh2j_8_aja.wav,sh2j_1_asha.wav,,FALSE,FALSE,,,,,,,,,,,,,,j,0.0562,space,0.1838,,,,,,,,0,88,88,123,1,,
5770de783ac68100019d77af,2023-06-16_19h15.51.989,phx_ver10,2022.2.5,Win32,59.84798612,,,,,,,,,,,,143,testing_3,sh2j,i,sh2j_i,sh2j_1_ishi.wav,sh2j_8_iji.wav,,FALSE,FALSE,,,,,,,,,,,,,,j,0.1128,space,0.3337,,,,,,,,0,89,89,142,1,,
5770de783ac68100019d77af,2023-06-16_19h15.51.989,phx_ver10,2022.2.5,Win32,59.84798612,,,,,,,,,,,,128,testing_3,sh2j,ai,sh2j_ai,sh2j_8_aijai.wav,sh2j_1_aishai.wav,,FALSE,FALSE,,,,,,,,,,,,,,j,0.1902,space,0.2838,,,,,,,,0,90,90,127,1,,
5770de783ac68100019d77af,2023-06-16_19h15.51.989,phx_ver10,2022.2.5,Win32,59.84798612,,,,,,,,,,,,129,testing_3,sh2j,au,sh2j_au,sh2j_1_aushau.wav,sh2j_1_aushau.wav,,TRUE,FALSE,,,,,,,,,,,,,,f,0.0245,space,0.2286,,,,,,,,0,91,91,128,1,,
5770de783ac68100019d77af,2023-06-16_19h15.51.989,phx_ver10,2022.2.5,Win32,59.84798612,,,,,,,,,,,,132,testing_3,sh2j,au,sh2j_au,sh2j_8_aujau.wav,sh2j_1_aushau.wav,,FALSE,FALSE,,,,,,,,,,,,,,j,0.1586,space,0.2503,,,,,,,,0,92,92,131,1,,
5770de783ac68100019d77af,2023-06-16_19h15.51.989,phx_ver10,2022.2.5,Win32,59.84798612,,,,,,,,,,,,80,testing_3,j2x,ai,j2x_ai,j2x_8_aixai.wav,j2x_1_aijai.wav,,FALSE,FALSE,,,,,,,,,,,,,,j,0.151,space,0.3171,,,,,,,,0,93,93,79,1,,
5770de783ac68100019d77af,2023-06-16_19h15.51.989,phx_ver10,2022.2.5,Win32,59.84798612,,,,,,,,,,,,142,testing_3,sh2j,i,sh2j_i,sh2j_8_iji.wav,sh2j_8_iji.wav,,TRUE,FALSE,,,,,,,,,,,,,,f,0.1168,space,0.2712,,,,,,,,0,94,94,141,1,,
5770de783ac68100019d77af,2023-06-16_19h15.51.989,phx_ver10,2022.2.5,Win32,59.84798612,,,,,,,,,,,,115,testing_3,sh2x,ei,sh2x_ei,sh2x_1_eishei.wav,sh2x_8_eixei.wav,,FALSE,FALSE,,,,,,,,,,,,,,f,0.1671,space,0.3003,,,,,,,,0,95,95,114,1,,
5770de783ac68100019d77af,2023-06-16_19h15.51.989,phx_ver10,2022.2.5,Win32,59.84798612,,,,,,,,,,,,94,testing_3,j2x,i,j2x_i,j2x_8_ixi.wav,j2x_8_ixi.wav,,TRUE,FALSE,,,,,,,,,,,,,,f,0.2226,space,0.4169,,,,,,,,0,96,96,93,1,,
5770de783ac68100019d77af,2023-06-16_19h15.51.989,phx_ver10,2022.2.5,Win32,59.84798612,,,,,,,,,,,,49,testing_3,zh2j,a,zh2j_a,zh2j_1_azha.wav,zh2j_1_azha.wav,,TRUE,FALSE,,,,,,,,,,,,,,f,0.1505,space,0.2957,,,,,,,,0,97,97,48,1,,
5770de783ac68100019d77af,2023-06-16_19h15.51.989,phx_ver10,2022.2.5,Win32,59.84798612,,,,,,,,,,,,111,testing_3,sh2x,e,sh2x_e,sh2x_1_eshe.wav,sh2x_8_exe.wav,,FALSE,FALSE,,,,,,,,,,,,,,f,0.1339,space,0.3005,,,,,,,,0,98,98,110,1,,
5770de783ac68100019d77af,2023-06-16_19h15.51.989,phx_ver10,2022.2.5,Win32,59.84798612,,,,,,,,,,,,5,testing_1,zh2x,e,zh2x_e,zh2x_1_ezhe.wav,zh2x_1_ezhe_copy.wav,,TRUE,TRUE,,,,,,,,,,,,,,f,0.2194,space,0.3676,,,,,,,,0,99,99,4,1,,
5770de783ac68100019d77af,2023-06-16_19h15.51.989,phx_ver10,2022.2.5,Win32,59.84798612,,,,,,,,,,,,18,testing_2,zh2x,au,zh2x_au,zh2x_8_auxau.wav,zh2x_8_auxau.wav,,TRUE,FALSE,,,,,,,,,,,,,,f,0.0677,space,0.2173,,,,,,,,0,100,100,17,1,,
5770de783ac68100019d77af,2023-06-16_19h15.51.989,phx_ver10,2022.2.5,Win32,59.84798612,,,,,,,,,,,,47,testing_3,zh2sh,i,zh2sh_i,zh2sh_1_izhi.wav,zh2sh_8_ishi.wav,,FALSE,FALSE,,,,,,,,,,,,,,j,0.1246,space,0.2669,,,,,,,,0,101,101,46,1,,
5770de783ac68100019d77af,2023-06-16_19h15.51.989,phx_ver10,2022.2.5,Win32,59.84798612,,,,,,,,,,,,57,testing_3,zh2j,au,zh2j_au,zh2j_1_auzhau.wav,zh2j_1_auzhau.wav,,TRUE,FALSE,,,,,,,,,,,,,,f,0.2793,space,0.3836,,,,,,,,0,102,102,56,1,,
5770de783ac68100019d77af,2023-06-16_19h15.51.989,phx_ver10,2022.2.5,Win32,59.84798612,,,,,,,,,,,,105,testing_3,sh2x,au,sh2x_au,sh2x_1_aushau.wav,sh2x_1_aushau.wav,,TRUE,FALSE,,,,,,,,,,,,,,f,0.1573,space,0.267,,,,,,,,0,103,103,104,1,,
5770de783ac68100019d77af,2023-06-16_19h15.51.989,phx_ver10,2022.2.5,Win32,59.84798612,,,,,,,,,,,,141,testing_3,sh2j,i,sh2j_i,sh2j_1_ishi.wav,sh2j_1_ishi.wav,,TRUE,FALSE,,,,,,,,,,,,,,f,0.0191,space,0.1508,,,,,,,,0,104,104,140,1,,
5770de783ac68100019d77af,2023-06-16_19h15.51.989,phx_ver10,2022.2.5,Win32,59.84798612,,,,,,,,,,,,126,testing_3,sh2j,ai,sh2j_ai,sh2j_8_aijai.wav,sh2j_8_aijai.wav,,TRUE,FALSE,,,,,,,,,,,,,,f,0.0519,space,0.2322,,,,,,,,0,105,105,125,1,,
5770de783ac68100019d77af,2023-06-16_19h15.51.989,phx_ver10,2022.2.5,Win32,59.84798612,,,,,,,,,,,,32,testing_3,zh2sh,ai,zh2sh_ai,zh2sh_8_aishai.wav,zh2sh_1_aizhai.wav,,FALSE,FALSE,,,,,,,,,,,,,,j,0.132,space,0.3157,,,,,,,,0,106,106,31,1,,
5770de783ac68100019d77af,2023-06-16_19h15.51.989,phx_ver10,2022.2.5,Win32,59.84798612,,,,,,,,,,,,73,testing_3,j2x,a,j2x_a,j2x_1_aja.wav,j2x_1_aja.wav,,TRUE,FALSE,,,,,,,,,,,,,,f,0.6619,space,0.8168,,,,,,,,0,107,107,72,1,,
5770de783ac68100019d77af,2023-06-16_19h15.51.989,phx_ver10,2022.2.5,Win32,59.84798612,,,,,,,,,,,,13,testing_2,zh2x,ai,zh2x_ai,zh2x_1_aizhai.wav,zh2x_1_aizhai.wav,,TRUE,FALSE,,,,,,,,,,,,,,f,0.2839,space,0.4172,,,,,,,,0,108,108,12,1,,
5770de783ac68100019d77af,2023-06-16_19h15.51.989,phx_ver10,2022.2.5,Win32,59.84798612,,,,,,,,,,,,74,testing_3,j2x,a,j2x_a,j2x_8_axa.wav,j2x_8_axa.wav,,TRUE,FALSE,,,,,,,,,,,,,,f,0.0337,space,0.2004,,,,,,,,0,109,109,73,1,,
5770de783ac68100019d77af,2023-06-16_19h15.51.989,phx_ver10,2022.2.5,Win32,59.84798612,,,,,,,,,,,,9,testing_1,zh2x,i,zh2x_i,zh2x_1_izhi.wav,zh2x_1_izhi_copy.wav,,TRUE,TRUE,,,,,,,,,,,,,,f,0.4837,space,0.6338,,,,,,,,0,110,110,8,1,,
5770de783ac68100019d77af,2023-06-16_19h15.51.989,phx_ver10,2022.2.5,Win32,59.84798612,,,,,,,,,,,,42,testing_3,zh2sh,ei,zh2sh_ei,zh2sh_8_eishei.wav,zh2sh_8_eishei.wav,,TRUE,FALSE,,,,,,,,,,,,,,f,0.1153,space,0.2344,,,,,,,,0,111,111,41,1,,
5770de783ac68100019d77af,2023-06-16_19h15.51.989,phx_ver10,2022.2.5,Win32,59.84798612,,,,,,,,,,,,28,testing_3,zh2sh,a,zh2sh_a,zh2sh_8_asha.wav,zh2sh_1_azha.wav,,FALSE,FALSE,,,,,,,,,,,,,,j,0.1185,space,0.3172,,,,,,,,0,112,112,27,1,,
5770de783ac68100019d77af,2023-06-16_19h15.51.989,phx_ver10,2022.2.5,Win32,59.84798612,,,,,,,,,,,,113,testing_3,sh2x,ei,sh2x_ei,sh2x_1_eishei.wav,sh2x_1_eishei.wav,,TRUE,FALSE,,,,,,,,,,,,,,f,0.0838,space,0.1794,,,,,,,,0,113,113,112,1,,
5770de783ac68100019d77af,2023-06-16_19h15.51.989,phx_ver10,2022.2.5,Win32,59.84798612,,,,,,,,,,,,81,testing_3,j2x,au,j2x_au,j2x_1_aujau.wav,j2x_1_aujau.wav,,TRUE,FALSE,,,,,,,,,,,,,,f,0.0884,space,0.2169,,,,,,,,0,114,114,80,1,,
5770de783ac68100019d77af,2023-06-16_19h15.51.989,phx_ver10,2022.2.5,Win32,59.84798612,,,,,,,,,,,,7,testing_1,zh2x,e,zh2x_e,zh2x_1_ezhe.wav,zh2x_8_exe.wav,,FALSE,TRUE,,,,,,,,,,,,,,j,0.0894,space,0.2671,,,,,,,,0,115,115,6,1,,
5770de783ac68100019d77af,2023-06-16_19h15.51.989,phx_ver10,2022.2.5,Win32,59.84798612,,,,,,,,,,,,72,testing_3,zh2j,i,zh2j_i,zh2j_8_iji.wav,zh2j_1_izhi.wav,,FALSE,FALSE,,,,,,,,,,,,,,f,0.1425,space,0.2838,,,,,,,,0,116,116,71,1,,
5770de783ac68100019d77af,2023-06-16_19h15.51.989,phx_ver10,2022.2.5,Win32,59.84798612,,,,,,,,,,,,77,testing_3,j2x,ai,j2x_ai,j2x_1_aijai.wav,j2x_1_aijai.wav,,TRUE,FALSE,,,,,,,,,,,,,,f,0.1506,space,0.2448,,,,,,,,0,117,117,76,1,,
5770de783ac68100019d77af,2023-06-16_19h15.51.989,phx_ver10,2022.2.5,Win32,59.84798612,,,,,,,,,,,,38,testing_3,zh2sh,e,zh2sh_e,zh2sh_8_eshe.wav,zh2sh_8_eshe.wav,,TRUE,FALSE,,,,,,,,,,,,,,f,20.567,space,20.8671,,,,,,,,0,118,118,37,1,,
5770de783ac68100019d77af,2023-06-16_19h15.51.989,phx_ver10,2022.2.5,Win32,59.84798612,,,,,,,,,,,,103,testing_3,sh2x,ai,sh2x_ai,sh2x_1_aishai.wav,sh2x_8_aixai.wav,,FALSE,FALSE,,,,,,,,,,,,,,f,0.1503,space,0.2268,,,,,,,,0,119,119,102,1,,
5770de783ac68100019d77af,2023-06-16_19h15.51.989,phx_ver10,2022.2.5,Win32,59.84798612,,,,,,,,,,,,45,testing_3,zh2sh,i,zh2sh_i,zh2sh_1_izhi.wav,zh2sh_1_izhi.wav,,TRUE,FALSE,,,,,,,,,,,,,,f,0.0175,space,0.1005,,,,,,,,0,120,120,44,1,,
5770de783ac68100019d77af,2023-06-16_19h15.51.989,phx_ver10,2022.2.5,Win32,59.84798612,,,,,,,,,,,,2,testing_1,zh2x,a,zh2x_a,zh2x_8_axa.wav,zh2x_8_axa_copy.wav,,TRUE,TRUE,,,,,,,,,,,,,,f,0.0673,space,0.1507,,,,,,,,0,121,121,1,1,,
5770de783ac68100019d77af,2023-06-16_19h15.51.989,phx_ver10,2022.2.5,Win32,59.84798612,,,,,,,,,,,,138,testing_3,sh2j,ei,sh2j_ei,sh2j_8_eijei.wav,sh2j_8_eijei.wav,,TRUE,FALSE,,,,,,,,,,,,,,f,0.0405,space,0.1169,,,,,,,,0,122,122,137,1,,
5770de783ac68100019d77af,2023-06-16_19h15.51.989,phx_ver10,2022.2.5,Win32,59.84798612,,,,,,,,,,,,59,testing_3,zh2j,au,zh2j_au,zh2j_1_auzhau.wav,zh2j_8_aujau.wav,,FALSE,FALSE,,,,,,,,,,,,,,f,0.1004,space,0.2004,,,,,,,,0,123,123,58,1,,
5770de783ac68100019d77af,2023-06-16_19h15.51.989,phx_ver10,2022.2.5,Win32,59.84798612,,,,,,,,,,,,4,testing_1,zh2x,a,zh2x_a,zh2x_8_axa.wav,zh2x_1_azha.wav,,FALSE,TRUE,,,,,,,,,,,,,,f,0.2835,space,0.3671,,,,,,,,0,124,124,3,1,,
5770de783ac68100019d77af,2023-06-16_19h15.51.989,phx_ver10,2022.2.5,Win32,59.84798612,,,,,,,,,,,,43,testing_3,zh2sh,ei,zh2sh_ei,zh2sh_1_eizhei.wav,zh2sh_8_eishei.wav,,FALSE,FALSE,,,,,,,,,,,,,,j,0.2658,space,0.5492,,,,,,,,0,125,125,42,1,,
5770de783ac68100019d77af,2023-06-16_19h15.51.989,phx_ver10,2022.2.5,Win32,59.84798612,,,,,,,,,,,,96,testing_3,j2x,i,j2x_i,j2x_8_ixi.wav,j2x_1_iji.wav,,FALSE,FALSE,,,,,,,,,,,,,,f,0.7838,space,0.8503,,,,,,,,0,126,126,95,1,,
5770de783ac68100019d77af,2023-06-16_19h15.51.989,phx_ver10,2022.2.5,Win32,59.84798612,,,,,,,,,,,,104,testing_3,sh2x,ai,sh2x_ai,sh2x_8_aixai.wav,sh2x_1_aishai.wav,,FALSE,FALSE,,,,,,,,,,,,,,f,0.9504,space,1.0837,,,,,,,,0,127,127,103,1,,
5770de783ac68100019d77af,2023-06-16_19h15.51.989,phx_ver10,2022.2.5,Win32,59.84798612,,,,,,,,,,,,37,testing_3,zh2sh,e,zh2sh_e,zh2sh_1_ezhe.wav,zh2sh_1_ezhe.wav,,TRUE,FALSE,,,,,,,,,,,,,,f,0.1377,space,0.3003,,,,,,,,0,128,128,36,1,,
5770de783ac68100019d77af,2023-06-16_19h15.51.989,phx_ver10,2022.2.5,Win32,59.84798612,,,,,,,,,,,,35,testing_3,zh2sh,au,zh2sh_au,zh2sh_1_auzhau.wav,zh2sh_8_aushau.wav,,FALSE,FALSE,,,,,,,,,,,,,,j,0.1422,space,0.2835,,,,,,,,0,129,129,34,1,,
5770de783ac68100019d77af,2023-06-16_19h15.51.989,phx_ver10,2022.2.5,Win32,59.84798612,,,,,,,,,,,,25,testing_3,zh2sh,a,zh2sh_a,zh2sh_1_azha.wav,zh2sh_1_azha.wav,,TRUE,FALSE,,,,,,,,,,,,,,f,0.1412,space,0.3337,,,,,,,,0,130,130,24,1,,
5770de783ac68100019d77af,2023-06-16_19h15.51.989,phx_ver10,2022.2.5,Win32,59.84798612,,,,,,,,,,,,58,testing_3,zh2j,au,zh2j_au,zh2j_8_aujau.wav,zh2j_8_aujau.wav,,TRUE,FALSE,,,,,,,,,,,,,,f,0.196,space,0.267,,,,,,,,0,131,131,57,1,,
5770de783ac68100019d77af,2023-06-16_19h15.51.989,phx_ver10,2022.2.5,Win32,59.84798612,,,,,,,,,,,,130,testing_3,sh2j,au,sh2j_au,sh2j_8_aujau.wav,sh2j_8_aujau.wav,,TRUE,FALSE,,,,,,,,,,,,,,f,0.1003,space,0.1834,,,,,,,,0,132,132,129,1,,
5770de783ac68100019d77af,2023-06-16_19h15.51.989,phx_ver10,2022.2.5,Win32,59.84798612,,,,,,,,,,,,1,testing_1,zh2x,a,zh2x_a,zh2x_1_azha.wav,zh2x_1_azha_copy.wav,,TRUE,TRUE,,,,,,,,,,,,,,f,0.0505,space,0.1172,,,,,,,,0,133,133,0,1,,
5770de783ac68100019d77af,2023-06-16_19h15.51.989,phx_ver10,2022.2.5,Win32,59.84798612,,,,,,,,,,,,54,testing_3,zh2j,ai,zh2j_ai,zh2j_8_aijai.wav,zh2j_8_aijai.wav,,TRUE,FALSE,,,,,,,,,,,,,,f,0.1004,space,0.2412,,,,,,,,0,134,134,53,1,,
5770de783ac68100019d77af,2023-06-16_19h15.51.989,phx_ver10,2022.2.5,Win32,59.84798612,,,,,,,,,,,,98,testing_3,sh2x,a,sh2x_a,sh2x_8_axa.wav,sh2x_8_axa.wav,,TRUE,FALSE,,,,,,,,,,,,,,f,0.0505,space,0.1773,,,,,,,,0,135,135,97,1,,
5770de783ac68100019d77af,2023-06-16_19h15.51.989,phx_ver10,2022.2.5,Win32,59.84798612,,,,,,,,,,,,86,testing_3,j2x,e,j2x_e,j2x_8_exe.wav,j2x_8_exe.wav,,TRUE,FALSE,,,,,,,,,,,,,,f,0.0433,space,0.1653,,,,,,,,0,136,136,85,1,,
5770de783ac68100019d77af,2023-06-16_19h15.51.989,phx_ver10,2022.2.5,Win32,59.84798612,,,,,,,,,,,,23,testing_2,zh2x,ei,zh2x_ei,zh2x_1_eizhei.wav,zh2x_8_eixei.wav,,FALSE,FALSE,,,,,,,,,,,,,,j,0.1003,space,0.2576,,,,,,,,0,137,137,22,1,,
5770de783ac68100019d77af,2023-06-16_19h15.51.989,phx_ver10,2022.2.5,Win32,59.84798612,,,,,,,,,,,,76,testing_3,j2x,a,j2x_a,j2x_8_axa.wav,j2x_1_aja.wav,,FALSE,FALSE,,,,,,,,,,,,,,f,0.1117,space,0.2671,,,,,,,,0,138,138,75,1,,
5770de783ac68100019d77af,2023-06-16_19h15.51.989,phx_ver10,2022.2.5,Win32,59.84798612,,,,,,,,,,,,135,testing_3,sh2j,e,sh2j_e,sh2j_1_eshe.wav,sh2j_8_eje.wav,,FALSE,FALSE,,,,,,,,,,,,,,f,0.1217,space,0.2335,,,,,,,,0,139,139,134,1,,
5770de783ac68100019d77af,2023-06-16_19h15.51.989,phx_ver10,2022.2.5,Win32,59.84798612,,,,,,,,,,,,79,testing_3,j2x,ai,j2x_ai,j2x_1_aijai.wav,j2x_8_aixai.wav,,FALSE,FALSE,,,,,,,,,,,,,,j,0.1167,space,0.2834,,,,,,,,0,140,140,78,1,,
5770de783ac68100019d77af,2023-06-16_19h15.51.989,phx_ver10,2022.2.5,Win32,59.84798612,,,,,,,,,,,,24,testing_2,zh2x,ei,zh2x_ei,zh2x_8_eixei.wav,zh2x_1_eizhei.wav,,FALSE,FALSE,,,,,,,,,,,,,,j,0.0696,space,0.2236,,,,,,,,0,141,141,23,1,,
5770de783ac68100019d77af,2023-06-16_19h15.51.989,phx_ver10,2022.2.5,Win32,59.84798612,,,,,,,,,,,,36,testing_3,zh2sh,au,zh2sh_au,zh2sh_8_aushau.wav,zh2sh_1_auzhau.wav,,FALSE,FALSE,,,,,,,,,,,,,,j,0.0198,space,0.2741,,,,,,,,0,142,142,35,1,,
5770de783ac68100019d77af,2023-06-16_19h15.51.989,phx_ver10,2022.2.5,Win32,59.84798612,,,,,,,,,,,,114,testing_3,sh2x,ei,sh2x_ei,sh2x_8_eixei.wav,sh2x_8_eixei.wav,,TRUE,FALSE,,,,,,,,,,,,,,f,1.1171,space,1.2336,,,,,,,,0,143,143,113,1,,
5770de783ac68100019d77af,2023-06-16_19h15.51.989,phx_ver10,2022.2.5,Win32,59.84798612,,,,,,,,,,,,,,,,,,,,,,,,,,,,,,,,,,,,,,,,,,,,,,,,,,,space,3.0965
