participant,date,expName,psychopyVersion,OS,frameRate,space_1.keys,space_1.rt,space_2.keys,space_2.rt,space_train.keys,space_train.rt,training.thisRepN,training.thisTrialN,training.thisN,training.thisIndex,training.ran,token_id,task,continuum,vowel,series,sound_1,sound_2,img,same,trained,FJ_attn.keys,FJ_attn.rt,space_attn.keys,space_attn.rt,if_attn_test.thisRepN,if_attn_test.thisTrialN,if_attn_test.thisN,if_attn_test.thisIndex,if_attn_test.ran,space_trans_1.keys,space_trans_1.rt,space_trans_11.keys,space_trans_11.rt,FJ_test.keys,FJ_test.rt,space_test.keys,space_test.rt,testing_pre.thisRepN,testing_pre.thisTrialN,testing_pre.thisN,testing_pre.thisIndex,testing_pre.ran,space_trans_2.keys,space_trans_2.rt,testing_all.thisRepN,testing_all.thisTrialN,testing_all.thisN,testing_all.thisIndex,testing_all.ran,space_ending.keys,space_ending.rt
57754d57ca706f000190eaf1,2023-06-16_10h11.38.274,phx_ver10,2022.2.5,Win32,59.86948452,,,,,,,,,,,,,,,,,,,,,,,,,,,,,,,,,,,,,,,,,,,,,,,,,,,,
57754d57ca706f000190eaf1,2023-06-16_10h11.38.274,phx_ver10,2022.2.5,Win32,59.86948452,space,2.9152,,,,,,,,,,,,,,,,,,,,,,,,,,,,,,,,,,,,,,,,,,,,,,,,,,
57754d57ca706f000190eaf1,2023-06-16_10h11.38.274,phx_ver10,2022.2.5,Win32,59.86948452,,,space,0.7176,,,,,,,,,,,,,,,,,,,,,,,,,,,,,,,,,,,,,,,,,,,,,,,,
57754d57ca706f000190eaf1,2023-06-16_10h11.38.274,phx_ver10,2022.2.5,Win32,59.86948452,,,,,space,0.8963,0,0,0,28,1,29,training,zh2x,e,zh2x_e,zh2x_7_exe.wav,,exe.jpg,,,,,,,,,,,,,,,,,,,,,,,,,,,,,,,,,
57754d57ca706f000190eaf1,2023-06-16_10h11.38.274,phx_ver10,2022.2.5,Win32,59.86948452,,,,,space,0.5823,0,1,1,21,1,22,training,zh2x,e,zh2x_e,zh2x_3_ezhe.wav,,ezhe.jpg,,,,,,,,,,,,,,,,,,,,,,,,,,,,,,,,,
57754d57ca706f000190eaf1,2023-06-16_10h11.38.274,phx_ver10,2022.2.5,Win32,59.86948452,,,,,space,0.4404,0,2,2,14,1,15,training,zh2x,a,zh2x_a,zh2x_7_axa.wav,,axa.jpg,,,,,,,,,,,,,,,,,,,,,,,,,,,,,,,,,
57754d57ca706f000190eaf1,2023-06-16_10h11.38.274,phx_ver10,2022.2.5,Win32,59.86948452,,,,,space,0.4003,0,3,3,46,1,47,training,zh2x,i,zh2x_i,zh2x_7_ixi.wav,,ixi.jpg,,,,,,,,,,,,,,,,,,,,,,,,,,,,,,,,,
57754d57ca706f000190eaf1,2023-06-16_10h11.38.274,phx_ver10,2022.2.5,Win32,59.86948452,,,,,space,0.3712,0,4,4,44,1,45,training,zh2x,i,zh2x_i,zh2x_7_ixi.wav,,ixi.jpg,,,,,,,,,,,,,,,,,,,,,,,,,,,,,,,,,
57754d57ca706f000190eaf1,2023-06-16_10h11.38.274,phx_ver10,2022.2.5,Win32,59.86948452,,,,,space,0.8009,0,5,5,34,1,35,training,zh2x,i,zh2x_i,zh2x_2_izhi.wav,,izhi.jpg,,,,,,,,,,,,,,,,,,,,,,,,,,,,,,,,,
57754d57ca706f000190eaf1,2023-06-16_10h11.38.274,phx_ver10,2022.2.5,Win32,59.86948452,,,,,,,,,,,,,attn_test,,,,zh2x_8_axa.wav,zh2x_1_izhi.wav,izhi.jpg,RIGHT,,j,2.3526,space,4.7838,0,0,0,0,1,,,,,,,,,,,,,,,,,,,,,,
57754d57ca706f000190eaf1,2023-06-16_10h11.38.274,phx_ver10,2022.2.5,Win32,59.86948452,,,,,space,0.7894,0,6,6,45,1,46,training,zh2x,i,zh2x_i,zh2x_7_ixi.wav,,ixi.jpg,,,,,,,,,,,,,,,,,,,,,,,,,,,,,,,,,
57754d57ca706f000190eaf1,2023-06-16_10h11.38.274,phx_ver10,2022.2.5,Win32,59.86948452,,,,,space,0.5827,0,7,7,33,1,34,training,zh2x,i,zh2x_i,zh2x_2_izhi.wav,,izhi.jpg,,,,,,,,,,,,,,,,,,,,,,,,,,,,,,,,,
57754d57ca706f000190eaf1,2023-06-16_10h11.38.274,phx_ver10,2022.2.5,Win32,59.86948452,,,,,space,0.4561,0,8,8,40,1,41,training,zh2x,i,zh2x_i,zh2x_5_ixi.wav,,ixi.jpg,,,,,,,,,,,,,,,,,,,,,,,,,,,,,,,,,
57754d57ca706f000190eaf1,2023-06-16_10h11.38.274,phx_ver10,2022.2.5,Win32,59.86948452,,,,,space,0.3686,0,9,9,19,1,20,training,zh2x,e,zh2x_e,zh2x_2_ezhe.wav,,ezhe.jpg,,,,,,,,,,,,,,,,,,,,,,,,,,,,,,,,,
57754d57ca706f000190eaf1,2023-06-16_10h11.38.274,phx_ver10,2022.2.5,Win32,59.86948452,,,,,space,0.0754,0,10,10,17,1,18,training,zh2x,e,zh2x_e,zh2x_2_ezhe.wav,,ezhe.jpg,,,,,,,,,,,,,,,,,,,,,,,,,,,,,,,,,
57754d57ca706f000190eaf1,2023-06-16_10h11.38.274,phx_ver10,2022.2.5,Win32,59.86948452,,,,,space,0.0658,0,11,11,27,1,28,training,zh2x,e,zh2x_e,zh2x_7_exe.wav,,exe.jpg,,,,,,,,,,,,,,,,,,,,,,,,,,,,,,,,,
57754d57ca706f000190eaf1,2023-06-16_10h11.38.274,phx_ver10,2022.2.5,Win32,59.86948452,,,,,,,,,,,,,attn_test,,,,zh2x_8_ixi.wav,zh2x_1_izhi.wav,ixi.jpg,LEFT,,f,1.4675,space,2.0874,0,0,0,0,1,,,,,,,,,,,,,,,,,,,,,,
57754d57ca706f000190eaf1,2023-06-16_10h11.38.274,phx_ver10,2022.2.5,Win32,59.86948452,,,,,space,0.8369,0,12,12,3,1,4,training,zh2x,a,zh2x_a,zh2x_2_azha.wav,,azha.jpg,,,,,,,,,,,,,,,,,,,,,,,,,,,,,,,,,
57754d57ca706f000190eaf1,2023-06-16_10h11.38.274,phx_ver10,2022.2.5,Win32,59.86948452,,,,,space,0.0033,0,13,13,0,1,1,training,zh2x,a,zh2x_a,zh2x_1_azha.wav,,azha.jpg,,,,,,,,,,,,,,,,,,,,,,,,,,,,,,,,,
57754d57ca706f000190eaf1,2023-06-16_10h11.38.274,phx_ver10,2022.2.5,Win32,59.86948452,,,,,space,0.0509,0,14,14,30,1,31,training,zh2x,e,zh2x_e,zh2x_7_exe.wav,,exe.jpg,,,,,,,,,,,,,,,,,,,,,,,,,,,,,,,,,
57754d57ca706f000190eaf1,2023-06-16_10h11.38.274,phx_ver10,2022.2.5,Win32,59.86948452,,,,,space,0.3499,0,15,15,9,1,10,training,zh2x,a,zh2x_a,zh2x_6_axa.wav,,axa.jpg,,,,,,,,,,,,,,,,,,,,,,,,,,,,,,,,,
57754d57ca706f000190eaf1,2023-06-16_10h11.38.274,phx_ver10,2022.2.5,Win32,59.86948452,,,,,space,0.3435,0,16,16,24,1,25,training,zh2x,e,zh2x_e,zh2x_5_exe.wav,,exe.jpg,,,,,,,,,,,,,,,,,,,,,,,,,,,,,,,,,
57754d57ca706f000190eaf1,2023-06-16_10h11.38.274,phx_ver10,2022.2.5,Win32,59.86948452,,,,,space,0.275,0,17,17,47,1,48,training,zh2x,i,zh2x_i,zh2x_8_ixi.wav,,ixi.jpg,,,,,,,,,,,,,,,,,,,,,,,,,,,,,,,,,
57754d57ca706f000190eaf1,2023-06-16_10h11.38.274,phx_ver10,2022.2.5,Win32,59.86948452,,,,,,,,,,,,,attn_test,,,,zh2x_1_azha.wav,zh2x_8_axa.wav,axa.jpg,RIGHT,,f,0.4994,space,0.9156,0,0,0,0,1,,,,,,,,,,,,,,,,,,,,,,
57754d57ca706f000190eaf1,2023-06-16_10h11.38.274,phx_ver10,2022.2.5,Win32,59.86948452,,,,,space,0.5583,0,18,18,36,1,37,training,zh2x,i,zh2x_i,zh2x_2_izhi.wav,,izhi.jpg,,,,,,,,,,,,,,,,,,,,,,,,,,,,,,,,,
57754d57ca706f000190eaf1,2023-06-16_10h11.38.274,phx_ver10,2022.2.5,Win32,59.86948452,,,,,space,0.1399,0,19,19,6,1,7,training,zh2x,a,zh2x_a,zh2x_3_azha.wav,,azha.jpg,,,,,,,,,,,,,,,,,,,,,,,,,,,,,,,,,
57754d57ca706f000190eaf1,2023-06-16_10h11.38.274,phx_ver10,2022.2.5,Win32,59.86948452,,,,,space,0.3338,0,20,20,37,1,38,training,zh2x,i,zh2x_i,zh2x_3_izhi.wav,,izhi.jpg,,,,,,,,,,,,,,,,,,,,,,,,,,,,,,,,,
57754d57ca706f000190eaf1,2023-06-16_10h11.38.274,phx_ver10,2022.2.5,Win32,59.86948452,,,,,space,0.0832,0,21,21,35,1,36,training,zh2x,i,zh2x_i,zh2x_2_izhi.wav,,izhi.jpg,,,,,,,,,,,,,,,,,,,,,,,,,,,,,,,,,
57754d57ca706f000190eaf1,2023-06-16_10h11.38.274,phx_ver10,2022.2.5,Win32,59.86948452,,,,,space,0.3105,0,22,22,39,1,40,training,zh2x,i,zh2x_i,zh2x_4_izhi.wav,,izhi.jpg,,,,,,,,,,,,,,,,,,,,,,,,,,,,,,,,,
57754d57ca706f000190eaf1,2023-06-16_10h11.38.274,phx_ver10,2022.2.5,Win32,59.86948452,,,,,space,0.0007,0,23,23,7,1,8,training,zh2x,a,zh2x_a,zh2x_4_azha.wav,,azha.jpg,,,,,,,,,,,,,,,,,,,,,,,,,,,,,,,,,
57754d57ca706f000190eaf1,2023-06-16_10h11.38.274,phx_ver10,2022.2.5,Win32,59.86948452,,,,,,,,,,,,,attn_test,,,,zh2x_1_ezhe.wav,zh2x_1_izhi.wav,izhi.jpg,RIGHT,,j,0.4835,space,1.0996,0,0,0,0,1,,,,,,,,,,,,,,,,,,,,,,
57754d57ca706f000190eaf1,2023-06-16_10h11.38.274,phx_ver10,2022.2.5,Win32,59.86948452,,,,,space,0.3285,0,24,24,38,1,39,training,zh2x,i,zh2x_i,zh2x_3_izhi.wav,,izhi.jpg,,,,,,,,,,,,,,,,,,,,,,,,,,,,,,,,,
57754d57ca706f000190eaf1,2023-06-16_10h11.38.274,phx_ver10,2022.2.5,Win32,59.86948452,,,,,space,0.1867,0,25,25,18,1,19,training,zh2x,e,zh2x_e,zh2x_2_ezhe.wav,,ezhe.jpg,,,,,,,,,,,,,,,,,,,,,,,,,,,,,,,,,
57754d57ca706f000190eaf1,2023-06-16_10h11.38.274,phx_ver10,2022.2.5,Win32,59.86948452,,,,,space,0.1023,0,26,26,15,1,16,training,zh2x,a,zh2x_a,zh2x_8_axa.wav,,axa.jpg,,,,,,,,,,,,,,,,,,,,,,,,,,,,,,,,,
57754d57ca706f000190eaf1,2023-06-16_10h11.38.274,phx_ver10,2022.2.5,Win32,59.86948452,,,,,space,0.1894,0,27,27,42,1,43,training,zh2x,i,zh2x_i,zh2x_6_ixi.wav,,ixi.jpg,,,,,,,,,,,,,,,,,,,,,,,,,,,,,,,,,
57754d57ca706f000190eaf1,2023-06-16_10h11.38.274,phx_ver10,2022.2.5,Win32,59.86948452,,,,,space,0.1528,0,28,28,25,1,26,training,zh2x,e,zh2x_e,zh2x_6_exe.wav,,exe.jpg,,,,,,,,,,,,,,,,,,,,,,,,,,,,,,,,,
57754d57ca706f000190eaf1,2023-06-16_10h11.38.274,phx_ver10,2022.2.5,Win32,59.86948452,,,,,space,0.2586,0,29,29,29,1,30,training,zh2x,e,zh2x_e,zh2x_7_exe.wav,,exe.jpg,,,,,,,,,,,,,,,,,,,,,,,,,,,,,,,,,
57754d57ca706f000190eaf1,2023-06-16_10h11.38.274,phx_ver10,2022.2.5,Win32,59.86948452,,,,,,,,,,,,,attn_test,,,,zh2x_8_ixi.wav,zh2x_8_axa.wav,ixi.jpg,LEFT,,f,0.2049,space,1.7566,0,0,0,0,1,,,,,,,,,,,,,,,,,,,,,,
57754d57ca706f000190eaf1,2023-06-16_10h11.38.274,phx_ver10,2022.2.5,Win32,59.86948452,,,,,space,0.3923,0,30,30,20,1,21,training,zh2x,e,zh2x_e,zh2x_2_ezhe.wav,,ezhe.jpg,,,,,,,,,,,,,,,,,,,,,,,,,,,,,,,,,
57754d57ca706f000190eaf1,2023-06-16_10h11.38.274,phx_ver10,2022.2.5,Win32,59.86948452,,,,,space,0.1901,0,31,31,41,1,42,training,zh2x,i,zh2x_i,zh2x_6_ixi.wav,,ixi.jpg,,,,,,,,,,,,,,,,,,,,,,,,,,,,,,,,,
57754d57ca706f000190eaf1,2023-06-16_10h11.38.274,phx_ver10,2022.2.5,Win32,59.86948452,,,,,space,0.0844,0,32,32,11,1,12,training,zh2x,a,zh2x_a,zh2x_7_axa.wav,,axa.jpg,,,,,,,,,,,,,,,,,,,,,,,,,,,,,,,,,
57754d57ca706f000190eaf1,2023-06-16_10h11.38.274,phx_ver10,2022.2.5,Win32,59.86948452,,,,,space,0.3507,0,33,33,43,1,44,training,zh2x,i,zh2x_i,zh2x_7_ixi.wav,,ixi.jpg,,,,,,,,,,,,,,,,,,,,,,,,,,,,,,,,,
57754d57ca706f000190eaf1,2023-06-16_10h11.38.274,phx_ver10,2022.2.5,Win32,59.86948452,,,,,space,0.0119,0,34,34,1,1,2,training,zh2x,a,zh2x_a,zh2x_2_azha.wav,,azha.jpg,,,,,,,,,,,,,,,,,,,,,,,,,,,,,,,,,
57754d57ca706f000190eaf1,2023-06-16_10h11.38.274,phx_ver10,2022.2.5,Win32,59.86948452,,,,,space,0.2699,0,35,35,4,1,5,training,zh2x,a,zh2x_a,zh2x_2_azha.wav,,azha.jpg,,,,,,,,,,,,,,,,,,,,,,,,,,,,,,,,,
57754d57ca706f000190eaf1,2023-06-16_10h11.38.274,phx_ver10,2022.2.5,Win32,59.86948452,,,,,,,,,,,,,attn_test,,,,zh2x_8_ixi.wav,zh2x_1_ezhe.wav,ixi.jpg,LEFT,,f,0.034,space,0.589,0,0,0,0,1,,,,,,,,,,,,,,,,,,,,,,
57754d57ca706f000190eaf1,2023-06-16_10h11.38.274,phx_ver10,2022.2.5,Win32,59.86948452,,,,,space,0.3526,0,36,36,13,1,14,training,zh2x,a,zh2x_a,zh2x_7_axa.wav,,axa.jpg,,,,,,,,,,,,,,,,,,,,,,,,,,,,,,,,,
57754d57ca706f000190eaf1,2023-06-16_10h11.38.274,phx_ver10,2022.2.5,Win32,59.86948452,,,,,space,0.2259,0,37,37,23,1,24,training,zh2x,e,zh2x_e,zh2x_4_ezhe.wav,,ezhe.jpg,,,,,,,,,,,,,,,,,,,,,,,,,,,,,,,,,
57754d57ca706f000190eaf1,2023-06-16_10h11.38.274,phx_ver10,2022.2.5,Win32,59.86948452,,,,,space,0.203,0,38,38,12,1,13,training,zh2x,a,zh2x_a,zh2x_7_axa.wav,,axa.jpg,,,,,,,,,,,,,,,,,,,,,,,,,,,,,,,,,
57754d57ca706f000190eaf1,2023-06-16_10h11.38.274,phx_ver10,2022.2.5,Win32,59.86948452,,,,,space,0.1694,0,39,39,32,1,33,training,zh2x,i,zh2x_i,zh2x_1_izhi.wav,,izhi.jpg,,,,,,,,,,,,,,,,,,,,,,,,,,,,,,,,,
57754d57ca706f000190eaf1,2023-06-16_10h11.38.274,phx_ver10,2022.2.5,Win32,59.86948452,,,,,space,0.1491,0,40,40,2,1,3,training,zh2x,a,zh2x_a,zh2x_2_azha.wav,,azha.jpg,,,,,,,,,,,,,,,,,,,,,,,,,,,,,,,,,
57754d57ca706f000190eaf1,2023-06-16_10h11.38.274,phx_ver10,2022.2.5,Win32,59.86948452,,,,,space,0.1173,0,41,41,8,1,9,training,zh2x,a,zh2x_a,zh2x_5_axa.wav,,axa.jpg,,,,,,,,,,,,,,,,,,,,,,,,,,,,,,,,,
57754d57ca706f000190eaf1,2023-06-16_10h11.38.274,phx_ver10,2022.2.5,Win32,59.86948452,,,,,,,,,,,,,attn_test,,,,zh2x_8_axa.wav,zh2x_1_ezhe.wav,axa.jpg,LEFT,,f,0.1851,space,0.8154,0,0,0,0,1,,,,,,,,,,,,,,,,,,,,,,
57754d57ca706f000190eaf1,2023-06-16_10h11.38.274,phx_ver10,2022.2.5,Win32,59.86948452,,,,,space,0.3118,0,42,42,26,1,27,training,zh2x,e,zh2x_e,zh2x_6_exe.wav,,exe.jpg,,,,,,,,,,,,,,,,,,,,,,,,,,,,,,,,,
57754d57ca706f000190eaf1,2023-06-16_10h11.38.274,phx_ver10,2022.2.5,Win32,59.86948452,,,,,space,0.1026,0,43,43,16,1,17,training,zh2x,e,zh2x_e,zh2x_1_ezhe.wav,,ezhe.jpg,,,,,,,,,,,,,,,,,,,,,,,,,,,,,,,,,
57754d57ca706f000190eaf1,2023-06-16_10h11.38.274,phx_ver10,2022.2.5,Win32,59.86948452,,,,,space,0.0226,0,44,44,31,1,32,training,zh2x,e,zh2x_e,zh2x_8_exe.wav,,exe.jpg,,,,,,,,,,,,,,,,,,,,,,,,,,,,,,,,,
57754d57ca706f000190eaf1,2023-06-16_10h11.38.274,phx_ver10,2022.2.5,Win32,59.86948452,,,,,space,0.1071,0,45,45,22,1,23,training,zh2x,e,zh2x_e,zh2x_3_ezhe.wav,,ezhe.jpg,,,,,,,,,,,,,,,,,,,,,,,,,,,,,,,,,
57754d57ca706f000190eaf1,2023-06-16_10h11.38.274,phx_ver10,2022.2.5,Win32,59.86948452,,,,,space,0.0744,0,46,46,10,1,11,training,zh2x,a,zh2x_a,zh2x_6_axa.wav,,axa.jpg,,,,,,,,,,,,,,,,,,,,,,,,,,,,,,,,,
57754d57ca706f000190eaf1,2023-06-16_10h11.38.274,phx_ver10,2022.2.5,Win32,59.86948452,,,,,space,0.3323,0,47,47,5,1,6,training,zh2x,a,zh2x_a,zh2x_3_azha.wav,,azha.jpg,,,,,,,,,,,,,,,,,,,,,,,,,,,,,,,,,
57754d57ca706f000190eaf1,2023-06-16_10h11.38.274,phx_ver10,2022.2.5,Win32,59.86948452,,,,,,,,,,,,,attn_test,,,,zh2x_8_axa.wav,zh2x_1_ezhe.wav,ezhe.jpg,RIGHT,,j,0.2254,space,0.937,,,,,,,,,,,,,,,,,,,,,,,,,,,
57754d57ca706f000190eaf1,2023-06-16_10h11.38.274,phx_ver10,2022.2.5,Win32,59.86948452,,,,,,,,,,,,,,,,,,,,,,,,,,,,,,,space,1.3288,,,,,,,,,,,,,,,,,,,,
57754d57ca706f000190eaf1,2023-06-16_10h11.38.274,phx_ver10,2022.2.5,Win32,59.86948452,,,,,,,,,,,,,,,,,,,,,,,,,,,,,,,,,space,1.658,,,,,,,,,,,,,,,,,,
57754d57ca706f000190eaf1,2023-06-16_10h11.38.274,phx_ver10,2022.2.5,Win32,59.86948452,,,,,,,,,,,,3,testing_pre,,,,afa.wav,aha.wav,,FALSE,,,,,,,,,,,,,,,j,1.438,space,5.753,0,0,0,2,1,,,,,,,,,
57754d57ca706f000190eaf1,2023-06-16_10h11.38.274,phx_ver10,2022.2.5,Win32,59.86948452,,,,,,,,,,,,1,testing_pre,,,,ifi.wav,ifi.wav,,TRUE,,,,,,,,,,,,,,,f,0.201,space,0.6676,0,1,1,0,1,,,,,,,,,
57754d57ca706f000190eaf1,2023-06-16_10h11.38.274,phx_ver10,2022.2.5,Win32,59.86948452,,,,,,,,,,,,2,testing_pre,,,,auhau.wav,aufau.wav,,FALSE,,,,,,,,,,,,,,,f,0.1678,space,0.5168,0,2,2,1,1,,,,,,,,,
57754d57ca706f000190eaf1,2023-06-16_10h11.38.274,phx_ver10,2022.2.5,Win32,59.86948452,,,,,,,,,,,,4,testing_pre,,,,eihei.wav,eihei.wav,,TRUE,,,,,,,,,,,,,,,f,0.2138,space,0.5337,0,3,3,3,1,,,,,,,,,
57754d57ca706f000190eaf1,2023-06-16_10h11.38.274,phx_ver10,2022.2.5,Win32,59.86948452,,,,,,,,,,,,5,testing_pre,,,,ihi.wav,ifi.wav,,FALSE,,,,,,,,,,,,,,,f,0.3007,space,0.6176,0,4,4,4,1,,,,,,,,,
57754d57ca706f000190eaf1,2023-06-16_10h11.38.274,phx_ver10,2022.2.5,Win32,59.86948452,,,,,,,,,,,,,,,,,,,,,,,,,,,,,,,,,,,,,,,,,,,,space,0.4174,,,,,,,
57754d57ca706f000190eaf1,2023-06-16_10h11.38.274,phx_ver10,2022.2.5,Win32,59.86948452,,,,,,,,,,,,9,testing_1,zh2x,i,zh2x_i,zh2x_1_izhi.wav,zh2x_1_izhi_copy.wav,,TRUE,TRUE,,,,,,,,,,,,,,f,0.0594,space,0.422,,,,,,,,0,0,0,8,1,,
57754d57ca706f000190eaf1,2023-06-16_10h11.38.274,phx_ver10,2022.2.5,Win32,59.86948452,,,,,,,,,,,,113,testing_3,sh2x,ei,sh2x_ei,sh2x_1_eishei.wav,sh2x_1_eishei.wav,,TRUE,FALSE,,,,,,,,,,,,,,f,0.2656,space,0.568,,,,,,,,0,1,1,112,1,,
57754d57ca706f000190eaf1,2023-06-16_10h11.38.274,phx_ver10,2022.2.5,Win32,59.86948452,,,,,,,,,,,,106,testing_3,sh2x,au,sh2x_au,sh2x_8_auxau.wav,sh2x_8_auxau.wav,,TRUE,FALSE,,,,,,,,,,,,,,f,0.0579,space,0.3883,,,,,,,,0,2,2,105,1,,
57754d57ca706f000190eaf1,2023-06-16_10h11.38.274,phx_ver10,2022.2.5,Win32,59.86948452,,,,,,,,,,,,52,testing_3,zh2j,a,zh2j_a,zh2j_8_aja.wav,zh2j_1_azha.wav,,FALSE,FALSE,,,,,,,,,,,,,,f,0.1575,space,0.407,,,,,,,,0,3,3,51,1,,
57754d57ca706f000190eaf1,2023-06-16_10h11.38.274,phx_ver10,2022.2.5,Win32,59.86948452,,,,,,,,,,,,63,testing_3,zh2j,e,zh2j_e,zh2j_1_ezhe.wav,zh2j_8_eje.wav,,FALSE,FALSE,,,,,,,,,,,,,,j,0.6505,space,1.2439,,,,,,,,0,4,4,62,1,,
57754d57ca706f000190eaf1,2023-06-16_10h11.38.274,phx_ver10,2022.2.5,Win32,59.86948452,,,,,,,,,,,,134,testing_3,sh2j,e,sh2j_e,sh2j_8_eje.wav,sh2j_8_eje.wav,,TRUE,FALSE,,,,,,,,,,,,,,j,0.2521,space,0.5508,,,,,,,,0,5,5,133,1,,
57754d57ca706f000190eaf1,2023-06-16_10h11.38.274,phx_ver10,2022.2.5,Win32,59.86948452,,,,,,,,,,,,144,testing_3,sh2j,i,sh2j_i,sh2j_8_iji.wav,sh2j_1_ishi.wav,,FALSE,FALSE,,,,,,,,,,,,,,f,0.2525,space,0.5539,,,,,,,,0,6,6,143,1,,
57754d57ca706f000190eaf1,2023-06-16_10h11.38.274,phx_ver10,2022.2.5,Win32,59.86948452,,,,,,,,,,,,133,testing_3,sh2j,e,sh2j_e,sh2j_1_eshe.wav,sh2j_1_eshe.wav,,TRUE,FALSE,,,,,,,,,,,,,,f,0.3059,space,0.5005,,,,,,,,0,7,7,132,1,,
57754d57ca706f000190eaf1,2023-06-16_10h11.38.274,phx_ver10,2022.2.5,Win32,59.86948452,,,,,,,,,,,,48,testing_3,zh2sh,i,zh2sh_i,zh2sh_8_ishi.wav,zh2sh_1_izhi.wav,,FALSE,FALSE,,,,,,,,,,,,,,f,0.0154,space,0.3326,,,,,,,,0,8,8,47,1,,
57754d57ca706f000190eaf1,2023-06-16_10h11.38.274,phx_ver10,2022.2.5,Win32,59.86948452,,,,,,,,,,,,16,testing_2,zh2x,ai,zh2x_ai,zh2x_8_aixai.wav,zh2x_1_aizhai.wav,,FALSE,FALSE,,,,,,,,,,,,,,j,0.202,space,0.556,,,,,,,,0,9,9,15,1,,
57754d57ca706f000190eaf1,2023-06-16_10h11.38.274,phx_ver10,2022.2.5,Win32,59.86948452,,,,,,,,,,,,57,testing_3,zh2j,au,zh2j_au,zh2j_1_auzhau.wav,zh2j_1_auzhau.wav,,TRUE,FALSE,,,,,,,,,,,,,,f,0.0019,space,0.3282,,,,,,,,0,10,10,56,1,,
57754d57ca706f000190eaf1,2023-06-16_10h11.38.274,phx_ver10,2022.2.5,Win32,59.86948452,,,,,,,,,,,,78,testing_3,j2x,ai,j2x_ai,j2x_8_aixai.wav,j2x_8_aixai.wav,,TRUE,FALSE,,,,,,,,,,,,,,f,0.387,space,0.6157,,,,,,,,0,11,11,77,1,,
57754d57ca706f000190eaf1,2023-06-16_10h11.38.274,phx_ver10,2022.2.5,Win32,59.86948452,,,,,,,,,,,,56,testing_3,zh2j,ai,zh2j_ai,zh2j_8_aijai.wav,zh2j_1_aizhai.wav,,FALSE,FALSE,,,,,,,,,,,,,,f,0.0405,space,0.3745,,,,,,,,0,12,12,55,1,,
57754d57ca706f000190eaf1,2023-06-16_10h11.38.274,phx_ver10,2022.2.5,Win32,59.86948452,,,,,,,,,,,,87,testing_3,j2x,e,j2x_e,j2x_1_eje.wav,j2x_8_exe.wav,,FALSE,FALSE,,,,,,,,,,,,,,f,0.4263,space,0.843,,,,,,,,0,13,13,86,1,,
57754d57ca706f000190eaf1,2023-06-16_10h11.38.274,phx_ver10,2022.2.5,Win32,59.86948452,,,,,,,,,,,,33,testing_3,zh2sh,au,zh2sh_au,zh2sh_1_auzhau.wav,zh2sh_1_auzhau.wav,,TRUE,FALSE,,,,,,,,,,,,,,f,0.4342,space,0.7053,,,,,,,,0,14,14,32,1,,
57754d57ca706f000190eaf1,2023-06-16_10h11.38.274,phx_ver10,2022.2.5,Win32,59.86948452,,,,,,,,,,,,96,testing_3,j2x,i,j2x_i,j2x_8_ixi.wav,j2x_1_iji.wav,,FALSE,FALSE,,,,,,,,,,,,,,j,0.001,space,0.3835,,,,,,,,0,15,15,95,1,,
57754d57ca706f000190eaf1,2023-06-16_10h11.38.274,phx_ver10,2022.2.5,Win32,59.86948452,,,,,,,,,,,,66,testing_3,zh2j,ei,zh2j_ei,zh2j_8_eijei.wav,zh2j_8_eijei.wav,,TRUE,FALSE,,,,,,,,,,,,,,f,0.7183,space,1.0025,,,,,,,,0,16,16,65,1,,
57754d57ca706f000190eaf1,2023-06-16_10h11.38.274,phx_ver10,2022.2.5,Win32,59.86948452,,,,,,,,,,,,132,testing_3,sh2j,au,sh2j_au,sh2j_8_aujau.wav,sh2j_1_aushau.wav,,FALSE,FALSE,,,,,,,,,,,,,,j,0.0358,space,0.3341,,,,,,,,0,17,17,131,1,,
57754d57ca706f000190eaf1,2023-06-16_10h11.38.274,phx_ver10,2022.2.5,Win32,59.86948452,,,,,,,,,,,,115,testing_3,sh2x,ei,sh2x_ei,sh2x_1_eishei.wav,sh2x_8_eixei.wav,,FALSE,FALSE,,,,,,,,,,,,,,f,0.3479,space,0.5561,,,,,,,,0,18,18,114,1,,
57754d57ca706f000190eaf1,2023-06-16_10h11.38.274,phx_ver10,2022.2.5,Win32,59.86948452,,,,,,,,,,,,36,testing_3,zh2sh,au,zh2sh_au,zh2sh_8_aushau.wav,zh2sh_1_auzhau.wav,,FALSE,FALSE,,,,,,,,,,,,,,j,0.1283,space,0.435,,,,,,,,0,19,19,35,1,,
57754d57ca706f000190eaf1,2023-06-16_10h11.38.274,phx_ver10,2022.2.5,Win32,59.86948452,,,,,,,,,,,,7,testing_1,zh2x,e,zh2x_e,zh2x_1_ezhe.wav,zh2x_8_exe.wav,,FALSE,TRUE,,,,,,,,,,,,,,j,0.2809,space,0.5788,,,,,,,,0,20,20,6,1,,
57754d57ca706f000190eaf1,2023-06-16_10h11.38.274,phx_ver10,2022.2.5,Win32,59.86948452,,,,,,,,,,,,31,testing_3,zh2sh,ai,zh2sh_ai,zh2sh_1_aizhai.wav,zh2sh_8_aishai.wav,,FALSE,FALSE,,,,,,,,,,,,,,j,0.1591,space,0.4189,,,,,,,,0,21,21,30,1,,
57754d57ca706f000190eaf1,2023-06-16_10h11.38.274,phx_ver10,2022.2.5,Win32,59.86948452,,,,,,,,,,,,2,testing_1,zh2x,a,zh2x_a,zh2x_8_axa.wav,zh2x_8_axa_copy.wav,,TRUE,TRUE,,,,,,,,,,,,,,f,0.4069,space,0.7406,,,,,,,,0,22,22,1,1,,
57754d57ca706f000190eaf1,2023-06-16_10h11.38.274,phx_ver10,2022.2.5,Win32,59.86948452,,,,,,,,,,,,55,testing_3,zh2j,ai,zh2j_ai,zh2j_1_aizhai.wav,zh2j_8_aijai.wav,,FALSE,FALSE,,,,,,,,,,,,,,f,0.1267,space,0.5163,,,,,,,,0,23,23,54,1,,
57754d57ca706f000190eaf1,2023-06-16_10h11.38.274,phx_ver10,2022.2.5,Win32,59.86948452,,,,,,,,,,,,17,testing_2,zh2x,au,zh2x_au,zh2x_1_auzhau.wav,zh2x_1_auzhau.wav,,TRUE,FALSE,,,,,,,,,,,,,,f,0.0202,space,0.4013,,,,,,,,0,24,24,16,1,,
57754d57ca706f000190eaf1,2023-06-16_10h11.38.274,phx_ver10,2022.2.5,Win32,59.86948452,,,,,,,,,,,,95,testing_3,j2x,i,j2x_i,j2x_1_iji.wav,j2x_8_ixi.wav,,FALSE,FALSE,,,,,,,,,,,,,,j,0.9637,space,1.3448,,,,,,,,0,25,25,94,1,,
57754d57ca706f000190eaf1,2023-06-16_10h11.38.274,phx_ver10,2022.2.5,Win32,59.86948452,,,,,,,,,,,,88,testing_3,j2x,e,j2x_e,j2x_8_exe.wav,j2x_1_eje.wav,,FALSE,FALSE,,,,,,,,,,,,,,j,0.4672,space,1.1891,,,,,,,,0,26,26,87,1,,
57754d57ca706f000190eaf1,2023-06-16_10h11.38.274,phx_ver10,2022.2.5,Win32,59.86948452,,,,,,,,,,,,128,testing_3,sh2j,ai,sh2j_ai,sh2j_8_aijai.wav,sh2j_1_aishai.wav,,FALSE,FALSE,,,,,,,,,,,,,,j,0.0007,space,0.2501,,,,,,,,0,27,27,127,1,,
57754d57ca706f000190eaf1,2023-06-16_10h11.38.274,phx_ver10,2022.2.5,Win32,59.86948452,,,,,,,,,,,,14,testing_2,zh2x,ai,zh2x_ai,zh2x_8_aixai.wav,zh2x_8_aixai.wav,,TRUE,FALSE,,,,,,,,,,,,,,f,0.3633,space,0.6967,,,,,,,,0,28,28,13,1,,
57754d57ca706f000190eaf1,2023-06-16_10h11.38.274,phx_ver10,2022.2.5,Win32,59.86948452,,,,,,,,,,,,111,testing_3,sh2x,e,sh2x_e,sh2x_1_eshe.wav,sh2x_8_exe.wav,,FALSE,FALSE,,,,,,,,,,,,,,j,0.1845,space,0.4855,,,,,,,,0,29,29,110,1,,
57754d57ca706f000190eaf1,2023-06-16_10h11.38.274,phx_ver10,2022.2.5,Win32,59.86948452,,,,,,,,,,,,141,testing_3,sh2j,i,sh2j_i,sh2j_1_ishi.wav,sh2j_1_ishi.wav,,TRUE,FALSE,,,,,,,,,,,,,,f,0.0365,space,0.4511,,,,,,,,0,30,30,140,1,,
57754d57ca706f000190eaf1,2023-06-16_10h11.38.274,phx_ver10,2022.2.5,Win32,59.86948452,,,,,,,,,,,,94,testing_3,j2x,i,j2x_i,j2x_8_ixi.wav,j2x_8_ixi.wav,,TRUE,FALSE,,,,,,,,,,,,,,f,0.3176,space,0.6496,,,,,,,,0,31,31,93,1,,
57754d57ca706f000190eaf1,2023-06-16_10h11.38.274,phx_ver10,2022.2.5,Win32,59.86948452,,,,,,,,,,,,76,testing_3,j2x,a,j2x_a,j2x_8_axa.wav,j2x_1_aja.wav,,FALSE,FALSE,,,,,,,,,,,,,,j,0.3218,space,0.587,,,,,,,,0,32,32,75,1,,
57754d57ca706f000190eaf1,2023-06-16_10h11.38.274,phx_ver10,2022.2.5,Win32,59.86948452,,,,,,,,,,,,119,testing_3,sh2x,i,sh2x_i,sh2x_1_ishi.wav,sh2x_8_ixi.wav,,FALSE,FALSE,,,,,,,,,,,,,,f,0.0897,space,0.4995,,,,,,,,0,33,33,118,1,,
57754d57ca706f000190eaf1,2023-06-16_10h11.38.274,phx_ver10,2022.2.5,Win32,59.86948452,,,,,,,,,,,,30,testing_3,zh2sh,ai,zh2sh_ai,zh2sh_8_aishai.wav,zh2sh_8_aishai.wav,,TRUE,FALSE,,,,,,,,,,,,,,f,0.0009,space,0.3082,,,,,,,,0,34,34,29,1,,
57754d57ca706f000190eaf1,2023-06-16_10h11.38.274,phx_ver10,2022.2.5,Win32,59.86948452,,,,,,,,,,,,23,testing_2,zh2x,ei,zh2x_ei,zh2x_1_eizhei.wav,zh2x_8_eixei.wav,,FALSE,FALSE,,,,,,,,,,,,,,j,0.3169,space,0.6239,,,,,,,,0,35,35,22,1,,
57754d57ca706f000190eaf1,2023-06-16_10h11.38.274,phx_ver10,2022.2.5,Win32,59.86948452,,,,,,,,,,,,19,testing_2,zh2x,au,zh2x_au,zh2x_1_auzhau.wav,zh2x_8_auxau.wav,,FALSE,FALSE,,,,,,,,,,,,,,j,0.1004,space,0.4208,,,,,,,,0,36,36,18,1,,
57754d57ca706f000190eaf1,2023-06-16_10h11.38.274,phx_ver10,2022.2.5,Win32,59.86948452,,,,,,,,,,,,125,testing_3,sh2j,ai,sh2j_ai,sh2j_1_aishai.wav,sh2j_1_aishai.wav,,TRUE,FALSE,,,,,,,,,,,,,,f,0.3043,space,0.6892,,,,,,,,0,37,37,124,1,,
57754d57ca706f000190eaf1,2023-06-16_10h11.38.274,phx_ver10,2022.2.5,Win32,59.86948452,,,,,,,,,,,,54,testing_3,zh2j,ai,zh2j_ai,zh2j_8_aijai.wav,zh2j_8_aijai.wav,,TRUE,FALSE,,,,,,,,,,,,,,f,0.3489,space,0.6505,,,,,,,,0,38,38,53,1,,
57754d57ca706f000190eaf1,2023-06-16_10h11.38.274,phx_ver10,2022.2.5,Win32,59.86948452,,,,,,,,,,,,70,testing_3,zh2j,i,zh2j_i,zh2j_8_iji.wav,zh2j_8_iji.wav,,TRUE,FALSE,,,,,,,,,,,,,,f,0.0004,space,0.3665,,,,,,,,0,39,39,69,1,,
57754d57ca706f000190eaf1,2023-06-16_10h11.38.274,phx_ver10,2022.2.5,Win32,59.86948452,,,,,,,,,,,,68,testing_3,zh2j,ei,zh2j_ei,zh2j_8_eijei.wav,zh2j_1_eizhei.wav,,FALSE,FALSE,,,,,,,,,,,,,,f,0.5217,space,0.85,,,,,,,,0,40,40,67,1,,
57754d57ca706f000190eaf1,2023-06-16_10h11.38.274,phx_ver10,2022.2.5,Win32,59.86948452,,,,,,,,,,,,72,testing_3,zh2j,i,zh2j_i,zh2j_8_iji.wav,zh2j_1_izhi.wav,,FALSE,FALSE,,,,,,,,,,,,,,f,0.0969,space,0.4465,,,,,,,,0,41,41,71,1,,
57754d57ca706f000190eaf1,2023-06-16_10h11.38.274,phx_ver10,2022.2.5,Win32,59.86948452,,,,,,,,,,,,37,testing_3,zh2sh,e,zh2sh_e,zh2sh_1_ezhe.wav,zh2sh_1_ezhe.wav,,TRUE,FALSE,,,,,,,,,,,,,,f,0.0336,space,0.4276,,,,,,,,0,42,42,36,1,,
57754d57ca706f000190eaf1,2023-06-16_10h11.38.274,phx_ver10,2022.2.5,Win32,59.86948452,,,,,,,,,,,,18,testing_2,zh2x,au,zh2x_au,zh2x_8_auxau.wav,zh2x_8_auxau.wav,,TRUE,FALSE,,,,,,,,,,,,,,f,0.0333,space,0.5009,,,,,,,,0,43,43,17,1,,
57754d57ca706f000190eaf1,2023-06-16_10h11.38.274,phx_ver10,2022.2.5,Win32,59.86948452,,,,,,,,,,,,84,testing_3,j2x,au,j2x_au,j2x_8_auxau.wav,j2x_1_aujau.wav,,FALSE,FALSE,,,,,,,,,,,,,,f,0.0683,space,0.9492,,,,,,,,0,44,44,83,1,,
57754d57ca706f000190eaf1,2023-06-16_10h11.38.274,phx_ver10,2022.2.5,Win32,59.86948452,,,,,,,,,,,,75,testing_3,j2x,a,j2x_a,j2x_1_aja.wav,j2x_8_axa.wav,,FALSE,FALSE,,,,,,,,,,,,,,f,0.5006,space,0.8417,,,,,,,,0,45,45,74,1,,
57754d57ca706f000190eaf1,2023-06-16_10h11.38.274,phx_ver10,2022.2.5,Win32,59.86948452,,,,,,,,,,,,127,testing_3,sh2j,ai,sh2j_ai,sh2j_1_aishai.wav,sh2j_8_aijai.wav,,FALSE,FALSE,,,,,,,,,,,,,,j,0.5014,space,0.9003,,,,,,,,0,46,46,126,1,,
57754d57ca706f000190eaf1,2023-06-16_10h11.38.274,phx_ver10,2022.2.5,Win32,59.86948452,,,,,,,,,,,,110,testing_3,sh2x,e,sh2x_e,sh2x_8_exe.wav,sh2x_8_exe.wav,,TRUE,FALSE,,,,,,,,,,,,,,f,0.4669,space,1.0996,,,,,,,,0,47,47,109,1,,
57754d57ca706f000190eaf1,2023-06-16_10h11.38.274,phx_ver10,2022.2.5,Win32,59.86948452,,,,,,,,,,,,73,testing_3,j2x,a,j2x_a,j2x_1_aja.wav,j2x_1_aja.wav,,TRUE,FALSE,,,,,,,,,,,,,,f,0.1503,space,0.567,,,,,,,,0,48,48,72,1,,
57754d57ca706f000190eaf1,2023-06-16_10h11.38.274,phx_ver10,2022.2.5,Win32,59.86948452,,,,,,,,,,,,85,testing_3,j2x,e,j2x_e,j2x_1_eje.wav,j2x_1_eje.wav,,TRUE,FALSE,,,,,,,,,,,,,,f,0.151,space,0.7842,,,,,,,,0,49,49,84,1,,
57754d57ca706f000190eaf1,2023-06-16_10h11.38.274,phx_ver10,2022.2.5,Win32,59.86948452,,,,,,,,,,,,50,testing_3,zh2j,a,zh2j_a,zh2j_8_aja.wav,zh2j_8_aja.wav,,TRUE,FALSE,,,,,,,,,,,,,,f,0.2347,space,0.6007,,,,,,,,0,50,50,49,1,,
57754d57ca706f000190eaf1,2023-06-16_10h11.38.274,phx_ver10,2022.2.5,Win32,59.86948452,,,,,,,,,,,,103,testing_3,sh2x,ai,sh2x_ai,sh2x_1_aishai.wav,sh2x_8_aixai.wav,,FALSE,FALSE,,,,,,,,,,,,,,f,0.2635,space,1.1796,,,,,,,,0,51,51,102,1,,
57754d57ca706f000190eaf1,2023-06-16_10h11.38.274,phx_ver10,2022.2.5,Win32,59.86948452,,,,,,,,,,,,20,testing_2,zh2x,au,zh2x_au,zh2x_8_auxau.wav,zh2x_1_auzhau.wav,,FALSE,FALSE,,,,,,,,,,,,,,j,0.2008,space,0.5999,,,,,,,,0,52,52,19,1,,
57754d57ca706f000190eaf1,2023-06-16_10h11.38.274,phx_ver10,2022.2.5,Win32,59.86948452,,,,,,,,,,,,40,testing_3,zh2sh,e,zh2sh_e,zh2sh_8_eshe.wav,zh2sh_1_ezhe.wav,,FALSE,FALSE,,,,,,,,,,,,,,f,0.5905,space,1.1888,,,,,,,,0,53,53,39,1,,
57754d57ca706f000190eaf1,2023-06-16_10h11.38.274,phx_ver10,2022.2.5,Win32,59.86948452,,,,,,,,,,,,60,testing_3,zh2j,au,zh2j_au,zh2j_8_aujau.wav,zh2j_1_auzhau.wav,,FALSE,FALSE,,,,,,,,,,,,,,f,0.5356,space,1.434,,,,,,,,0,54,54,59,1,,
57754d57ca706f000190eaf1,2023-06-16_10h11.38.274,phx_ver10,2022.2.5,Win32,59.86948452,,,,,,,,,,,,83,testing_3,j2x,au,j2x_au,j2x_1_aujau.wav,j2x_8_auxau.wav,,FALSE,FALSE,,,,,,,,,,,,,,j,0.4167,space,0.9668,,,,,,,,0,55,55,82,1,,
57754d57ca706f000190eaf1,2023-06-16_10h11.38.274,phx_ver10,2022.2.5,Win32,59.86948452,,,,,,,,,,,,29,testing_3,zh2sh,ai,zh2sh_ai,zh2sh_1_aizhai.wav,zh2sh_1_aizhai.wav,,TRUE,FALSE,,,,,,,,,,,,,,f,0.0688,space,0.4418,,,,,,,,0,56,56,28,1,,
57754d57ca706f000190eaf1,2023-06-16_10h11.38.274,phx_ver10,2022.2.5,Win32,59.86948452,,,,,,,,,,,,80,testing_3,j2x,ai,j2x_ai,j2x_8_aixai.wav,j2x_1_aijai.wav,,FALSE,FALSE,,,,,,,,,,,,,,f,0.2999,space,0.655,,,,,,,,0,57,57,79,1,,
57754d57ca706f000190eaf1,2023-06-16_10h11.38.274,phx_ver10,2022.2.5,Win32,59.86948452,,,,,,,,,,,,12,testing_1,zh2x,i,zh2x_i,zh2x_8_ixi.wav,zh2x_1_izhi.wav,,FALSE,TRUE,,,,,,,,,,,,,,f,0.3838,space,0.6826,,,,,,,,0,58,58,11,1,,
57754d57ca706f000190eaf1,2023-06-16_10h11.38.274,phx_ver10,2022.2.5,Win32,59.86948452,,,,,,,,,,,,129,testing_3,sh2j,au,sh2j_au,sh2j_1_aushau.wav,sh2j_1_aushau.wav,,TRUE,FALSE,,,,,,,,,,,,,,f,0.0191,space,0.3527,,,,,,,,0,59,59,128,1,,
57754d57ca706f000190eaf1,2023-06-16_10h11.38.274,phx_ver10,2022.2.5,Win32,59.86948452,,,,,,,,,,,,39,testing_3,zh2sh,e,zh2sh_e,zh2sh_1_ezhe.wav,zh2sh_8_eshe.wav,,FALSE,FALSE,,,,,,,,,,,,,,f,0.1888,space,0.5506,,,,,,,,0,60,60,38,1,,
57754d57ca706f000190eaf1,2023-06-16_10h11.38.274,phx_ver10,2022.2.5,Win32,59.86948452,,,,,,,,,,,,64,testing_3,zh2j,e,zh2j_e,zh2j_8_eje.wav,zh2j_1_ezhe.wav,,FALSE,FALSE,,,,,,,,,,,,,,f,0.3339,space,0.6498,,,,,,,,0,61,61,63,1,,
57754d57ca706f000190eaf1,2023-06-16_10h11.38.274,phx_ver10,2022.2.5,Win32,59.86948452,,,,,,,,,,,,26,testing_3,zh2sh,a,zh2sh_a,zh2sh_8_asha.wav,zh2sh_8_asha.wav,,TRUE,FALSE,,,,,,,,,,,,,,f,0.2846,space,1.4843,,,,,,,,0,62,62,25,1,,
57754d57ca706f000190eaf1,2023-06-16_10h11.38.274,phx_ver10,2022.2.5,Win32,59.86948452,,,,,,,,,,,,5,testing_1,zh2x,e,zh2x_e,zh2x_1_ezhe.wav,zh2x_1_ezhe_copy.wav,,TRUE,TRUE,,,,,,,,,,,,,,f,0.5178,space,0.8012,,,,,,,,0,63,63,4,1,,
57754d57ca706f000190eaf1,2023-06-16_10h11.38.274,phx_ver10,2022.2.5,Win32,59.86948452,,,,,,,,,,,,61,testing_3,zh2j,e,zh2j_e,zh2j_1_ezhe.wav,zh2j_1_ezhe.wav,,TRUE,FALSE,,,,,,,,,,,,,,f,0.0844,space,0.409,,,,,,,,0,64,64,60,1,,
57754d57ca706f000190eaf1,2023-06-16_10h11.38.274,phx_ver10,2022.2.5,Win32,59.86948452,,,,,,,,,,,,24,testing_2,zh2x,ei,zh2x_ei,zh2x_8_eixei.wav,zh2x_1_eizhei.wav,,FALSE,FALSE,,,,,,,,,,,,,,j,0.3677,space,0.6838,,,,,,,,0,65,65,23,1,,
57754d57ca706f000190eaf1,2023-06-16_10h11.38.274,phx_ver10,2022.2.5,Win32,59.86948452,,,,,,,,,,,,140,testing_3,sh2j,ei,sh2j_ei,sh2j_8_eijei.wav,sh2j_1_eishei.wav,,FALSE,FALSE,,,,,,,,,,,,,,j,0.1057,space,0.4003,,,,,,,,0,66,66,139,1,,
57754d57ca706f000190eaf1,2023-06-16_10h11.38.274,phx_ver10,2022.2.5,Win32,59.86948452,,,,,,,,,,,,136,testing_3,sh2j,e,sh2j_e,sh2j_8_eje.wav,sh2j_1_eshe.wav,,FALSE,FALSE,,,,,,,,,,,,,,j,0.1674,space,0.4832,,,,,,,,0,67,67,135,1,,
57754d57ca706f000190eaf1,2023-06-16_10h11.38.274,phx_ver10,2022.2.5,Win32,59.86948452,,,,,,,,,,,,138,testing_3,sh2j,ei,sh2j_ei,sh2j_8_eijei.wav,sh2j_8_eijei.wav,,TRUE,FALSE,,,,,,,,,,,,,,f,0.1673,space,0.7997,,,,,,,,0,68,68,137,1,,
57754d57ca706f000190eaf1,2023-06-16_10h11.38.274,phx_ver10,2022.2.5,Win32,59.86948452,,,,,,,,,,,,112,testing_3,sh2x,e,sh2x_e,sh2x_8_exe.wav,sh2x_1_eshe.wav,,FALSE,FALSE,,,,,,,,,,,,,,j,0.051,space,0.3845,,,,,,,,0,69,69,111,1,,
57754d57ca706f000190eaf1,2023-06-16_10h11.38.274,phx_ver10,2022.2.5,Win32,59.86948452,,,,,,,,,,,,139,testing_3,sh2j,ei,sh2j_ei,sh2j_1_eishei.wav,sh2j_8_eijei.wav,,FALSE,FALSE,,,,,,,,,,,,,,j,0.9838,space,1.2669,,,,,,,,0,70,70,138,1,,
57754d57ca706f000190eaf1,2023-06-16_10h11.38.274,phx_ver10,2022.2.5,Win32,59.86948452,,,,,,,,,,,,3,testing_1,zh2x,a,zh2x_a,zh2x_1_azha.wav,zh2x_8_axa.wav,,FALSE,TRUE,,,,,,,,,,,,,,j,0.302,space,0.6262,,,,,,,,0,71,71,2,1,,
57754d57ca706f000190eaf1,2023-06-16_10h11.38.274,phx_ver10,2022.2.5,Win32,59.86948452,,,,,,,,,,,,65,testing_3,zh2j,ei,zh2j_ei,zh2j_1_eizhei.wav,zh2j_1_eizhei.wav,,TRUE,FALSE,,,,,,,,,,,,,,f,0.2672,space,0.5504,,,,,,,,0,72,72,64,1,,
57754d57ca706f000190eaf1,2023-06-16_10h11.38.274,phx_ver10,2022.2.5,Win32,59.86948452,,,,,,,,,,,,45,testing_3,zh2sh,i,zh2sh_i,zh2sh_1_izhi.wav,zh2sh_1_izhi.wav,,TRUE,FALSE,,,,,,,,,,,,,,f,0.0332,space,0.6567,,,,,,,,0,73,73,44,1,,
57754d57ca706f000190eaf1,2023-06-16_10h11.38.274,phx_ver10,2022.2.5,Win32,59.86948452,,,,,,,,,,,,35,testing_3,zh2sh,au,zh2sh_au,zh2sh_1_auzhau.wav,zh2sh_8_aushau.wav,,FALSE,FALSE,,,,,,,,,,,,,,j,0.0853,space,0.3765,,,,,,,,0,74,74,34,1,,
57754d57ca706f000190eaf1,2023-06-16_10h11.38.274,phx_ver10,2022.2.5,Win32,59.86948452,,,,,,,,,,,,97,testing_3,sh2x,a,sh2x_a,sh2x_1_asha.wav,sh2x_1_asha.wav,,TRUE,FALSE,,,,,,,,,,,,,,f,0.2672,space,0.7179,,,,,,,,0,75,75,96,1,,
57754d57ca706f000190eaf1,2023-06-16_10h11.38.274,phx_ver10,2022.2.5,Win32,59.86948452,,,,,,,,,,,,69,testing_3,zh2j,i,zh2j_i,zh2j_1_izhi.wav,zh2j_1_izhi.wav,,TRUE,FALSE,,,,,,,,,,,,,,f,0.1914,space,0.502,,,,,,,,0,76,76,68,1,,
57754d57ca706f000190eaf1,2023-06-16_10h11.38.274,phx_ver10,2022.2.5,Win32,59.86948452,,,,,,,,,,,,98,testing_3,sh2x,a,sh2x_a,sh2x_8_axa.wav,sh2x_8_axa.wav,,TRUE,FALSE,,,,,,,,,,,,,,f,0.0349,space,0.4007,,,,,,,,0,77,77,97,1,,
57754d57ca706f000190eaf1,2023-06-16_10h11.38.274,phx_ver10,2022.2.5,Win32,59.86948452,,,,,,,,,,,,41,testing_3,zh2sh,ei,zh2sh_ei,zh2sh_1_eizhei.wav,zh2sh_1_eizhei.wav,,TRUE,FALSE,,,,,,,,,,,,,,f,0.0644,space,0.3834,,,,,,,,0,78,78,40,1,,
57754d57ca706f000190eaf1,2023-06-16_10h11.38.274,phx_ver10,2022.2.5,Win32,59.86948452,,,,,,,,,,,,102,testing_3,sh2x,ai,sh2x_ai,sh2x_8_aixai.wav,sh2x_8_aixai.wav,,TRUE,FALSE,,,,,,,,,,,,,,f,0.8535,space,1.165,,,,,,,,0,79,79,101,1,,
57754d57ca706f000190eaf1,2023-06-16_10h11.38.274,phx_ver10,2022.2.5,Win32,59.86948452,,,,,,,,,,,,93,testing_3,j2x,i,j2x_i,j2x_1_iji.wav,j2x_1_iji.wav,,TRUE,FALSE,,,,,,,,,,,,,,f,0.3368,space,0.6189,,,,,,,,0,80,80,92,1,,
57754d57ca706f000190eaf1,2023-06-16_10h11.38.274,phx_ver10,2022.2.5,Win32,59.86948452,,,,,,,,,,,,114,testing_3,sh2x,ei,sh2x_ei,sh2x_8_eixei.wav,sh2x_8_eixei.wav,,TRUE,FALSE,,,,,,,,,,,,,,f,0.0344,space,0.501,,,,,,,,0,81,81,113,1,,
57754d57ca706f000190eaf1,2023-06-16_10h11.38.274,phx_ver10,2022.2.5,Win32,59.86948452,,,,,,,,,,,,130,testing_3,sh2j,au,sh2j_au,sh2j_8_aujau.wav,sh2j_8_aujau.wav,,TRUE,FALSE,,,,,,,,,,,,,,f,0.3268,space,0.6508,,,,,,,,0,82,82,129,1,,
57754d57ca706f000190eaf1,2023-06-16_10h11.38.274,phx_ver10,2022.2.5,Win32,59.86948452,,,,,,,,,,,,49,testing_3,zh2j,a,zh2j_a,zh2j_1_azha.wav,zh2j_1_azha.wav,,TRUE,FALSE,,,,,,,,,,,,,,f,0.0556,space,0.4,,,,,,,,0,83,83,48,1,,
57754d57ca706f000190eaf1,2023-06-16_10h11.38.274,phx_ver10,2022.2.5,Win32,59.86948452,,,,,,,,,,,,92,testing_3,j2x,ei,j2x_ei,j2x_8_eixei.wav,j2x_1_eijei.wav,,FALSE,FALSE,,,,,,,,,,,,,,j,0.2008,space,0.5507,,,,,,,,0,84,84,91,1,,
57754d57ca706f000190eaf1,2023-06-16_10h11.38.274,phx_ver10,2022.2.5,Win32,59.86948452,,,,,,,,,,,,117,testing_3,sh2x,i,sh2x_i,sh2x_1_ishi.wav,sh2x_1_ishi.wav,,TRUE,FALSE,,,,,,,,,,,,,,f,0.055,space,0.4002,,,,,,,,0,85,85,116,1,,
57754d57ca706f000190eaf1,2023-06-16_10h11.38.274,phx_ver10,2022.2.5,Win32,59.86948452,,,,,,,,,,,,46,testing_3,zh2sh,i,zh2sh_i,zh2sh_8_ishi.wav,zh2sh_8_ishi.wav,,TRUE,FALSE,,,,,,,,,,,,,,f,0.2035,space,0.4685,,,,,,,,0,86,86,45,1,,
57754d57ca706f000190eaf1,2023-06-16_10h11.38.274,phx_ver10,2022.2.5,Win32,59.86948452,,,,,,,,,,,,118,testing_3,sh2x,i,sh2x_i,sh2x_8_ixi.wav,sh2x_8_ixi.wav,,TRUE,FALSE,,,,,,,,,,,,,,f,0.2898,space,0.5412,,,,,,,,0,87,87,117,1,,
57754d57ca706f000190eaf1,2023-06-16_10h11.38.274,phx_ver10,2022.2.5,Win32,59.86948452,,,,,,,,,,,,8,testing_1,zh2x,e,zh2x_e,zh2x_8_exe.wav,zh2x_1_ezhe.wav,,FALSE,TRUE,,,,,,,,,,,,,,j,0.1537,space,0.5739,,,,,,,,0,88,88,7,1,,
57754d57ca706f000190eaf1,2023-06-16_10h11.38.274,phx_ver10,2022.2.5,Win32,59.86948452,,,,,,,,,,,,1,testing_1,zh2x,a,zh2x_a,zh2x_1_azha.wav,zh2x_1_azha_copy.wav,,TRUE,TRUE,,,,,,,,,,,,,,f,0.2177,space,0.5056,,,,,,,,0,89,89,0,1,,
57754d57ca706f000190eaf1,2023-06-16_10h11.38.274,phx_ver10,2022.2.5,Win32,59.86948452,,,,,,,,,,,,34,testing_3,zh2sh,au,zh2sh_au,zh2sh_8_aushau.wav,zh2sh_8_aushau.wav,,TRUE,FALSE,,,,,,,,,,,,,,f,0.1192,space,0.4169,,,,,,,,0,90,90,33,1,,
57754d57ca706f000190eaf1,2023-06-16_10h11.38.274,phx_ver10,2022.2.5,Win32,59.86948452,,,,,,,,,,,,100,testing_3,sh2x,a,sh2x_a,sh2x_8_axa.wav,sh2x_1_asha.wav,,FALSE,FALSE,,,,,,,,,,,,,,f,0.0025,space,0.3177,,,,,,,,0,91,91,99,1,,
57754d57ca706f000190eaf1,2023-06-16_10h11.38.274,phx_ver10,2022.2.5,Win32,59.86948452,,,,,,,,,,,,131,testing_3,sh2j,au,sh2j_au,sh2j_1_aushau.wav,sh2j_8_aujau.wav,,FALSE,FALSE,,,,,,,,,,,,,,j,0.015,space,0.3389,,,,,,,,0,92,92,130,1,,
57754d57ca706f000190eaf1,2023-06-16_10h11.38.274,phx_ver10,2022.2.5,Win32,59.86948452,,,,,,,,,,,,43,testing_3,zh2sh,ei,zh2sh_ei,zh2sh_1_eizhei.wav,zh2sh_8_eishei.wav,,FALSE,FALSE,,,,,,,,,,,,,,j,0.4027,space,0.6442,,,,,,,,0,93,93,42,1,,
57754d57ca706f000190eaf1,2023-06-16_10h11.38.274,phx_ver10,2022.2.5,Win32,59.86948452,,,,,,,,,,,,126,testing_3,sh2j,ai,sh2j_ai,sh2j_8_aijai.wav,sh2j_8_aijai.wav,,TRUE,FALSE,,,,,,,,,,,,,,f,0.0991,space,0.4262,,,,,,,,0,94,94,125,1,,
57754d57ca706f000190eaf1,2023-06-16_10h11.38.274,phx_ver10,2022.2.5,Win32,59.86948452,,,,,,,,,,,,124,testing_3,sh2j,a,sh2j_a,sh2j_8_aja.wav,sh2j_1_asha.wav,,FALSE,FALSE,,,,,,,,,,,,,,j,0.4371,space,0.7257,,,,,,,,0,95,95,123,1,,
57754d57ca706f000190eaf1,2023-06-16_10h11.38.274,phx_ver10,2022.2.5,Win32,59.86948452,,,,,,,,,,,,11,testing_1,zh2x,i,zh2x_i,zh2x_1_izhi.wav,zh2x_8_ixi.wav,,FALSE,TRUE,,,,,,,,,,,,,,j,0.2665,space,0.4676,,,,,,,,0,96,96,10,1,,
57754d57ca706f000190eaf1,2023-06-16_10h11.38.274,phx_ver10,2022.2.5,Win32,59.86948452,,,,,,,,,,,,6,testing_1,zh2x,e,zh2x_e,zh2x_8_exe.wav,zh2x_8_exe_copy.wav,,TRUE,TRUE,,,,,,,,,,,,,,f,0.4269,space,0.693,,,,,,,,0,97,97,5,1,,
57754d57ca706f000190eaf1,2023-06-16_10h11.38.274,phx_ver10,2022.2.5,Win32,59.86948452,,,,,,,,,,,,101,testing_3,sh2x,ai,sh2x_ai,sh2x_1_aishai.wav,sh2x_1_aishai.wav,,TRUE,FALSE,,,,,,,,,,,,,,f,0.0819,space,0.4069,,,,,,,,0,98,98,100,1,,
57754d57ca706f000190eaf1,2023-06-16_10h11.38.274,phx_ver10,2022.2.5,Win32,59.86948452,,,,,,,,,,,,79,testing_3,j2x,ai,j2x_ai,j2x_1_aijai.wav,j2x_8_aixai.wav,,FALSE,FALSE,,,,,,,,,,,,,,j,0.3551,space,0.5918,,,,,,,,0,99,99,78,1,,
57754d57ca706f000190eaf1,2023-06-16_10h11.38.274,phx_ver10,2022.2.5,Win32,59.86948452,,,,,,,,,,,,38,testing_3,zh2sh,e,zh2sh_e,zh2sh_8_eshe.wav,zh2sh_8_eshe.wav,,TRUE,FALSE,,,,,,,,,,,,,,f,0.2069,space,0.4817,,,,,,,,0,100,100,37,1,,
57754d57ca706f000190eaf1,2023-06-16_10h11.38.274,phx_ver10,2022.2.5,Win32,59.86948452,,,,,,,,,,,,22,testing_2,zh2x,ei,zh2x_ei,zh2x_8_eixei.wav,zh2x_8_eixei.wav,,TRUE,FALSE,,,,,,,,,,,,,,f,0.3515,space,0.6339,,,,,,,,0,101,101,21,1,,
57754d57ca706f000190eaf1,2023-06-16_10h11.38.274,phx_ver10,2022.2.5,Win32,59.86948452,,,,,,,,,,,,58,testing_3,zh2j,au,zh2j_au,zh2j_8_aujau.wav,zh2j_8_aujau.wav,,TRUE,FALSE,,,,,,,,,,,,,,f,0.177,space,0.4837,,,,,,,,0,102,102,57,1,,
57754d57ca706f000190eaf1,2023-06-16_10h11.38.274,phx_ver10,2022.2.5,Win32,59.86948452,,,,,,,,,,,,90,testing_3,j2x,ei,j2x_ei,j2x_8_eixei.wav,j2x_8_eixei.wav,,TRUE,FALSE,,,,,,,,,,,,,,f,0.3056,space,0.6161,,,,,,,,0,103,103,89,1,,
57754d57ca706f000190eaf1,2023-06-16_10h11.38.274,phx_ver10,2022.2.5,Win32,59.86948452,,,,,,,,,,,,82,testing_3,j2x,au,j2x_au,j2x_8_auxau.wav,j2x_8_auxau.wav,,TRUE,FALSE,,,,,,,,,,,,,,f,0.0565,space,0.4591,,,,,,,,0,104,104,81,1,,
57754d57ca706f000190eaf1,2023-06-16_10h11.38.274,phx_ver10,2022.2.5,Win32,59.86948452,,,,,,,,,,,,42,testing_3,zh2sh,ei,zh2sh_ei,zh2sh_8_eishei.wav,zh2sh_8_eishei.wav,,TRUE,FALSE,,,,,,,,,,,,,,f,0.3501,space,0.6214,,,,,,,,0,105,105,41,1,,
57754d57ca706f000190eaf1,2023-06-16_10h11.38.274,phx_ver10,2022.2.5,Win32,59.86948452,,,,,,,,,,,,44,testing_3,zh2sh,ei,zh2sh_ei,zh2sh_8_eishei.wav,zh2sh_1_eizhei.wav,,FALSE,FALSE,,,,,,,,,,,,,,j,0.2648,space,0.5488,,,,,,,,0,106,106,43,1,,
57754d57ca706f000190eaf1,2023-06-16_10h11.38.274,phx_ver10,2022.2.5,Win32,59.86948452,,,,,,,,,,,,86,testing_3,j2x,e,j2x_e,j2x_8_exe.wav,j2x_8_exe.wav,,TRUE,FALSE,,,,,,,,,,,,,,f,0.3069,space,0.6256,,,,,,,,0,107,107,85,1,,
57754d57ca706f000190eaf1,2023-06-16_10h11.38.274,phx_ver10,2022.2.5,Win32,59.86948452,,,,,,,,,,,,135,testing_3,sh2j,e,sh2j_e,sh2j_1_eshe.wav,sh2j_8_eje.wav,,FALSE,FALSE,,,,,,,,,,,,,,j,0.0009,space,0.349,,,,,,,,0,108,108,134,1,,
57754d57ca706f000190eaf1,2023-06-16_10h11.38.274,phx_ver10,2022.2.5,Win32,59.86948452,,,,,,,,,,,,104,testing_3,sh2x,ai,sh2x_ai,sh2x_8_aixai.wav,sh2x_1_aishai.wav,,FALSE,FALSE,,,,,,,,,,,,,,f,0.059,space,0.4255,,,,,,,,0,109,109,103,1,,
57754d57ca706f000190eaf1,2023-06-16_10h11.38.274,phx_ver10,2022.2.5,Win32,59.86948452,,,,,,,,,,,,81,testing_3,j2x,au,j2x_au,j2x_1_aujau.wav,j2x_1_aujau.wav,,TRUE,FALSE,,,,,,,,,,,,,,f,0.3216,space,0.5717,,,,,,,,0,110,110,80,1,,
57754d57ca706f000190eaf1,2023-06-16_10h11.38.274,phx_ver10,2022.2.5,Win32,59.86948452,,,,,,,,,,,,105,testing_3,sh2x,au,sh2x_au,sh2x_1_aushau.wav,sh2x_1_aushau.wav,,TRUE,FALSE,,,,,,,,,,,,,,f,0.0329,space,0.4172,,,,,,,,0,111,111,104,1,,
57754d57ca706f000190eaf1,2023-06-16_10h11.38.274,phx_ver10,2022.2.5,Win32,59.86948452,,,,,,,,,,,,25,testing_3,zh2sh,a,zh2sh_a,zh2sh_1_azha.wav,zh2sh_1_azha.wav,,TRUE,FALSE,,,,,,,,,,,,,,f,0.4258,space,0.6998,,,,,,,,0,112,112,24,1,,
57754d57ca706f000190eaf1,2023-06-16_10h11.38.274,phx_ver10,2022.2.5,Win32,59.86948452,,,,,,,,,,,,107,testing_3,sh2x,au,sh2x_au,sh2x_1_aushau.wav,sh2x_8_auxau.wav,,FALSE,FALSE,,,,,,,,,,,,,,f,0.2245,space,0.4822,,,,,,,,0,113,113,106,1,,
57754d57ca706f000190eaf1,2023-06-16_10h11.38.274,phx_ver10,2022.2.5,Win32,59.86948452,,,,,,,,,,,,59,testing_3,zh2j,au,zh2j_au,zh2j_1_auzhau.wav,zh2j_8_aujau.wav,,FALSE,FALSE,,,,,,,,,,,,,,f,0.0419,space,0.3672,,,,,,,,0,114,114,58,1,,
57754d57ca706f000190eaf1,2023-06-16_10h11.38.274,phx_ver10,2022.2.5,Win32,59.86948452,,,,,,,,,,,,67,testing_3,zh2j,ei,zh2j_ei,zh2j_1_eizhei.wav,zh2j_8_eijei.wav,,FALSE,FALSE,,,,,,,,,,,,,,f,0.1681,space,0.4569,,,,,,,,0,115,115,66,1,,
57754d57ca706f000190eaf1,2023-06-16_10h11.38.274,phx_ver10,2022.2.5,Win32,59.86948452,,,,,,,,,,,,121,testing_3,sh2j,a,sh2j_a,sh2j_1_asha.wav,sh2j_1_asha.wav,,TRUE,FALSE,,,,,,,,,,,,,,f,0.1571,space,0.4176,,,,,,,,0,116,116,120,1,,
57754d57ca706f000190eaf1,2023-06-16_10h11.38.274,phx_ver10,2022.2.5,Win32,59.86948452,,,,,,,,,,,,74,testing_3,j2x,a,j2x_a,j2x_8_axa.wav,j2x_8_axa.wav,,TRUE,FALSE,,,,,,,,,,,,,,f,0.4495,space,0.709,,,,,,,,0,117,117,73,1,,
57754d57ca706f000190eaf1,2023-06-16_10h11.38.274,phx_ver10,2022.2.5,Win32,59.86948452,,,,,,,,,,,,137,testing_3,sh2j,ei,sh2j_ei,sh2j_1_eishei.wav,sh2j_1_eishei.wav,,TRUE,FALSE,,,,,,,,,,,,,,f,0.0694,space,0.4026,,,,,,,,0,118,118,136,1,,
57754d57ca706f000190eaf1,2023-06-16_10h11.38.274,phx_ver10,2022.2.5,Win32,59.86948452,,,,,,,,,,,,120,testing_3,sh2x,i,sh2x_i,sh2x_8_ixi.wav,sh2x_1_ishi.wav,,FALSE,FALSE,,,,,,,,,,,,,,f,0.1655,space,0.4814,,,,,,,,0,119,119,119,1,,
57754d57ca706f000190eaf1,2023-06-16_10h11.38.274,phx_ver10,2022.2.5,Win32,59.86948452,,,,,,,,,,,,116,testing_3,sh2x,ei,sh2x_ei,sh2x_8_eixei.wav,sh2x_1_eishei.wav,,FALSE,FALSE,,,,,,,,,,,,,,f,0.3248,space,0.5325,,,,,,,,0,120,120,115,1,,
57754d57ca706f000190eaf1,2023-06-16_10h11.38.274,phx_ver10,2022.2.5,Win32,59.86948452,,,,,,,,,,,,10,testing_1,zh2x,i,zh2x_i,zh2x_8_ixi.wav,zh2x_8_ixi_copy.wav,,TRUE,TRUE,,,,,,,,,,,,,,f,0.3356,space,0.649,,,,,,,,0,121,121,9,1,,
57754d57ca706f000190eaf1,2023-06-16_10h11.38.274,phx_ver10,2022.2.5,Win32,59.86948452,,,,,,,,,,,,108,testing_3,sh2x,au,sh2x_au,sh2x_8_auxau.wav,sh2x_1_aushau.wav,,FALSE,FALSE,,,,,,,,,,,,,,f,0.1419,space,0.4749,,,,,,,,0,122,122,107,1,,
57754d57ca706f000190eaf1,2023-06-16_10h11.38.274,phx_ver10,2022.2.5,Win32,59.86948452,,,,,,,,,,,,62,testing_3,zh2j,e,zh2j_e,zh2j_8_eje.wav,zh2j_8_eje.wav,,TRUE,FALSE,,,,,,,,,,,,,,f,0.339,space,0.6024,,,,,,,,0,123,123,61,1,,
57754d57ca706f000190eaf1,2023-06-16_10h11.38.274,phx_ver10,2022.2.5,Win32,59.86948452,,,,,,,,,,,,122,testing_3,sh2j,a,sh2j_a,sh2j_8_aja.wav,sh2j_8_aja.wav,,TRUE,FALSE,,,,,,,,,,,,,,f,0.0494,space,0.4179,,,,,,,,0,124,124,121,1,,
57754d57ca706f000190eaf1,2023-06-16_10h11.38.274,phx_ver10,2022.2.5,Win32,59.86948452,,,,,,,,,,,,27,testing_3,zh2sh,a,zh2sh_a,zh2sh_1_azha.wav,zh2sh_8_asha.wav,,FALSE,FALSE,,,,,,,,,,,,,,j,0.1822,space,0.4995,,,,,,,,0,125,125,26,1,,
57754d57ca706f000190eaf1,2023-06-16_10h11.38.274,phx_ver10,2022.2.5,Win32,59.86948452,,,,,,,,,,,,28,testing_3,zh2sh,a,zh2sh_a,zh2sh_8_asha.wav,zh2sh_1_azha.wav,,FALSE,FALSE,,,,,,,,,,,,,,f,0.3087,space,0.6011,,,,,,,,0,126,126,27,1,,
57754d57ca706f000190eaf1,2023-06-16_10h11.38.274,phx_ver10,2022.2.5,Win32,59.86948452,,,,,,,,,,,,123,testing_3,sh2j,a,sh2j_a,sh2j_1_asha.wav,sh2j_8_aja.wav,,FALSE,FALSE,,,,,,,,,,,,,,j,0.3363,space,0.5936,,,,,,,,0,127,127,122,1,,
57754d57ca706f000190eaf1,2023-06-16_10h11.38.274,phx_ver10,2022.2.5,Win32,59.86948452,,,,,,,,,,,,13,testing_2,zh2x,ai,zh2x_ai,zh2x_1_aizhai.wav,zh2x_1_aizhai.wav,,TRUE,FALSE,,,,,,,,,,,,,,f,0.2988,space,0.6384,,,,,,,,0,128,128,12,1,,
57754d57ca706f000190eaf1,2023-06-16_10h11.38.274,phx_ver10,2022.2.5,Win32,59.86948452,,,,,,,,,,,,32,testing_3,zh2sh,ai,zh2sh_ai,zh2sh_8_aishai.wav,zh2sh_1_aizhai.wav,,FALSE,FALSE,,,,,,,,,,,,,,j,0.0917,space,0.3871,,,,,,,,0,129,129,31,1,,
57754d57ca706f000190eaf1,2023-06-16_10h11.38.274,phx_ver10,2022.2.5,Win32,59.86948452,,,,,,,,,,,,4,testing_1,zh2x,a,zh2x_a,zh2x_8_axa.wav,zh2x_1_azha.wav,,FALSE,TRUE,,,,,,,,,,,,,,j,0.0008,space,0.2907,,,,,,,,0,130,130,3,1,,
57754d57ca706f000190eaf1,2023-06-16_10h11.38.274,phx_ver10,2022.2.5,Win32,59.86948452,,,,,,,,,,,,77,testing_3,j2x,ai,j2x_ai,j2x_1_aijai.wav,j2x_1_aijai.wav,,TRUE,FALSE,,,,,,,,,,,,,,f,0.1204,space,0.3983,,,,,,,,0,131,131,76,1,,
57754d57ca706f000190eaf1,2023-06-16_10h11.38.274,phx_ver10,2022.2.5,Win32,59.86948452,,,,,,,,,,,,47,testing_3,zh2sh,i,zh2sh_i,zh2sh_1_izhi.wav,zh2sh_8_ishi.wav,,FALSE,FALSE,,,,,,,,,,,,,,j,0.0344,space,0.403,,,,,,,,0,132,132,46,1,,
57754d57ca706f000190eaf1,2023-06-16_10h11.38.274,phx_ver10,2022.2.5,Win32,59.86948452,,,,,,,,,,,,99,testing_3,sh2x,a,sh2x_a,sh2x_1_asha.wav,sh2x_8_axa.wav,,FALSE,FALSE,,,,,,,,,,,,,,j,0.3557,space,0.6059,,,,,,,,0,133,133,98,1,,
57754d57ca706f000190eaf1,2023-06-16_10h11.38.274,phx_ver10,2022.2.5,Win32,59.86948452,,,,,,,,,,,,109,testing_3,sh2x,e,sh2x_e,sh2x_1_eshe.wav,sh2x_1_eshe.wav,,TRUE,FALSE,,,,,,,,,,,,,,j,0.2635,space,0.5319,,,,,,,,0,134,134,108,1,,
57754d57ca706f000190eaf1,2023-06-16_10h11.38.274,phx_ver10,2022.2.5,Win32,59.86948452,,,,,,,,,,,,15,testing_2,zh2x,ai,zh2x_ai,zh2x_1_aizhai.wav,zh2x_8_aixai.wav,,FALSE,FALSE,,,,,,,,,,,,,,j,0.0027,space,0.3176,,,,,,,,0,135,135,14,1,,
57754d57ca706f000190eaf1,2023-06-16_10h11.38.274,phx_ver10,2022.2.5,Win32,59.86948452,,,,,,,,,,,,51,testing_3,zh2j,a,zh2j_a,zh2j_1_azha.wav,zh2j_8_aja.wav,,FALSE,FALSE,,,,,,,,,,,,,,j,0.2162,space,0.4413,,,,,,,,0,136,136,50,1,,
57754d57ca706f000190eaf1,2023-06-16_10h11.38.274,phx_ver10,2022.2.5,Win32,59.86948452,,,,,,,,,,,,89,testing_3,j2x,ei,j2x_ei,j2x_1_eijei.wav,j2x_1_eijei.wav,,TRUE,FALSE,,,,,,,,,,,,,,f,0.0005,space,0.3012,,,,,,,,0,137,137,88,1,,
57754d57ca706f000190eaf1,2023-06-16_10h11.38.274,phx_ver10,2022.2.5,Win32,59.86948452,,,,,,,,,,,,143,testing_3,sh2j,i,sh2j_i,sh2j_1_ishi.wav,sh2j_8_iji.wav,,FALSE,FALSE,,,,,,,,,,,,,,j,0.2353,space,0.5391,,,,,,,,0,138,138,142,1,,
57754d57ca706f000190eaf1,2023-06-16_10h11.38.274,phx_ver10,2022.2.5,Win32,59.86948452,,,,,,,,,,,,21,testing_2,zh2x,ei,zh2x_ei,zh2x_1_eizhei.wav,zh2x_1_eizhei.wav,,TRUE,FALSE,,,,,,,,,,,,,,f,0.6892,space,0.9829,,,,,,,,0,139,139,20,1,,
57754d57ca706f000190eaf1,2023-06-16_10h11.38.274,phx_ver10,2022.2.5,Win32,59.86948452,,,,,,,,,,,,71,testing_3,zh2j,i,zh2j_i,zh2j_1_izhi.wav,zh2j_8_iji.wav,,FALSE,FALSE,,,,,,,,,,,,,,f,0.8146,space,1.0331,,,,,,,,0,140,140,70,1,,
57754d57ca706f000190eaf1,2023-06-16_10h11.38.274,phx_ver10,2022.2.5,Win32,59.86948452,,,,,,,,,,,,91,testing_3,j2x,ei,j2x_ei,j2x_1_eijei.wav,j2x_8_eixei.wav,,FALSE,FALSE,,,,,,,,,,,,,,j,0.1356,space,0.4026,,,,,,,,0,141,141,90,1,,
57754d57ca706f000190eaf1,2023-06-16_10h11.38.274,phx_ver10,2022.2.5,Win32,59.86948452,,,,,,,,,,,,53,testing_3,zh2j,ai,zh2j_ai,zh2j_1_aizhai.wav,zh2j_1_aizhai.wav,,TRUE,FALSE,,,,,,,,,,,,,,f,0.5069,space,0.7517,,,,,,,,0,142,142,52,1,,
57754d57ca706f000190eaf1,2023-06-16_10h11.38.274,phx_ver10,2022.2.5,Win32,59.86948452,,,,,,,,,,,,142,testing_3,sh2j,i,sh2j_i,sh2j_8_iji.wav,sh2j_8_iji.wav,,TRUE,FALSE,,,,,,,,,,,,,,f,0.3653,space,0.6429,,,,,,,,0,143,143,141,1,,
57754d57ca706f000190eaf1,2023-06-16_10h11.38.274,phx_ver10,2022.2.5,Win32,59.86948452,,,,,,,,,,,,,,,,,,,,,,,,,,,,,,,,,,,,,,,,,,,,,,,,,,,space,2.2436
