participant,date,expName,psychopyVersion,OS,frameRate,space_1.keys,space_1.rt,space_2.keys,space_2.rt,space_train.keys,space_train.rt,training.thisRepN,training.thisTrialN,training.thisN,training.thisIndex,training.ran,token_id,task,continuum,vowel,series,sound_1,sound_2,img,same,trained,FJ_attn.keys,FJ_attn.rt,space_attn.keys,space_attn.rt,if_attn_test.thisRepN,if_attn_test.thisTrialN,if_attn_test.thisN,if_attn_test.thisIndex,if_attn_test.ran,space_trans_1.keys,space_trans_1.rt,space_trans_11.keys,space_trans_11.rt,FJ_test.keys,FJ_test.rt,space_test.keys,space_test.rt,testing_pre.thisRepN,testing_pre.thisTrialN,testing_pre.thisN,testing_pre.thisIndex,testing_pre.ran,space_trans_2.keys,space_trans_2.rt,testing_all.thisRepN,testing_all.thisTrialN,testing_all.thisN,testing_all.thisIndex,testing_all.ran,space_ending.keys,space_ending.rt
57a2319b4d107800016ddccc,2023-06-16_10h43.36.336,phx_ver10,2022.2.5,Win32,60.4814322,,,,,,,,,,,,,,,,,,,,,,,,,,,,,,,,,,,,,,,,,,,,,,,,,,,,
57a2319b4d107800016ddccc,2023-06-16_10h43.36.336,phx_ver10,2022.2.5,Win32,60.4814322,space,3.714,,,,,,,,,,,,,,,,,,,,,,,,,,,,,,,,,,,,,,,,,,,,,,,,,,
57a2319b4d107800016ddccc,2023-06-16_10h43.36.336,phx_ver10,2022.2.5,Win32,60.4814322,,,space,0.836,,,,,,,,,,,,,,,,,,,,,,,,,,,,,,,,,,,,,,,,,,,,,,,,
57a2319b4d107800016ddccc,2023-06-16_10h43.36.336,phx_ver10,2022.2.5,Win32,60.4814322,,,,,space,2.2693,0,0,0,28,1,29,training,zh2x,e,zh2x_e,zh2x_7_exe.wav,,exe.jpg,,,,,,,,,,,,,,,,,,,,,,,,,,,,,,,,,
57a2319b4d107800016ddccc,2023-06-16_10h43.36.336,phx_ver10,2022.2.5,Win32,60.4814322,,,,,space,0.3695,0,1,1,10,1,11,training,zh2x,a,zh2x_a,zh2x_6_axa.wav,,axa.jpg,,,,,,,,,,,,,,,,,,,,,,,,,,,,,,,,,
57a2319b4d107800016ddccc,2023-06-16_10h43.36.336,phx_ver10,2022.2.5,Win32,60.4814322,,,,,space,1.3862,0,2,2,45,1,46,training,zh2x,i,zh2x_i,zh2x_7_ixi.wav,,ixi.jpg,,,,,,,,,,,,,,,,,,,,,,,,,,,,,,,,,
57a2319b4d107800016ddccc,2023-06-16_10h43.36.336,phx_ver10,2022.2.5,Win32,60.4814322,,,,,space,1.2023,0,3,3,34,1,35,training,zh2x,i,zh2x_i,zh2x_2_izhi.wav,,izhi.jpg,,,,,,,,,,,,,,,,,,,,,,,,,,,,,,,,,
57a2319b4d107800016ddccc,2023-06-16_10h43.36.336,phx_ver10,2022.2.5,Win32,60.4814322,,,,,space,0.6029,0,4,4,24,1,25,training,zh2x,e,zh2x_e,zh2x_5_exe.wav,,exe.jpg,,,,,,,,,,,,,,,,,,,,,,,,,,,,,,,,,
57a2319b4d107800016ddccc,2023-06-16_10h43.36.336,phx_ver10,2022.2.5,Win32,60.4814322,,,,,space,0.5187,0,5,5,33,1,34,training,zh2x,i,zh2x_i,zh2x_2_izhi.wav,,izhi.jpg,,,,,,,,,,,,,,,,,,,,,,,,,,,,,,,,,
57a2319b4d107800016ddccc,2023-06-16_10h43.36.336,phx_ver10,2022.2.5,Win32,60.4814322,,,,,,,,,,,,,attn_test,,,,zh2x_8_exe.wav,zh2x_1_azha.wav,exe.jpg,LEFT,,f,0.9028,space,2.3104,0,0,0,0,1,,,,,,,,,,,,,,,,,,,,,,
57a2319b4d107800016ddccc,2023-06-16_10h43.36.336,phx_ver10,2022.2.5,Win32,60.4814322,,,,,space,1.4192,0,6,6,0,1,1,training,zh2x,a,zh2x_a,zh2x_1_azha.wav,,azha.jpg,,,,,,,,,,,,,,,,,,,,,,,,,,,,,,,,,
57a2319b4d107800016ddccc,2023-06-16_10h43.36.336,phx_ver10,2022.2.5,Win32,60.4814322,,,,,space,0.4501,0,7,7,5,1,6,training,zh2x,a,zh2x_a,zh2x_3_azha.wav,,azha.jpg,,,,,,,,,,,,,,,,,,,,,,,,,,,,,,,,,
57a2319b4d107800016ddccc,2023-06-16_10h43.36.336,phx_ver10,2022.2.5,Win32,60.4814322,,,,,space,0.3699,0,8,8,7,1,8,training,zh2x,a,zh2x_a,zh2x_4_azha.wav,,azha.jpg,,,,,,,,,,,,,,,,,,,,,,,,,,,,,,,,,
57a2319b4d107800016ddccc,2023-06-16_10h43.36.336,phx_ver10,2022.2.5,Win32,60.4814322,,,,,space,0.6808,0,9,9,21,1,22,training,zh2x,e,zh2x_e,zh2x_3_ezhe.wav,,ezhe.jpg,,,,,,,,,,,,,,,,,,,,,,,,,,,,,,,,,
57a2319b4d107800016ddccc,2023-06-16_10h43.36.336,phx_ver10,2022.2.5,Win32,60.4814322,,,,,space,0.7214,0,10,10,31,1,32,training,zh2x,e,zh2x_e,zh2x_8_exe.wav,,exe.jpg,,,,,,,,,,,,,,,,,,,,,,,,,,,,,,,,,
57a2319b4d107800016ddccc,2023-06-16_10h43.36.336,phx_ver10,2022.2.5,Win32,60.4814322,,,,,space,0.6533,0,11,11,17,1,18,training,zh2x,e,zh2x_e,zh2x_2_ezhe.wav,,ezhe.jpg,,,,,,,,,,,,,,,,,,,,,,,,,,,,,,,,,
57a2319b4d107800016ddccc,2023-06-16_10h43.36.336,phx_ver10,2022.2.5,Win32,60.4814322,,,,,,,,,,,,,attn_test,,,,zh2x_1_ezhe.wav,zh2x_1_azha.wav,ezhe.jpg,LEFT,,f,1.0343,space,1.318,0,0,0,0,1,,,,,,,,,,,,,,,,,,,,,,
57a2319b4d107800016ddccc,2023-06-16_10h43.36.336,phx_ver10,2022.2.5,Win32,60.4814322,,,,,space,1.0496,0,12,12,12,1,13,training,zh2x,a,zh2x_a,zh2x_7_axa.wav,,axa.jpg,,,,,,,,,,,,,,,,,,,,,,,,,,,,,,,,,
57a2319b4d107800016ddccc,2023-06-16_10h43.36.336,phx_ver10,2022.2.5,Win32,60.4814322,,,,,space,0.4865,0,13,13,40,1,41,training,zh2x,i,zh2x_i,zh2x_5_ixi.wav,,ixi.jpg,,,,,,,,,,,,,,,,,,,,,,,,,,,,,,,,,
57a2319b4d107800016ddccc,2023-06-16_10h43.36.336,phx_ver10,2022.2.5,Win32,60.4814322,,,,,space,0.3339,0,14,14,46,1,47,training,zh2x,i,zh2x_i,zh2x_7_ixi.wav,,ixi.jpg,,,,,,,,,,,,,,,,,,,,,,,,,,,,,,,,,
57a2319b4d107800016ddccc,2023-06-16_10h43.36.336,phx_ver10,2022.2.5,Win32,60.4814322,,,,,space,0.4523,0,15,15,38,1,39,training,zh2x,i,zh2x_i,zh2x_3_izhi.wav,,izhi.jpg,,,,,,,,,,,,,,,,,,,,,,,,,,,,,,,,,
57a2319b4d107800016ddccc,2023-06-16_10h43.36.336,phx_ver10,2022.2.5,Win32,60.4814322,,,,,space,0.1441,0,16,16,23,1,24,training,zh2x,e,zh2x_e,zh2x_4_ezhe.wav,,ezhe.jpg,,,,,,,,,,,,,,,,,,,,,,,,,,,,,,,,,
57a2319b4d107800016ddccc,2023-06-16_10h43.36.336,phx_ver10,2022.2.5,Win32,60.4814322,,,,,space,0.7016,0,17,17,19,1,20,training,zh2x,e,zh2x_e,zh2x_2_ezhe.wav,,ezhe.jpg,,,,,,,,,,,,,,,,,,,,,,,,,,,,,,,,,
57a2319b4d107800016ddccc,2023-06-16_10h43.36.336,phx_ver10,2022.2.5,Win32,60.4814322,,,,,,,,,,,,,attn_test,,,,zh2x_8_axa.wav,zh2x_8_ixi.wav,ixi.jpg,RIGHT,,j,1.4451,space,2.2103,0,0,0,0,1,,,,,,,,,,,,,,,,,,,,,,
57a2319b4d107800016ddccc,2023-06-16_10h43.36.336,phx_ver10,2022.2.5,Win32,60.4814322,,,,,space,0.5672,0,18,18,9,1,10,training,zh2x,a,zh2x_a,zh2x_6_axa.wav,,axa.jpg,,,,,,,,,,,,,,,,,,,,,,,,,,,,,,,,,
57a2319b4d107800016ddccc,2023-06-16_10h43.36.336,phx_ver10,2022.2.5,Win32,60.4814322,,,,,space,0.4345,0,19,19,2,1,3,training,zh2x,a,zh2x_a,zh2x_2_azha.wav,,azha.jpg,,,,,,,,,,,,,,,,,,,,,,,,,,,,,,,,,
57a2319b4d107800016ddccc,2023-06-16_10h43.36.336,phx_ver10,2022.2.5,Win32,60.4814322,,,,,space,0.5531,0,20,20,27,1,28,training,zh2x,e,zh2x_e,zh2x_7_exe.wav,,exe.jpg,,,,,,,,,,,,,,,,,,,,,,,,,,,,,,,,,
57a2319b4d107800016ddccc,2023-06-16_10h43.36.336,phx_ver10,2022.2.5,Win32,60.4814322,,,,,space,0.2895,0,21,21,6,1,7,training,zh2x,a,zh2x_a,zh2x_3_azha.wav,,azha.jpg,,,,,,,,,,,,,,,,,,,,,,,,,,,,,,,,,
57a2319b4d107800016ddccc,2023-06-16_10h43.36.336,phx_ver10,2022.2.5,Win32,60.4814322,,,,,space,0.0854,0,22,22,26,1,27,training,zh2x,e,zh2x_e,zh2x_6_exe.wav,,exe.jpg,,,,,,,,,,,,,,,,,,,,,,,,,,,,,,,,,
57a2319b4d107800016ddccc,2023-06-16_10h43.36.336,phx_ver10,2022.2.5,Win32,60.4814322,,,,,space,0.0355,0,23,23,20,1,21,training,zh2x,e,zh2x_e,zh2x_2_ezhe.wav,,ezhe.jpg,,,,,,,,,,,,,,,,,,,,,,,,,,,,,,,,,
57a2319b4d107800016ddccc,2023-06-16_10h43.36.336,phx_ver10,2022.2.5,Win32,60.4814322,,,,,,,,,,,,,attn_test,,,,zh2x_8_axa.wav,zh2x_8_ixi.wav,axa.jpg,LEFT,,f,0.6558,space,1.652,0,0,0,0,1,,,,,,,,,,,,,,,,,,,,,,
57a2319b4d107800016ddccc,2023-06-16_10h43.36.336,phx_ver10,2022.2.5,Win32,60.4814322,,,,,space,0.6517,0,24,24,43,1,44,training,zh2x,i,zh2x_i,zh2x_7_ixi.wav,,ixi.jpg,,,,,,,,,,,,,,,,,,,,,,,,,,,,,,,,,
57a2319b4d107800016ddccc,2023-06-16_10h43.36.336,phx_ver10,2022.2.5,Win32,60.4814322,,,,,space,0.4027,0,25,25,42,1,43,training,zh2x,i,zh2x_i,zh2x_6_ixi.wav,,ixi.jpg,,,,,,,,,,,,,,,,,,,,,,,,,,,,,,,,,
57a2319b4d107800016ddccc,2023-06-16_10h43.36.336,phx_ver10,2022.2.5,Win32,60.4814322,,,,,space,0.0831,0,26,26,37,1,38,training,zh2x,i,zh2x_i,zh2x_3_izhi.wav,,izhi.jpg,,,,,,,,,,,,,,,,,,,,,,,,,,,,,,,,,
57a2319b4d107800016ddccc,2023-06-16_10h43.36.336,phx_ver10,2022.2.5,Win32,60.4814322,,,,,space,0.3687,0,27,27,32,1,33,training,zh2x,i,zh2x_i,zh2x_1_izhi.wav,,izhi.jpg,,,,,,,,,,,,,,,,,,,,,,,,,,,,,,,,,
57a2319b4d107800016ddccc,2023-06-16_10h43.36.336,phx_ver10,2022.2.5,Win32,60.4814322,,,,,space,0.0845,0,28,28,47,1,48,training,zh2x,i,zh2x_i,zh2x_8_ixi.wav,,ixi.jpg,,,,,,,,,,,,,,,,,,,,,,,,,,,,,,,,,
57a2319b4d107800016ddccc,2023-06-16_10h43.36.336,phx_ver10,2022.2.5,Win32,60.4814322,,,,,space,0.0841,0,29,29,15,1,16,training,zh2x,a,zh2x_a,zh2x_8_axa.wav,,axa.jpg,,,,,,,,,,,,,,,,,,,,,,,,,,,,,,,,,
57a2319b4d107800016ddccc,2023-06-16_10h43.36.336,phx_ver10,2022.2.5,Win32,60.4814322,,,,,,,,,,,,,attn_test,,,,zh2x_8_axa.wav,zh2x_8_exe.wav,axa.jpg,LEFT,,f,0.2518,space,0.9016,0,0,0,0,1,,,,,,,,,,,,,,,,,,,,,,
57a2319b4d107800016ddccc,2023-06-16_10h43.36.336,phx_ver10,2022.2.5,Win32,60.4814322,,,,,space,0.4976,0,30,30,25,1,26,training,zh2x,e,zh2x_e,zh2x_6_exe.wav,,exe.jpg,,,,,,,,,,,,,,,,,,,,,,,,,,,,,,,,,
57a2319b4d107800016ddccc,2023-06-16_10h43.36.336,phx_ver10,2022.2.5,Win32,60.4814322,,,,,space,0.6183,0,31,31,44,1,45,training,zh2x,i,zh2x_i,zh2x_7_ixi.wav,,ixi.jpg,,,,,,,,,,,,,,,,,,,,,,,,,,,,,,,,,
57a2319b4d107800016ddccc,2023-06-16_10h43.36.336,phx_ver10,2022.2.5,Win32,60.4814322,,,,,space,0.2005,0,32,32,1,1,2,training,zh2x,a,zh2x_a,zh2x_2_azha.wav,,azha.jpg,,,,,,,,,,,,,,,,,,,,,,,,,,,,,,,,,
57a2319b4d107800016ddccc,2023-06-16_10h43.36.336,phx_ver10,2022.2.5,Win32,60.4814322,,,,,space,0.0189,0,33,33,18,1,19,training,zh2x,e,zh2x_e,zh2x_2_ezhe.wav,,ezhe.jpg,,,,,,,,,,,,,,,,,,,,,,,,,,,,,,,,,
57a2319b4d107800016ddccc,2023-06-16_10h43.36.336,phx_ver10,2022.2.5,Win32,60.4814322,,,,,space,0.6856,0,34,34,14,1,15,training,zh2x,a,zh2x_a,zh2x_7_axa.wav,,axa.jpg,,,,,,,,,,,,,,,,,,,,,,,,,,,,,,,,,
57a2319b4d107800016ddccc,2023-06-16_10h43.36.336,phx_ver10,2022.2.5,Win32,60.4814322,,,,,space,0.018,0,35,35,39,1,40,training,zh2x,i,zh2x_i,zh2x_4_izhi.wav,,izhi.jpg,,,,,,,,,,,,,,,,,,,,,,,,,,,,,,,,,
57a2319b4d107800016ddccc,2023-06-16_10h43.36.336,phx_ver10,2022.2.5,Win32,60.4814322,,,,,,,,,,,,,attn_test,,,,zh2x_8_axa.wav,zh2x_1_izhi.wav,axa.jpg,LEFT,,f,0.5187,space,1.0025,0,0,0,0,1,,,,,,,,,,,,,,,,,,,,,,
57a2319b4d107800016ddccc,2023-06-16_10h43.36.336,phx_ver10,2022.2.5,Win32,60.4814322,,,,,space,0.6849,0,36,36,3,1,4,training,zh2x,a,zh2x_a,zh2x_2_azha.wav,,azha.jpg,,,,,,,,,,,,,,,,,,,,,,,,,,,,,,,,,
57a2319b4d107800016ddccc,2023-06-16_10h43.36.336,phx_ver10,2022.2.5,Win32,60.4814322,,,,,space,0.1043,0,37,37,30,1,31,training,zh2x,e,zh2x_e,zh2x_7_exe.wav,,exe.jpg,,,,,,,,,,,,,,,,,,,,,,,,,,,,,,,,,
57a2319b4d107800016ddccc,2023-06-16_10h43.36.336,phx_ver10,2022.2.5,Win32,60.4814322,,,,,space,0.3523,0,38,38,41,1,42,training,zh2x,i,zh2x_i,zh2x_6_ixi.wav,,ixi.jpg,,,,,,,,,,,,,,,,,,,,,,,,,,,,,,,,,
57a2319b4d107800016ddccc,2023-06-16_10h43.36.336,phx_ver10,2022.2.5,Win32,60.4814322,,,,,space,0.035,0,39,39,22,1,23,training,zh2x,e,zh2x_e,zh2x_3_ezhe.wav,,ezhe.jpg,,,,,,,,,,,,,,,,,,,,,,,,,,,,,,,,,
57a2319b4d107800016ddccc,2023-06-16_10h43.36.336,phx_ver10,2022.2.5,Win32,60.4814322,,,,,space,0.0342,0,40,40,13,1,14,training,zh2x,a,zh2x_a,zh2x_7_axa.wav,,axa.jpg,,,,,,,,,,,,,,,,,,,,,,,,,,,,,,,,,
57a2319b4d107800016ddccc,2023-06-16_10h43.36.336,phx_ver10,2022.2.5,Win32,60.4814322,,,,,space,0.6187,0,41,41,36,1,37,training,zh2x,i,zh2x_i,zh2x_2_izhi.wav,,izhi.jpg,,,,,,,,,,,,,,,,,,,,,,,,,,,,,,,,,
57a2319b4d107800016ddccc,2023-06-16_10h43.36.336,phx_ver10,2022.2.5,Win32,60.4814322,,,,,,,,,,,,,attn_test,,,,zh2x_8_exe.wav,zh2x_8_axa.wav,axa.jpg,RIGHT,,f,0.5848,space,1.1855,0,0,0,0,1,,,,,,,,,,,,,,,,,,,,,,
57a2319b4d107800016ddccc,2023-06-16_10h43.36.336,phx_ver10,2022.2.5,Win32,60.4814322,,,,,space,0.1441,0,42,42,4,1,5,training,zh2x,a,zh2x_a,zh2x_2_azha.wav,,azha.jpg,,,,,,,,,,,,,,,,,,,,,,,,,,,,,,,,,
57a2319b4d107800016ddccc,2023-06-16_10h43.36.336,phx_ver10,2022.2.5,Win32,60.4814322,,,,,space,0.0067,0,43,43,11,1,12,training,zh2x,a,zh2x_a,zh2x_7_axa.wav,,axa.jpg,,,,,,,,,,,,,,,,,,,,,,,,,,,,,,,,,
57a2319b4d107800016ddccc,2023-06-16_10h43.36.336,phx_ver10,2022.2.5,Win32,60.4814322,,,,,space,0.318,0,44,44,35,1,36,training,zh2x,i,zh2x_i,zh2x_2_izhi.wav,,izhi.jpg,,,,,,,,,,,,,,,,,,,,,,,,,,,,,,,,,
57a2319b4d107800016ddccc,2023-06-16_10h43.36.336,phx_ver10,2022.2.5,Win32,60.4814322,,,,,space,0.1524,0,45,45,29,1,30,training,zh2x,e,zh2x_e,zh2x_7_exe.wav,,exe.jpg,,,,,,,,,,,,,,,,,,,,,,,,,,,,,,,,,
57a2319b4d107800016ddccc,2023-06-16_10h43.36.336,phx_ver10,2022.2.5,Win32,60.4814322,,,,,space,0.5848,0,46,46,8,1,9,training,zh2x,a,zh2x_a,zh2x_5_axa.wav,,axa.jpg,,,,,,,,,,,,,,,,,,,,,,,,,,,,,,,,,
57a2319b4d107800016ddccc,2023-06-16_10h43.36.336,phx_ver10,2022.2.5,Win32,60.4814322,,,,,space,0.489,0,47,47,16,1,17,training,zh2x,e,zh2x_e,zh2x_1_ezhe.wav,,ezhe.jpg,,,,,,,,,,,,,,,,,,,,,,,,,,,,,,,,,
57a2319b4d107800016ddccc,2023-06-16_10h43.36.336,phx_ver10,2022.2.5,Win32,60.4814322,,,,,,,,,,,,,attn_test,,,,zh2x_8_exe.wav,zh2x_8_axa.wav,axa.jpg,RIGHT,,j,1.6522,space,2.0857,,,,,,,,,,,,,,,,,,,,,,,,,,,
57a2319b4d107800016ddccc,2023-06-16_10h43.36.336,phx_ver10,2022.2.5,Win32,60.4814322,,,,,,,,,,,,,,,,,,,,,,,,,,,,,,,space,0.5554,,,,,,,,,,,,,,,,,,,,
57a2319b4d107800016ddccc,2023-06-16_10h43.36.336,phx_ver10,2022.2.5,Win32,60.4814322,,,,,,,,,,,,,,,,,,,,,,,,,,,,,,,,,space,2.2347,,,,,,,,,,,,,,,,,,
57a2319b4d107800016ddccc,2023-06-16_10h43.36.336,phx_ver10,2022.2.5,Win32,60.4814322,,,,,,,,,,,,1,testing_pre,,,,ifi.wav,ifi.wav,,TRUE,,,,,,,,,,,,,,,f,2.004,space,2.4437,0,0,0,0,1,,,,,,,,,
57a2319b4d107800016ddccc,2023-06-16_10h43.36.336,phx_ver10,2022.2.5,Win32,60.4814322,,,,,,,,,,,,2,testing_pre,,,,auhau.wav,aufau.wav,,FALSE,,,,,,,,,,,,,,,j,1.1195,space,1.4859,0,1,1,1,1,,,,,,,,,
57a2319b4d107800016ddccc,2023-06-16_10h43.36.336,phx_ver10,2022.2.5,Win32,60.4814322,,,,,,,,,,,,5,testing_pre,,,,ihi.wav,ifi.wav,,FALSE,,,,,,,,,,,,,,,j,1.1616,space,1.4285,0,2,2,4,1,,,,,,,,,
57a2319b4d107800016ddccc,2023-06-16_10h43.36.336,phx_ver10,2022.2.5,Win32,60.4814322,,,,,,,,,,,,4,testing_pre,,,,eihei.wav,eihei.wav,,TRUE,,,,,,,,,,,,,,,j,0.5103,space,0.8023,0,3,3,3,1,,,,,,,,,
57a2319b4d107800016ddccc,2023-06-16_10h43.36.336,phx_ver10,2022.2.5,Win32,60.4814322,,,,,,,,,,,,3,testing_pre,,,,afa.wav,aha.wav,,FALSE,,,,,,,,,,,,,,,f,0.3356,space,0.6355,0,4,4,2,1,,,,,,,,,
57a2319b4d107800016ddccc,2023-06-16_10h43.36.336,phx_ver10,2022.2.5,Win32,60.4814322,,,,,,,,,,,,,,,,,,,,,,,,,,,,,,,,,,,,,,,,,,,,space,0.5361,,,,,,,
57a2319b4d107800016ddccc,2023-06-16_10h43.36.336,phx_ver10,2022.2.5,Win32,60.4814322,,,,,,,,,,,,13,testing_2,zh2x,ai,zh2x_ai,zh2x_1_aizhai.wav,zh2x_1_aizhai.wav,,TRUE,FALSE,,,,,,,,,,,,,,f,0.8689,space,1.2199,,,,,,,,0,0,0,12,1,,
57a2319b4d107800016ddccc,2023-06-16_10h43.36.336,phx_ver10,2022.2.5,Win32,60.4814322,,,,,,,,,,,,51,testing_3,zh2j,a,zh2j_a,zh2j_1_azha.wav,zh2j_8_aja.wav,,FALSE,FALSE,,,,,,,,,,,,,,f,0.7671,space,1.1015,,,,,,,,0,1,1,50,1,,
57a2319b4d107800016ddccc,2023-06-16_10h43.36.336,phx_ver10,2022.2.5,Win32,60.4814322,,,,,,,,,,,,63,testing_3,zh2j,e,zh2j_e,zh2j_1_ezhe.wav,zh2j_8_eje.wav,,FALSE,FALSE,,,,,,,,,,,,,,f,0.5019,space,0.82,,,,,,,,0,2,2,62,1,,
57a2319b4d107800016ddccc,2023-06-16_10h43.36.336,phx_ver10,2022.2.5,Win32,60.4814322,,,,,,,,,,,,140,testing_3,sh2j,ei,sh2j_ei,sh2j_8_eijei.wav,sh2j_1_eishei.wav,,FALSE,FALSE,,,,,,,,,,,,,,j,0.4014,space,0.674,,,,,,,,0,3,3,139,1,,
57a2319b4d107800016ddccc,2023-06-16_10h43.36.336,phx_ver10,2022.2.5,Win32,60.4814322,,,,,,,,,,,,17,testing_2,zh2x,au,zh2x_au,zh2x_1_auzhau.wav,zh2x_1_auzhau.wav,,TRUE,FALSE,,,,,,,,,,,,,,f,0.8518,space,1.1685,,,,,,,,0,4,4,16,1,,
57a2319b4d107800016ddccc,2023-06-16_10h43.36.336,phx_ver10,2022.2.5,Win32,60.4814322,,,,,,,,,,,,43,testing_3,zh2sh,ei,zh2sh_ei,zh2sh_1_eizhei.wav,zh2sh_8_eishei.wav,,FALSE,FALSE,,,,,,,,,,,,,,j,0.2853,space,0.5515,,,,,,,,0,5,5,42,1,,
57a2319b4d107800016ddccc,2023-06-16_10h43.36.336,phx_ver10,2022.2.5,Win32,60.4814322,,,,,,,,,,,,127,testing_3,sh2j,ai,sh2j_ai,sh2j_1_aishai.wav,sh2j_8_aijai.wav,,FALSE,FALSE,,,,,,,,,,,,,,j,0.4346,space,0.6524,,,,,,,,0,6,6,126,1,,
57a2319b4d107800016ddccc,2023-06-16_10h43.36.336,phx_ver10,2022.2.5,Win32,60.4814322,,,,,,,,,,,,24,testing_2,zh2x,ei,zh2x_ei,zh2x_8_eixei.wav,zh2x_1_eizhei.wav,,FALSE,FALSE,,,,,,,,,,,,,,j,0.3177,space,0.5842,,,,,,,,0,7,7,23,1,,
57a2319b4d107800016ddccc,2023-06-16_10h43.36.336,phx_ver10,2022.2.5,Win32,60.4814322,,,,,,,,,,,,45,testing_3,zh2sh,i,zh2sh_i,zh2sh_1_izhi.wav,zh2sh_1_izhi.wav,,TRUE,FALSE,,,,,,,,,,,,,,j,0.7346,space,1.0682,,,,,,,,0,8,8,44,1,,
57a2319b4d107800016ddccc,2023-06-16_10h43.36.336,phx_ver10,2022.2.5,Win32,60.4814322,,,,,,,,,,,,14,testing_2,zh2x,ai,zh2x_ai,zh2x_8_aixai.wav,zh2x_8_aixai.wav,,TRUE,FALSE,,,,,,,,,,,,,,f,0.5054,space,0.769,,,,,,,,0,9,9,13,1,,
57a2319b4d107800016ddccc,2023-06-16_10h43.36.336,phx_ver10,2022.2.5,Win32,60.4814322,,,,,,,,,,,,111,testing_3,sh2x,e,sh2x_e,sh2x_1_eshe.wav,sh2x_8_exe.wav,,FALSE,FALSE,,,,,,,,,,,,,,j,0.302,space,0.5515,,,,,,,,0,10,10,110,1,,
57a2319b4d107800016ddccc,2023-06-16_10h43.36.336,phx_ver10,2022.2.5,Win32,60.4814322,,,,,,,,,,,,143,testing_3,sh2j,i,sh2j_i,sh2j_1_ishi.wav,sh2j_8_iji.wav,,FALSE,FALSE,,,,,,,,,,,,,,j,0.2181,space,0.4846,,,,,,,,0,11,11,142,1,,
57a2319b4d107800016ddccc,2023-06-16_10h43.36.336,phx_ver10,2022.2.5,Win32,60.4814322,,,,,,,,,,,,113,testing_3,sh2x,ei,sh2x_ei,sh2x_1_eishei.wav,sh2x_1_eishei.wav,,TRUE,FALSE,,,,,,,,,,,,,,j,0.5264,space,0.7512,,,,,,,,0,12,12,112,1,,
57a2319b4d107800016ddccc,2023-06-16_10h43.36.336,phx_ver10,2022.2.5,Win32,60.4814322,,,,,,,,,,,,39,testing_3,zh2sh,e,zh2sh_e,zh2sh_1_ezhe.wav,zh2sh_8_eshe.wav,,FALSE,FALSE,,,,,,,,,,,,,,j,0.6018,space,0.834,,,,,,,,0,13,13,38,1,,
57a2319b4d107800016ddccc,2023-06-16_10h43.36.336,phx_ver10,2022.2.5,Win32,60.4814322,,,,,,,,,,,,64,testing_3,zh2j,e,zh2j_e,zh2j_8_eje.wav,zh2j_1_ezhe.wav,,FALSE,FALSE,,,,,,,,,,,,,,f,0.2907,space,0.5122,,,,,,,,0,14,14,63,1,,
57a2319b4d107800016ddccc,2023-06-16_10h43.36.336,phx_ver10,2022.2.5,Win32,60.4814322,,,,,,,,,,,,59,testing_3,zh2j,au,zh2j_au,zh2j_1_auzhau.wav,zh2j_8_aujau.wav,,FALSE,FALSE,,,,,,,,,,,,,,f,0.152,space,0.3894,,,,,,,,0,15,15,58,1,,
57a2319b4d107800016ddccc,2023-06-16_10h43.36.336,phx_ver10,2022.2.5,Win32,60.4814322,,,,,,,,,,,,49,testing_3,zh2j,a,zh2j_a,zh2j_1_azha.wav,zh2j_1_azha.wav,,TRUE,FALSE,,,,,,,,,,,,,,f,0.1187,space,0.4017,,,,,,,,0,16,16,48,1,,
57a2319b4d107800016ddccc,2023-06-16_10h43.36.336,phx_ver10,2022.2.5,Win32,60.4814322,,,,,,,,,,,,20,testing_2,zh2x,au,zh2x_au,zh2x_8_auxau.wav,zh2x_1_auzhau.wav,,FALSE,FALSE,,,,,,,,,,,,,,j,0.354,space,0.6532,,,,,,,,0,17,17,19,1,,
57a2319b4d107800016ddccc,2023-06-16_10h43.36.336,phx_ver10,2022.2.5,Win32,60.4814322,,,,,,,,,,,,22,testing_2,zh2x,ei,zh2x_ei,zh2x_8_eixei.wav,zh2x_8_eixei.wav,,TRUE,FALSE,,,,,,,,,,,,,,f,0.2516,space,0.5344,,,,,,,,0,18,18,21,1,,
57a2319b4d107800016ddccc,2023-06-16_10h43.36.336,phx_ver10,2022.2.5,Win32,60.4814322,,,,,,,,,,,,134,testing_3,sh2j,e,sh2j_e,sh2j_8_eje.wav,sh2j_8_eje.wav,,TRUE,FALSE,,,,,,,,,,,,,,f,0.2179,space,0.5346,,,,,,,,0,19,19,133,1,,
57a2319b4d107800016ddccc,2023-06-16_10h43.36.336,phx_ver10,2022.2.5,Win32,60.4814322,,,,,,,,,,,,115,testing_3,sh2x,ei,sh2x_ei,sh2x_1_eishei.wav,sh2x_8_eixei.wav,,FALSE,FALSE,,,,,,,,,,,,,,j,0.3688,space,0.652,,,,,,,,0,20,20,114,1,,
57a2319b4d107800016ddccc,2023-06-16_10h43.36.336,phx_ver10,2022.2.5,Win32,60.4814322,,,,,,,,,,,,141,testing_3,sh2j,i,sh2j_i,sh2j_1_ishi.wav,sh2j_1_ishi.wav,,TRUE,FALSE,,,,,,,,,,,,,,j,0.5344,space,0.8845,,,,,,,,0,21,21,140,1,,
57a2319b4d107800016ddccc,2023-06-16_10h43.36.336,phx_ver10,2022.2.5,Win32,60.4814322,,,,,,,,,,,,118,testing_3,sh2x,i,sh2x_i,sh2x_8_ixi.wav,sh2x_8_ixi.wav,,TRUE,FALSE,,,,,,,,,,,,,,f,0.2704,space,0.5535,,,,,,,,0,22,22,117,1,,
57a2319b4d107800016ddccc,2023-06-16_10h43.36.336,phx_ver10,2022.2.5,Win32,60.4814322,,,,,,,,,,,,71,testing_3,zh2j,i,zh2j_i,zh2j_1_izhi.wav,zh2j_8_iji.wav,,FALSE,FALSE,,,,,,,,,,,,,,f,0.2096,space,0.5684,,,,,,,,0,23,23,70,1,,
57a2319b4d107800016ddccc,2023-06-16_10h43.36.336,phx_ver10,2022.2.5,Win32,60.4814322,,,,,,,,,,,,31,testing_3,zh2sh,ai,zh2sh_ai,zh2sh_1_aizhai.wav,zh2sh_8_aishai.wav,,FALSE,FALSE,,,,,,,,,,,,,,j,0.3186,space,0.6002,,,,,,,,0,24,24,30,1,,
57a2319b4d107800016ddccc,2023-06-16_10h43.36.336,phx_ver10,2022.2.5,Win32,60.4814322,,,,,,,,,,,,72,testing_3,zh2j,i,zh2j_i,zh2j_8_iji.wav,zh2j_1_izhi.wav,,FALSE,FALSE,,,,,,,,,,,,,,f,0.3015,space,0.5853,,,,,,,,0,25,25,71,1,,
57a2319b4d107800016ddccc,2023-06-16_10h43.36.336,phx_ver10,2022.2.5,Win32,60.4814322,,,,,,,,,,,,80,testing_3,j2x,ai,j2x_ai,j2x_8_aixai.wav,j2x_1_aijai.wav,,FALSE,FALSE,,,,,,,,,,,,,,j,0.3011,space,0.6186,,,,,,,,0,26,26,79,1,,
57a2319b4d107800016ddccc,2023-06-16_10h43.36.336,phx_ver10,2022.2.5,Win32,60.4814322,,,,,,,,,,,,32,testing_3,zh2sh,ai,zh2sh_ai,zh2sh_8_aishai.wav,zh2sh_1_aizhai.wav,,FALSE,FALSE,,,,,,,,,,,,,,j,0.3351,space,0.6357,,,,,,,,0,27,27,31,1,,
57a2319b4d107800016ddccc,2023-06-16_10h43.36.336,phx_ver10,2022.2.5,Win32,60.4814322,,,,,,,,,,,,103,testing_3,sh2x,ai,sh2x_ai,sh2x_1_aishai.wav,sh2x_8_aixai.wav,,FALSE,FALSE,,,,,,,,,,,,,,f,0.4841,space,0.7518,,,,,,,,0,28,28,102,1,,
57a2319b4d107800016ddccc,2023-06-16_10h43.36.336,phx_ver10,2022.2.5,Win32,60.4814322,,,,,,,,,,,,102,testing_3,sh2x,ai,sh2x_ai,sh2x_8_aixai.wav,sh2x_8_aixai.wav,,TRUE,FALSE,,,,,,,,,,,,,,f,0.3109,space,0.5941,,,,,,,,0,29,29,101,1,,
57a2319b4d107800016ddccc,2023-06-16_10h43.36.336,phx_ver10,2022.2.5,Win32,60.4814322,,,,,,,,,,,,58,testing_3,zh2j,au,zh2j_au,zh2j_8_aujau.wav,zh2j_8_aujau.wav,,TRUE,FALSE,,,,,,,,,,,,,,f,1.3963,space,1.8208,,,,,,,,0,30,30,57,1,,
57a2319b4d107800016ddccc,2023-06-16_10h43.36.336,phx_ver10,2022.2.5,Win32,60.4814322,,,,,,,,,,,,55,testing_3,zh2j,ai,zh2j_ai,zh2j_1_aizhai.wav,zh2j_8_aijai.wav,,FALSE,FALSE,,,,,,,,,,,,,,f,0.7678,space,1.0514,,,,,,,,0,31,31,54,1,,
57a2319b4d107800016ddccc,2023-06-16_10h43.36.336,phx_ver10,2022.2.5,Win32,60.4814322,,,,,,,,,,,,54,testing_3,zh2j,ai,zh2j_ai,zh2j_8_aijai.wav,zh2j_8_aijai.wav,,TRUE,FALSE,,,,,,,,,,,,,,f,0.1003,space,0.5177,,,,,,,,0,32,32,53,1,,
57a2319b4d107800016ddccc,2023-06-16_10h43.36.336,phx_ver10,2022.2.5,Win32,60.4814322,,,,,,,,,,,,105,testing_3,sh2x,au,sh2x_au,sh2x_1_aushau.wav,sh2x_1_aushau.wav,,TRUE,FALSE,,,,,,,,,,,,,,j,0.584,space,0.936,,,,,,,,0,33,33,104,1,,
57a2319b4d107800016ddccc,2023-06-16_10h43.36.336,phx_ver10,2022.2.5,Win32,60.4814322,,,,,,,,,,,,75,testing_3,j2x,a,j2x_a,j2x_1_aja.wav,j2x_8_axa.wav,,FALSE,FALSE,,,,,,,,,,,,,,j,0.2701,space,0.6843,,,,,,,,0,34,34,74,1,,
57a2319b4d107800016ddccc,2023-06-16_10h43.36.336,phx_ver10,2022.2.5,Win32,60.4814322,,,,,,,,,,,,60,testing_3,zh2j,au,zh2j_au,zh2j_8_aujau.wav,zh2j_1_auzhau.wav,,FALSE,FALSE,,,,,,,,,,,,,,f,0.2003,space,0.617,,,,,,,,0,35,35,59,1,,
57a2319b4d107800016ddccc,2023-06-16_10h43.36.336,phx_ver10,2022.2.5,Win32,60.4814322,,,,,,,,,,,,98,testing_3,sh2x,a,sh2x_a,sh2x_8_axa.wav,sh2x_8_axa.wav,,TRUE,FALSE,,,,,,,,,,,,,,f,0.0678,space,0.6042,,,,,,,,0,36,36,97,1,,
57a2319b4d107800016ddccc,2023-06-16_10h43.36.336,phx_ver10,2022.2.5,Win32,60.4814322,,,,,,,,,,,,25,testing_3,zh2sh,a,zh2sh_a,zh2sh_1_azha.wav,zh2sh_1_azha.wav,,TRUE,FALSE,,,,,,,,,,,,,,f,0.754,space,1.073,,,,,,,,0,37,37,24,1,,
57a2319b4d107800016ddccc,2023-06-16_10h43.36.336,phx_ver10,2022.2.5,Win32,60.4814322,,,,,,,,,,,,104,testing_3,sh2x,ai,sh2x_ai,sh2x_8_aixai.wav,sh2x_1_aishai.wav,,FALSE,FALSE,,,,,,,,,,,,,,j,0.5516,space,0.9375,,,,,,,,0,38,38,103,1,,
57a2319b4d107800016ddccc,2023-06-16_10h43.36.336,phx_ver10,2022.2.5,Win32,60.4814322,,,,,,,,,,,,130,testing_3,sh2j,au,sh2j_au,sh2j_8_aujau.wav,sh2j_8_aujau.wav,,TRUE,FALSE,,,,,,,,,,,,,,f,0.2015,space,0.702,,,,,,,,0,39,39,129,1,,
57a2319b4d107800016ddccc,2023-06-16_10h43.36.336,phx_ver10,2022.2.5,Win32,60.4814322,,,,,,,,,,,,27,testing_3,zh2sh,a,zh2sh_a,zh2sh_1_azha.wav,zh2sh_8_asha.wav,,FALSE,FALSE,,,,,,,,,,,,,,j,0.4861,space,0.8513,,,,,,,,0,40,40,26,1,,
57a2319b4d107800016ddccc,2023-06-16_10h43.36.336,phx_ver10,2022.2.5,Win32,60.4814322,,,,,,,,,,,,15,testing_2,zh2x,ai,zh2x_ai,zh2x_1_aizhai.wav,zh2x_8_aixai.wav,,FALSE,FALSE,,,,,,,,,,,,,,j,0.3171,space,0.6842,,,,,,,,0,41,41,14,1,,
57a2319b4d107800016ddccc,2023-06-16_10h43.36.336,phx_ver10,2022.2.5,Win32,60.4814322,,,,,,,,,,,,41,testing_3,zh2sh,ei,zh2sh_ei,zh2sh_1_eizhei.wav,zh2sh_1_eizhei.wav,,TRUE,FALSE,,,,,,,,,,,,,,f,1.1189,space,1.5359,,,,,,,,0,42,42,40,1,,
57a2319b4d107800016ddccc,2023-06-16_10h43.36.336,phx_ver10,2022.2.5,Win32,60.4814322,,,,,,,,,,,,108,testing_3,sh2x,au,sh2x_au,sh2x_8_auxau.wav,sh2x_1_aushau.wav,,FALSE,FALSE,,,,,,,,,,,,,,j,0.3181,space,0.7014,,,,,,,,0,43,43,107,1,,
57a2319b4d107800016ddccc,2023-06-16_10h43.36.336,phx_ver10,2022.2.5,Win32,60.4814322,,,,,,,,,,,,144,testing_3,sh2j,i,sh2j_i,sh2j_8_iji.wav,sh2j_1_ishi.wav,,FALSE,FALSE,,,,,,,,,,,,,,j,0.2843,space,0.6662,,,,,,,,0,44,44,143,1,,
57a2319b4d107800016ddccc,2023-06-16_10h43.36.336,phx_ver10,2022.2.5,Win32,60.4814322,,,,,,,,,,,,38,testing_3,zh2sh,e,zh2sh_e,zh2sh_8_eshe.wav,zh2sh_8_eshe.wav,,TRUE,FALSE,,,,,,,,,,,,,,f,0.0686,space,0.434,,,,,,,,0,45,45,37,1,,
57a2319b4d107800016ddccc,2023-06-16_10h43.36.336,phx_ver10,2022.2.5,Win32,60.4814322,,,,,,,,,,,,81,testing_3,j2x,au,j2x_au,j2x_1_aujau.wav,j2x_1_aujau.wav,,TRUE,FALSE,,,,,,,,,,,,,,f,0.3017,space,0.6849,,,,,,,,0,46,46,80,1,,
57a2319b4d107800016ddccc,2023-06-16_10h43.36.336,phx_ver10,2022.2.5,Win32,60.4814322,,,,,,,,,,,,100,testing_3,sh2x,a,sh2x_a,sh2x_8_axa.wav,sh2x_1_asha.wav,,FALSE,FALSE,,,,,,,,,,,,,,j,0.4174,space,0.7874,,,,,,,,0,47,47,99,1,,
57a2319b4d107800016ddccc,2023-06-16_10h43.36.336,phx_ver10,2022.2.5,Win32,60.4814322,,,,,,,,,,,,67,testing_3,zh2j,ei,zh2j_ei,zh2j_1_eizhei.wav,zh2j_8_eijei.wav,,FALSE,FALSE,,,,,,,,,,,,,,f,0.3181,space,0.7007,,,,,,,,0,48,48,66,1,,
57a2319b4d107800016ddccc,2023-06-16_10h43.36.336,phx_ver10,2022.2.5,Win32,60.4814322,,,,,,,,,,,,99,testing_3,sh2x,a,sh2x_a,sh2x_1_asha.wav,sh2x_8_axa.wav,,FALSE,FALSE,,,,,,,,,,,,,,j,0.2707,space,0.6692,,,,,,,,0,49,49,98,1,,
57a2319b4d107800016ddccc,2023-06-16_10h43.36.336,phx_ver10,2022.2.5,Win32,60.4814322,,,,,,,,,,,,96,testing_3,j2x,i,j2x_i,j2x_8_ixi.wav,j2x_1_iji.wav,,FALSE,FALSE,,,,,,,,,,,,,,j,0.2681,space,0.5852,,,,,,,,0,50,50,95,1,,
57a2319b4d107800016ddccc,2023-06-16_10h43.36.336,phx_ver10,2022.2.5,Win32,60.4814322,,,,,,,,,,,,66,testing_3,zh2j,ei,zh2j_ei,zh2j_8_eijei.wav,zh2j_8_eijei.wav,,TRUE,FALSE,,,,,,,,,,,,,,f,0.098,space,0.448,,,,,,,,0,51,51,65,1,,
57a2319b4d107800016ddccc,2023-06-16_10h43.36.336,phx_ver10,2022.2.5,Win32,60.4814322,,,,,,,,,,,,35,testing_3,zh2sh,au,zh2sh_au,zh2sh_1_auzhau.wav,zh2sh_8_aushau.wav,,FALSE,FALSE,,,,,,,,,,,,,,j,0.2168,space,0.6004,,,,,,,,0,52,52,34,1,,
57a2319b4d107800016ddccc,2023-06-16_10h43.36.336,phx_ver10,2022.2.5,Win32,60.4814322,,,,,,,,,,,,106,testing_3,sh2x,au,sh2x_au,sh2x_8_auxau.wav,sh2x_8_auxau.wav,,TRUE,FALSE,,,,,,,,,,,,,,f,0.1675,space,0.5542,,,,,,,,0,53,53,105,1,,
57a2319b4d107800016ddccc,2023-06-16_10h43.36.336,phx_ver10,2022.2.5,Win32,60.4814322,,,,,,,,,,,,34,testing_3,zh2sh,au,zh2sh_au,zh2sh_8_aushau.wav,zh2sh_8_aushau.wav,,TRUE,FALSE,,,,,,,,,,,,,,f,0.6026,space,0.8856,,,,,,,,0,54,54,33,1,,
57a2319b4d107800016ddccc,2023-06-16_10h43.36.336,phx_ver10,2022.2.5,Win32,60.4814322,,,,,,,,,,,,95,testing_3,j2x,i,j2x_i,j2x_1_iji.wav,j2x_8_ixi.wav,,FALSE,FALSE,,,,,,,,,,,,,,j,0.3209,space,0.6349,,,,,,,,0,55,55,94,1,,
57a2319b4d107800016ddccc,2023-06-16_10h43.36.336,phx_ver10,2022.2.5,Win32,60.4814322,,,,,,,,,,,,73,testing_3,j2x,a,j2x_a,j2x_1_aja.wav,j2x_1_aja.wav,,TRUE,FALSE,,,,,,,,,,,,,,f,0.2344,space,0.6188,,,,,,,,0,56,56,72,1,,
57a2319b4d107800016ddccc,2023-06-16_10h43.36.336,phx_ver10,2022.2.5,Win32,60.4814322,,,,,,,,,,,,84,testing_3,j2x,au,j2x_au,j2x_8_auxau.wav,j2x_1_aujau.wav,,FALSE,FALSE,,,,,,,,,,,,,,f,0.518,space,0.8175,,,,,,,,0,57,57,83,1,,
57a2319b4d107800016ddccc,2023-06-16_10h43.36.336,phx_ver10,2022.2.5,Win32,60.4814322,,,,,,,,,,,,112,testing_3,sh2x,e,sh2x_e,sh2x_8_exe.wav,sh2x_1_eshe.wav,,FALSE,FALSE,,,,,,,,,,,,,,j,0.5182,space,0.8682,,,,,,,,0,58,58,111,1,,
57a2319b4d107800016ddccc,2023-06-16_10h43.36.336,phx_ver10,2022.2.5,Win32,60.4814322,,,,,,,,,,,,83,testing_3,j2x,au,j2x_au,j2x_1_aujau.wav,j2x_8_auxau.wav,,FALSE,FALSE,,,,,,,,,,,,,,j,0.5697,space,0.8862,,,,,,,,0,59,59,82,1,,
57a2319b4d107800016ddccc,2023-06-16_10h43.36.336,phx_ver10,2022.2.5,Win32,60.4814322,,,,,,,,,,,,131,testing_3,sh2j,au,sh2j_au,sh2j_1_aushau.wav,sh2j_8_aujau.wav,,FALSE,FALSE,,,,,,,,,,,,,,j,0.4175,space,0.6858,,,,,,,,0,60,60,130,1,,
57a2319b4d107800016ddccc,2023-06-16_10h43.36.336,phx_ver10,2022.2.5,Win32,60.4814322,,,,,,,,,,,,21,testing_2,zh2x,ei,zh2x_ei,zh2x_1_eizhei.wav,zh2x_1_eizhei.wav,,TRUE,FALSE,,,,,,,,,,,,,,f,0.0858,space,0.5516,,,,,,,,0,61,61,20,1,,
57a2319b4d107800016ddccc,2023-06-16_10h43.36.336,phx_ver10,2022.2.5,Win32,60.4814322,,,,,,,,,,,,120,testing_3,sh2x,i,sh2x_i,sh2x_8_ixi.wav,sh2x_1_ishi.wav,,FALSE,FALSE,,,,,,,,,,,,,,f,0.2831,space,0.7504,,,,,,,,0,62,62,119,1,,
57a2319b4d107800016ddccc,2023-06-16_10h43.36.336,phx_ver10,2022.2.5,Win32,60.4814322,,,,,,,,,,,,92,testing_3,j2x,ei,j2x_ei,j2x_8_eixei.wav,j2x_1_eijei.wav,,FALSE,FALSE,,,,,,,,,,,,,,f,0.4847,space,0.7849,,,,,,,,0,63,63,91,1,,
57a2319b4d107800016ddccc,2023-06-16_10h43.36.336,phx_ver10,2022.2.5,Win32,60.4814322,,,,,,,,,,,,8,testing_1,zh2x,e,zh2x_e,zh2x_8_exe.wav,zh2x_1_ezhe.wav,,FALSE,TRUE,,,,,,,,,,,,,,f,0.1525,space,0.5387,,,,,,,,0,64,64,7,1,,
57a2319b4d107800016ddccc,2023-06-16_10h43.36.336,phx_ver10,2022.2.5,Win32,60.4814322,,,,,,,,,,,,5,testing_1,zh2x,e,zh2x_e,zh2x_1_ezhe.wav,zh2x_1_ezhe_copy.wav,,TRUE,TRUE,,,,,,,,,,,,,,f,0.0679,space,0.3851,,,,,,,,0,65,65,4,1,,
57a2319b4d107800016ddccc,2023-06-16_10h43.36.336,phx_ver10,2022.2.5,Win32,60.4814322,,,,,,,,,,,,88,testing_3,j2x,e,j2x_e,j2x_8_exe.wav,j2x_1_eje.wav,,FALSE,FALSE,,,,,,,,,,,,,,j,0.4357,space,0.7689,,,,,,,,0,66,66,87,1,,
57a2319b4d107800016ddccc,2023-06-16_10h43.36.336,phx_ver10,2022.2.5,Win32,60.4814322,,,,,,,,,,,,70,testing_3,zh2j,i,zh2j_i,zh2j_8_iji.wav,zh2j_8_iji.wav,,TRUE,FALSE,,,,,,,,,,,,,,f,0.1002,space,0.3675,,,,,,,,0,67,67,69,1,,
57a2319b4d107800016ddccc,2023-06-16_10h43.36.336,phx_ver10,2022.2.5,Win32,60.4814322,,,,,,,,,,,,57,testing_3,zh2j,au,zh2j_au,zh2j_1_auzhau.wav,zh2j_1_auzhau.wav,,TRUE,FALSE,,,,,,,,,,,,,,f,0.0183,space,0.4842,,,,,,,,0,68,68,56,1,,
57a2319b4d107800016ddccc,2023-06-16_10h43.36.336,phx_ver10,2022.2.5,Win32,60.4814322,,,,,,,,,,,,30,testing_3,zh2sh,ai,zh2sh_ai,zh2sh_8_aishai.wav,zh2sh_8_aishai.wav,,TRUE,FALSE,,,,,,,,,,,,,,f,0.2682,space,0.6183,,,,,,,,0,69,69,29,1,,
57a2319b4d107800016ddccc,2023-06-16_10h43.36.336,phx_ver10,2022.2.5,Win32,60.4814322,,,,,,,,,,,,4,testing_1,zh2x,a,zh2x_a,zh2x_8_axa.wav,zh2x_1_azha.wav,,FALSE,TRUE,,,,,,,,,,,,,,j,0.3032,space,0.6183,,,,,,,,0,70,70,3,1,,
57a2319b4d107800016ddccc,2023-06-16_10h43.36.336,phx_ver10,2022.2.5,Win32,60.4814322,,,,,,,,,,,,37,testing_3,zh2sh,e,zh2sh_e,zh2sh_1_ezhe.wav,zh2sh_1_ezhe.wav,,TRUE,FALSE,,,,,,,,,,,,,,f,0.1507,space,0.4684,,,,,,,,0,71,71,36,1,,
57a2319b4d107800016ddccc,2023-06-16_10h43.36.336,phx_ver10,2022.2.5,Win32,60.4814322,,,,,,,,,,,,11,testing_1,zh2x,i,zh2x_i,zh2x_1_izhi.wav,zh2x_8_ixi.wav,,FALSE,TRUE,,,,,,,,,,,,,,j,0.3215,space,0.6358,,,,,,,,0,72,72,10,1,,
57a2319b4d107800016ddccc,2023-06-16_10h43.36.336,phx_ver10,2022.2.5,Win32,60.4814322,,,,,,,,,,,,16,testing_2,zh2x,ai,zh2x_ai,zh2x_8_aixai.wav,zh2x_1_aizhai.wav,,FALSE,FALSE,,,,,,,,,,,,,,j,0.6862,space,0.9398,,,,,,,,0,73,73,15,1,,
57a2319b4d107800016ddccc,2023-06-16_10h43.36.336,phx_ver10,2022.2.5,Win32,60.4814322,,,,,,,,,,,,18,testing_2,zh2x,au,zh2x_au,zh2x_8_auxau.wav,zh2x_8_auxau.wav,,TRUE,FALSE,,,,,,,,,,,,,,f,0.1,space,0.4189,,,,,,,,0,74,74,17,1,,
57a2319b4d107800016ddccc,2023-06-16_10h43.36.336,phx_ver10,2022.2.5,Win32,60.4814322,,,,,,,,,,,,48,testing_3,zh2sh,i,zh2sh_i,zh2sh_8_ishi.wav,zh2sh_1_izhi.wav,,FALSE,FALSE,,,,,,,,,,,,,,j,0.3017,space,0.5719,,,,,,,,0,75,75,47,1,,
57a2319b4d107800016ddccc,2023-06-16_10h43.36.336,phx_ver10,2022.2.5,Win32,60.4814322,,,,,,,,,,,,132,testing_3,sh2j,au,sh2j_au,sh2j_8_aujau.wav,sh2j_1_aushau.wav,,FALSE,FALSE,,,,,,,,,,,,,,j,0.7202,space,1.0519,,,,,,,,0,76,76,131,1,,
57a2319b4d107800016ddccc,2023-06-16_10h43.36.336,phx_ver10,2022.2.5,Win32,60.4814322,,,,,,,,,,,,86,testing_3,j2x,e,j2x_e,j2x_8_exe.wav,j2x_8_exe.wav,,TRUE,FALSE,,,,,,,,,,,,,,f,0.584,space,0.8377,,,,,,,,0,77,77,85,1,,
57a2319b4d107800016ddccc,2023-06-16_10h43.36.336,phx_ver10,2022.2.5,Win32,60.4814322,,,,,,,,,,,,129,testing_3,sh2j,au,sh2j_au,sh2j_1_aushau.wav,sh2j_1_aushau.wav,,TRUE,FALSE,,,,,,,,,,,,,,f,0.4872,space,0.8023,,,,,,,,0,78,78,128,1,,
57a2319b4d107800016ddccc,2023-06-16_10h43.36.336,phx_ver10,2022.2.5,Win32,60.4814322,,,,,,,,,,,,52,testing_3,zh2j,a,zh2j_a,zh2j_8_aja.wav,zh2j_1_azha.wav,,FALSE,FALSE,,,,,,,,,,,,,,f,0.6045,space,0.9023,,,,,,,,0,79,79,51,1,,
57a2319b4d107800016ddccc,2023-06-16_10h43.36.336,phx_ver10,2022.2.5,Win32,60.4814322,,,,,,,,,,,,3,testing_1,zh2x,a,zh2x_a,zh2x_1_azha.wav,zh2x_8_axa.wav,,FALSE,TRUE,,,,,,,,,,,,,,j,0.1855,space,0.6023,,,,,,,,0,80,80,2,1,,
57a2319b4d107800016ddccc,2023-06-16_10h43.36.336,phx_ver10,2022.2.5,Win32,60.4814322,,,,,,,,,,,,76,testing_3,j2x,a,j2x_a,j2x_8_axa.wav,j2x_1_aja.wav,,FALSE,FALSE,,,,,,,,,,,,,,j,0.6345,space,0.9516,,,,,,,,0,81,81,75,1,,
57a2319b4d107800016ddccc,2023-06-16_10h43.36.336,phx_ver10,2022.2.5,Win32,60.4814322,,,,,,,,,,,,56,testing_3,zh2j,ai,zh2j_ai,zh2j_8_aijai.wav,zh2j_1_aizhai.wav,,FALSE,FALSE,,,,,,,,,,,,,,f,0.436,space,0.7357,,,,,,,,0,82,82,55,1,,
57a2319b4d107800016ddccc,2023-06-16_10h43.36.336,phx_ver10,2022.2.5,Win32,60.4814322,,,,,,,,,,,,110,testing_3,sh2x,e,sh2x_e,sh2x_8_exe.wav,sh2x_8_exe.wav,,TRUE,FALSE,,,,,,,,,,,,,,f,0.0535,space,0.4346,,,,,,,,0,83,83,109,1,,
57a2319b4d107800016ddccc,2023-06-16_10h43.36.336,phx_ver10,2022.2.5,Win32,60.4814322,,,,,,,,,,,,94,testing_3,j2x,i,j2x_i,j2x_8_ixi.wav,j2x_8_ixi.wav,,TRUE,FALSE,,,,,,,,,,,,,,f,0.1618,space,0.528,,,,,,,,0,84,84,93,1,,
57a2319b4d107800016ddccc,2023-06-16_10h43.36.336,phx_ver10,2022.2.5,Win32,60.4814322,,,,,,,,,,,,69,testing_3,zh2j,i,zh2j_i,zh2j_1_izhi.wav,zh2j_1_izhi.wav,,TRUE,FALSE,,,,,,,,,,,,,,f,0.1011,space,0.4691,,,,,,,,0,85,85,68,1,,
57a2319b4d107800016ddccc,2023-06-16_10h43.36.336,phx_ver10,2022.2.5,Win32,60.4814322,,,,,,,,,,,,124,testing_3,sh2j,a,sh2j_a,sh2j_8_aja.wav,sh2j_1_asha.wav,,FALSE,FALSE,,,,,,,,,,,,,,j,0.1842,space,0.5875,,,,,,,,0,86,86,123,1,,
57a2319b4d107800016ddccc,2023-06-16_10h43.36.336,phx_ver10,2022.2.5,Win32,60.4814322,,,,,,,,,,,,133,testing_3,sh2j,e,sh2j_e,sh2j_1_eshe.wav,sh2j_1_eshe.wav,,TRUE,FALSE,,,,,,,,,,,,,,f,0.3675,space,0.652,,,,,,,,0,87,87,132,1,,
57a2319b4d107800016ddccc,2023-06-16_10h43.36.336,phx_ver10,2022.2.5,Win32,60.4814322,,,,,,,,,,,,107,testing_3,sh2x,au,sh2x_au,sh2x_1_aushau.wav,sh2x_8_auxau.wav,,FALSE,FALSE,,,,,,,,,,,,,,j,0.2676,space,0.5684,,,,,,,,0,88,88,106,1,,
57a2319b4d107800016ddccc,2023-06-16_10h43.36.336,phx_ver10,2022.2.5,Win32,60.4814322,,,,,,,,,,,,23,testing_2,zh2x,ei,zh2x_ei,zh2x_1_eizhei.wav,zh2x_8_eixei.wav,,FALSE,FALSE,,,,,,,,,,,,,,j,0.452,space,0.7358,,,,,,,,0,89,89,22,1,,
57a2319b4d107800016ddccc,2023-06-16_10h43.36.336,phx_ver10,2022.2.5,Win32,60.4814322,,,,,,,,,,,,53,testing_3,zh2j,ai,zh2j_ai,zh2j_1_aizhai.wav,zh2j_1_aizhai.wav,,TRUE,FALSE,,,,,,,,,,,,,,j,0.6407,space,0.8695,,,,,,,,0,90,90,52,1,,
57a2319b4d107800016ddccc,2023-06-16_10h43.36.336,phx_ver10,2022.2.5,Win32,60.4814322,,,,,,,,,,,,117,testing_3,sh2x,i,sh2x_i,sh2x_1_ishi.wav,sh2x_1_ishi.wav,,TRUE,FALSE,,,,,,,,,,,,,,j,0.2682,space,0.5342,,,,,,,,0,91,91,116,1,,
57a2319b4d107800016ddccc,2023-06-16_10h43.36.336,phx_ver10,2022.2.5,Win32,60.4814322,,,,,,,,,,,,50,testing_3,zh2j,a,zh2j_a,zh2j_8_aja.wav,zh2j_8_aja.wav,,TRUE,FALSE,,,,,,,,,,,,,,j,0.5054,space,0.7025,,,,,,,,0,92,92,49,1,,
57a2319b4d107800016ddccc,2023-06-16_10h43.36.336,phx_ver10,2022.2.5,Win32,60.4814322,,,,,,,,,,,,62,testing_3,zh2j,e,zh2j_e,zh2j_8_eje.wav,zh2j_8_eje.wav,,TRUE,FALSE,,,,,,,,,,,,,,f,0.6652,space,1.1997,,,,,,,,0,93,93,61,1,,
57a2319b4d107800016ddccc,2023-06-16_10h43.36.336,phx_ver10,2022.2.5,Win32,60.4814322,,,,,,,,,,,,10,testing_1,zh2x,i,zh2x_i,zh2x_8_ixi.wav,zh2x_8_ixi_copy.wav,,TRUE,TRUE,,,,,,,,,,,,,,f,0.3686,space,0.752,,,,,,,,0,94,94,9,1,,
57a2319b4d107800016ddccc,2023-06-16_10h43.36.336,phx_ver10,2022.2.5,Win32,60.4814322,,,,,,,,,,,,78,testing_3,j2x,ai,j2x_ai,j2x_8_aixai.wav,j2x_8_aixai.wav,,TRUE,FALSE,,,,,,,,,,,,,,f,0.6015,space,0.9205,,,,,,,,0,95,95,77,1,,
57a2319b4d107800016ddccc,2023-06-16_10h43.36.336,phx_ver10,2022.2.5,Win32,60.4814322,,,,,,,,,,,,123,testing_3,sh2j,a,sh2j_a,sh2j_1_asha.wav,sh2j_8_aja.wav,,FALSE,FALSE,,,,,,,,,,,,,,j,0.3026,space,0.568,,,,,,,,0,96,96,122,1,,
57a2319b4d107800016ddccc,2023-06-16_10h43.36.336,phx_ver10,2022.2.5,Win32,60.4814322,,,,,,,,,,,,6,testing_1,zh2x,e,zh2x_e,zh2x_8_exe.wav,zh2x_8_exe_copy.wav,,TRUE,TRUE,,,,,,,,,,,,,,j,0.2844,space,0.6188,,,,,,,,0,97,97,5,1,,
57a2319b4d107800016ddccc,2023-06-16_10h43.36.336,phx_ver10,2022.2.5,Win32,60.4814322,,,,,,,,,,,,142,testing_3,sh2j,i,sh2j_i,sh2j_8_iji.wav,sh2j_8_iji.wav,,TRUE,FALSE,,,,,,,,,,,,,,f,0.3671,space,0.9184,,,,,,,,0,98,98,141,1,,
57a2319b4d107800016ddccc,2023-06-16_10h43.36.336,phx_ver10,2022.2.5,Win32,60.4814322,,,,,,,,,,,,65,testing_3,zh2j,ei,zh2j_ei,zh2j_1_eizhei.wav,zh2j_1_eizhei.wav,,TRUE,FALSE,,,,,,,,,,,,,,f,0.0188,space,0.3518,,,,,,,,0,99,99,64,1,,
57a2319b4d107800016ddccc,2023-06-16_10h43.36.336,phx_ver10,2022.2.5,Win32,60.4814322,,,,,,,,,,,,1,testing_1,zh2x,a,zh2x_a,zh2x_1_azha.wav,zh2x_1_azha_copy.wav,,TRUE,TRUE,,,,,,,,,,,,,,f,0.0679,space,0.3513,,,,,,,,0,100,100,0,1,,
57a2319b4d107800016ddccc,2023-06-16_10h43.36.336,phx_ver10,2022.2.5,Win32,60.4814322,,,,,,,,,,,,40,testing_3,zh2sh,e,zh2sh_e,zh2sh_8_eshe.wav,zh2sh_1_ezhe.wav,,FALSE,FALSE,,,,,,,,,,,,,,j,0.3504,space,0.6506,,,,,,,,0,101,101,39,1,,
57a2319b4d107800016ddccc,2023-06-16_10h43.36.336,phx_ver10,2022.2.5,Win32,60.4814322,,,,,,,,,,,,139,testing_3,sh2j,ei,sh2j_ei,sh2j_1_eishei.wav,sh2j_8_eijei.wav,,FALSE,FALSE,,,,,,,,,,,,,,j,0.3685,space,0.6191,,,,,,,,0,102,102,138,1,,
57a2319b4d107800016ddccc,2023-06-16_10h43.36.336,phx_ver10,2022.2.5,Win32,60.4814322,,,,,,,,,,,,126,testing_3,sh2j,ai,sh2j_ai,sh2j_8_aijai.wav,sh2j_8_aijai.wav,,TRUE,FALSE,,,,,,,,,,,,,,f,1.2021,space,1.5187,,,,,,,,0,103,103,125,1,,
57a2319b4d107800016ddccc,2023-06-16_10h43.36.336,phx_ver10,2022.2.5,Win32,60.4814322,,,,,,,,,,,,109,testing_3,sh2x,e,sh2x_e,sh2x_1_eshe.wav,sh2x_1_eshe.wav,,TRUE,FALSE,,,,,,,,,,,,,,f,0.0231,space,0.3848,,,,,,,,0,104,104,108,1,,
57a2319b4d107800016ddccc,2023-06-16_10h43.36.336,phx_ver10,2022.2.5,Win32,60.4814322,,,,,,,,,,,,136,testing_3,sh2j,e,sh2j_e,sh2j_8_eje.wav,sh2j_1_eshe.wav,,FALSE,FALSE,,,,,,,,,,,,,,j,0.4017,space,0.7178,,,,,,,,0,105,105,135,1,,
57a2319b4d107800016ddccc,2023-06-16_10h43.36.336,phx_ver10,2022.2.5,Win32,60.4814322,,,,,,,,,,,,19,testing_2,zh2x,au,zh2x_au,zh2x_1_auzhau.wav,zh2x_8_auxau.wav,,FALSE,FALSE,,,,,,,,,,,,,,j,0.2729,space,0.5844,,,,,,,,0,106,106,18,1,,
57a2319b4d107800016ddccc,2023-06-16_10h43.36.336,phx_ver10,2022.2.5,Win32,60.4814322,,,,,,,,,,,,101,testing_3,sh2x,ai,sh2x_ai,sh2x_1_aishai.wav,sh2x_1_aishai.wav,,TRUE,FALSE,,,,,,,,,,,,,,f,0.1676,space,0.4339,,,,,,,,0,107,107,100,1,,
57a2319b4d107800016ddccc,2023-06-16_10h43.36.336,phx_ver10,2022.2.5,Win32,60.4814322,,,,,,,,,,,,9,testing_1,zh2x,i,zh2x_i,zh2x_1_izhi.wav,zh2x_1_izhi_copy.wav,,TRUE,TRUE,,,,,,,,,,,,,,f,0.2395,space,0.5193,,,,,,,,0,108,108,8,1,,
57a2319b4d107800016ddccc,2023-06-16_10h43.36.336,phx_ver10,2022.2.5,Win32,60.4814322,,,,,,,,,,,,82,testing_3,j2x,au,j2x_au,j2x_8_auxau.wav,j2x_8_auxau.wav,,TRUE,FALSE,,,,,,,,,,,,,,j,0.3342,space,0.6021,,,,,,,,0,109,109,81,1,,
57a2319b4d107800016ddccc,2023-06-16_10h43.36.336,phx_ver10,2022.2.5,Win32,60.4814322,,,,,,,,,,,,2,testing_1,zh2x,a,zh2x_a,zh2x_8_axa.wav,zh2x_8_axa_copy.wav,,TRUE,TRUE,,,,,,,,,,,,,,f,0.1186,space,0.7712,,,,,,,,0,110,110,1,1,,
57a2319b4d107800016ddccc,2023-06-16_10h43.36.336,phx_ver10,2022.2.5,Win32,60.4814322,,,,,,,,,,,,93,testing_3,j2x,i,j2x_i,j2x_1_iji.wav,j2x_1_iji.wav,,TRUE,FALSE,,,,,,,,,,,,,,f,0.1347,space,0.5043,,,,,,,,0,111,111,92,1,,
57a2319b4d107800016ddccc,2023-06-16_10h43.36.336,phx_ver10,2022.2.5,Win32,60.4814322,,,,,,,,,,,,74,testing_3,j2x,a,j2x_a,j2x_8_axa.wav,j2x_8_axa.wav,,TRUE,FALSE,,,,,,,,,,,,,,f,0.0176,space,0.3532,,,,,,,,0,112,112,73,1,,
57a2319b4d107800016ddccc,2023-06-16_10h43.36.336,phx_ver10,2022.2.5,Win32,60.4814322,,,,,,,,,,,,125,testing_3,sh2j,ai,sh2j_ai,sh2j_1_aishai.wav,sh2j_1_aishai.wav,,TRUE,FALSE,,,,,,,,,,,,,,f,0.6701,space,1.0553,,,,,,,,0,113,113,124,1,,
57a2319b4d107800016ddccc,2023-06-16_10h43.36.336,phx_ver10,2022.2.5,Win32,60.4814322,,,,,,,,,,,,26,testing_3,zh2sh,a,zh2sh_a,zh2sh_8_asha.wav,zh2sh_8_asha.wav,,TRUE,FALSE,,,,,,,,,,,,,,f,0.4241,space,0.7183,,,,,,,,0,114,114,25,1,,
57a2319b4d107800016ddccc,2023-06-16_10h43.36.336,phx_ver10,2022.2.5,Win32,60.4814322,,,,,,,,,,,,61,testing_3,zh2j,e,zh2j_e,zh2j_1_ezhe.wav,zh2j_1_ezhe.wav,,TRUE,FALSE,,,,,,,,,,,,,,f,0.0847,space,0.5186,,,,,,,,0,115,115,60,1,,
57a2319b4d107800016ddccc,2023-06-16_10h43.36.336,phx_ver10,2022.2.5,Win32,60.4814322,,,,,,,,,,,,138,testing_3,sh2j,ei,sh2j_ei,sh2j_8_eijei.wav,sh2j_8_eijei.wav,,TRUE,FALSE,,,,,,,,,,,,,,f,0.1178,space,0.5016,,,,,,,,0,116,116,137,1,,
57a2319b4d107800016ddccc,2023-06-16_10h43.36.336,phx_ver10,2022.2.5,Win32,60.4814322,,,,,,,,,,,,122,testing_3,sh2j,a,sh2j_a,sh2j_8_aja.wav,sh2j_8_aja.wav,,TRUE,FALSE,,,,,,,,,,,,,,f,0.1085,space,0.5355,,,,,,,,0,117,117,121,1,,
57a2319b4d107800016ddccc,2023-06-16_10h43.36.336,phx_ver10,2022.2.5,Win32,60.4814322,,,,,,,,,,,,121,testing_3,sh2j,a,sh2j_a,sh2j_1_asha.wav,sh2j_1_asha.wav,,TRUE,FALSE,,,,,,,,,,,,,,f,0.0172,space,0.3344,,,,,,,,0,118,118,120,1,,
57a2319b4d107800016ddccc,2023-06-16_10h43.36.336,phx_ver10,2022.2.5,Win32,60.4814322,,,,,,,,,,,,68,testing_3,zh2j,ei,zh2j_ei,zh2j_8_eijei.wav,zh2j_1_eizhei.wav,,FALSE,FALSE,,,,,,,,,,,,,,f,0.0685,space,0.3509,,,,,,,,0,119,119,67,1,,
57a2319b4d107800016ddccc,2023-06-16_10h43.36.336,phx_ver10,2022.2.5,Win32,60.4814322,,,,,,,,,,,,128,testing_3,sh2j,ai,sh2j_ai,sh2j_8_aijai.wav,sh2j_1_aishai.wav,,FALSE,FALSE,,,,,,,,,,,,,,j,0.288,space,0.669,,,,,,,,0,120,120,127,1,,
57a2319b4d107800016ddccc,2023-06-16_10h43.36.336,phx_ver10,2022.2.5,Win32,60.4814322,,,,,,,,,,,,135,testing_3,sh2j,e,sh2j_e,sh2j_1_eshe.wav,sh2j_8_eje.wav,,FALSE,FALSE,,,,,,,,,,,,,,j,0.1704,space,0.5199,,,,,,,,0,121,121,134,1,,
57a2319b4d107800016ddccc,2023-06-16_10h43.36.336,phx_ver10,2022.2.5,Win32,60.4814322,,,,,,,,,,,,85,testing_3,j2x,e,j2x_e,j2x_1_eje.wav,j2x_1_eje.wav,,TRUE,FALSE,,,,,,,,,,,,,,f,0.0857,space,0.4177,,,,,,,,0,122,122,84,1,,
57a2319b4d107800016ddccc,2023-06-16_10h43.36.336,phx_ver10,2022.2.5,Win32,60.4814322,,,,,,,,,,,,87,testing_3,j2x,e,j2x_e,j2x_1_eje.wav,j2x_8_exe.wav,,FALSE,FALSE,,,,,,,,,,,,,,j,0.2844,space,0.5396,,,,,,,,0,123,123,86,1,,
57a2319b4d107800016ddccc,2023-06-16_10h43.36.336,phx_ver10,2022.2.5,Win32,60.4814322,,,,,,,,,,,,29,testing_3,zh2sh,ai,zh2sh_ai,zh2sh_1_aizhai.wav,zh2sh_1_aizhai.wav,,TRUE,FALSE,,,,,,,,,,,,,,f,0.151,space,0.5349,,,,,,,,0,124,124,28,1,,
57a2319b4d107800016ddccc,2023-06-16_10h43.36.336,phx_ver10,2022.2.5,Win32,60.4814322,,,,,,,,,,,,79,testing_3,j2x,ai,j2x_ai,j2x_1_aijai.wav,j2x_8_aixai.wav,,FALSE,FALSE,,,,,,,,,,,,,,j,0.1679,space,0.4855,,,,,,,,0,125,125,78,1,,
57a2319b4d107800016ddccc,2023-06-16_10h43.36.336,phx_ver10,2022.2.5,Win32,60.4814322,,,,,,,,,,,,97,testing_3,sh2x,a,sh2x_a,sh2x_1_asha.wav,sh2x_1_asha.wav,,TRUE,FALSE,,,,,,,,,,,,,,f,0.0679,space,0.3513,,,,,,,,0,126,126,96,1,,
57a2319b4d107800016ddccc,2023-06-16_10h43.36.336,phx_ver10,2022.2.5,Win32,60.4814322,,,,,,,,,,,,77,testing_3,j2x,ai,j2x_ai,j2x_1_aijai.wav,j2x_1_aijai.wav,,TRUE,FALSE,,,,,,,,,,,,,,f,0.1169,space,0.4175,,,,,,,,0,127,127,76,1,,
57a2319b4d107800016ddccc,2023-06-16_10h43.36.336,phx_ver10,2022.2.5,Win32,60.4814322,,,,,,,,,,,,46,testing_3,zh2sh,i,zh2sh_i,zh2sh_8_ishi.wav,zh2sh_8_ishi.wav,,TRUE,FALSE,,,,,,,,,,,,,,f,0.0517,space,0.3692,,,,,,,,0,128,128,45,1,,
57a2319b4d107800016ddccc,2023-06-16_10h43.36.336,phx_ver10,2022.2.5,Win32,60.4814322,,,,,,,,,,,,7,testing_1,zh2x,e,zh2x_e,zh2x_1_ezhe.wav,zh2x_8_exe.wav,,FALSE,TRUE,,,,,,,,,,,,,,j,0.4166,space,0.6694,,,,,,,,0,129,129,6,1,,
57a2319b4d107800016ddccc,2023-06-16_10h43.36.336,phx_ver10,2022.2.5,Win32,60.4814322,,,,,,,,,,,,89,testing_3,j2x,ei,j2x_ei,j2x_1_eijei.wav,j2x_1_eijei.wav,,TRUE,FALSE,,,,,,,,,,,,,,f,0.2049,space,0.5182,,,,,,,,0,130,130,88,1,,
57a2319b4d107800016ddccc,2023-06-16_10h43.36.336,phx_ver10,2022.2.5,Win32,60.4814322,,,,,,,,,,,,137,testing_3,sh2j,ei,sh2j_ei,sh2j_1_eishei.wav,sh2j_1_eishei.wav,,TRUE,FALSE,,,,,,,,,,,,,,f,0.0016,space,0.2829,,,,,,,,0,131,131,136,1,,
57a2319b4d107800016ddccc,2023-06-16_10h43.36.336,phx_ver10,2022.2.5,Win32,60.4814322,,,,,,,,,,,,28,testing_3,zh2sh,a,zh2sh_a,zh2sh_8_asha.wav,zh2sh_1_azha.wav,,FALSE,FALSE,,,,,,,,,,,,,,j,0.6684,space,0.9688,,,,,,,,0,132,132,27,1,,
57a2319b4d107800016ddccc,2023-06-16_10h43.36.336,phx_ver10,2022.2.5,Win32,60.4814322,,,,,,,,,,,,36,testing_3,zh2sh,au,zh2sh_au,zh2sh_8_aushau.wav,zh2sh_1_auzhau.wav,,FALSE,FALSE,,,,,,,,,,,,,,j,0.3699,space,0.5901,,,,,,,,0,133,133,35,1,,
57a2319b4d107800016ddccc,2023-06-16_10h43.36.336,phx_ver10,2022.2.5,Win32,60.4814322,,,,,,,,,,,,91,testing_3,j2x,ei,j2x_ei,j2x_1_eijei.wav,j2x_8_eixei.wav,,FALSE,FALSE,,,,,,,,,,,,,,j,0.3181,space,0.5547,,,,,,,,0,134,134,90,1,,
57a2319b4d107800016ddccc,2023-06-16_10h43.36.336,phx_ver10,2022.2.5,Win32,60.4814322,,,,,,,,,,,,119,testing_3,sh2x,i,sh2x_i,sh2x_1_ishi.wav,sh2x_8_ixi.wav,,FALSE,FALSE,,,,,,,,,,,,,,j,0.3688,space,0.6184,,,,,,,,0,135,135,118,1,,
57a2319b4d107800016ddccc,2023-06-16_10h43.36.336,phx_ver10,2022.2.5,Win32,60.4814322,,,,,,,,,,,,114,testing_3,sh2x,ei,sh2x_ei,sh2x_8_eixei.wav,sh2x_8_eixei.wav,,TRUE,FALSE,,,,,,,,,,,,,,f,0.4193,space,0.6498,,,,,,,,0,136,136,113,1,,
57a2319b4d107800016ddccc,2023-06-16_10h43.36.336,phx_ver10,2022.2.5,Win32,60.4814322,,,,,,,,,,,,42,testing_3,zh2sh,ei,zh2sh_ei,zh2sh_8_eishei.wav,zh2sh_8_eishei.wav,,TRUE,FALSE,,,,,,,,,,,,,,f,0.5354,space,0.7693,,,,,,,,0,137,137,41,1,,
57a2319b4d107800016ddccc,2023-06-16_10h43.36.336,phx_ver10,2022.2.5,Win32,60.4814322,,,,,,,,,,,,12,testing_1,zh2x,i,zh2x_i,zh2x_8_ixi.wav,zh2x_1_izhi.wav,,FALSE,TRUE,,,,,,,,,,,,,,j,0.1853,space,0.4682,,,,,,,,0,138,138,11,1,,
57a2319b4d107800016ddccc,2023-06-16_10h43.36.336,phx_ver10,2022.2.5,Win32,60.4814322,,,,,,,,,,,,116,testing_3,sh2x,ei,sh2x_ei,sh2x_8_eixei.wav,sh2x_1_eishei.wav,,FALSE,FALSE,,,,,,,,,,,,,,f,0.1851,space,0.4681,,,,,,,,0,139,139,115,1,,
57a2319b4d107800016ddccc,2023-06-16_10h43.36.336,phx_ver10,2022.2.5,Win32,60.4814322,,,,,,,,,,,,33,testing_3,zh2sh,au,zh2sh_au,zh2sh_1_auzhau.wav,zh2sh_1_auzhau.wav,,TRUE,FALSE,,,,,,,,,,,,,,f,0.0011,space,0.3518,,,,,,,,0,140,140,32,1,,
57a2319b4d107800016ddccc,2023-06-16_10h43.36.336,phx_ver10,2022.2.5,Win32,60.4814322,,,,,,,,,,,,44,testing_3,zh2sh,ei,zh2sh_ei,zh2sh_8_eishei.wav,zh2sh_1_eizhei.wav,,FALSE,FALSE,,,,,,,,,,,,,,j,0.2007,space,0.5687,,,,,,,,0,141,141,43,1,,
57a2319b4d107800016ddccc,2023-06-16_10h43.36.336,phx_ver10,2022.2.5,Win32,60.4814322,,,,,,,,,,,,90,testing_3,j2x,ei,j2x_ei,j2x_8_eixei.wav,j2x_8_eixei.wav,,TRUE,FALSE,,,,,,,,,,,,,,f,0.2005,space,0.5341,,,,,,,,0,142,142,89,1,,
57a2319b4d107800016ddccc,2023-06-16_10h43.36.336,phx_ver10,2022.2.5,Win32,60.4814322,,,,,,,,,,,,47,testing_3,zh2sh,i,zh2sh_i,zh2sh_1_izhi.wav,zh2sh_8_ishi.wav,,FALSE,FALSE,,,,,,,,,,,,,,j,0.1556,space,0.5017,,,,,,,,0,143,143,46,1,,
57a2319b4d107800016ddccc,2023-06-16_10h43.36.336,phx_ver10,2022.2.5,Win32,60.4814322,,,,,,,,,,,,,,,,,,,,,,,,,,,,,,,,,,,,,,,,,,,,,,,,,,,space,1.9772
