participant,date,expName,psychopyVersion,OS,frameRate,space_1.keys,space_1.rt,space_2.keys,space_2.rt,space_train.keys,space_train.rt,training.thisRepN,training.thisTrialN,training.thisN,training.thisIndex,training.ran,token_id,task,continuum,vowel,series,sound_1,sound_2,img,same,trained,FJ_attn.keys,FJ_attn.rt,space_attn.keys,space_attn.rt,if_attn_test.thisRepN,if_attn_test.thisTrialN,if_attn_test.thisN,if_attn_test.thisIndex,if_attn_test.ran,space_trans_1.keys,space_trans_1.rt,space_trans_11.keys,space_trans_11.rt,FJ_test.keys,FJ_test.rt,space_test.keys,space_test.rt,testing_pre.thisRepN,testing_pre.thisTrialN,testing_pre.thisN,testing_pre.thisIndex,testing_pre.ran,space_trans_2.keys,space_trans_2.rt,testing_all.thisRepN,testing_all.thisTrialN,testing_all.thisN,testing_all.thisIndex,testing_all.ran,space_ending.keys,space_ending.rt
587a40cfd22a5800014c5ad1,2023-06-16_10h04.52.512,phx_ver10,2022.2.5,Win32,59.91970759,,,,,,,,,,,,,,,,,,,,,,,,,,,,,,,,,,,,,,,,,,,,,,,,,,,,
587a40cfd22a5800014c5ad1,2023-06-16_10h04.52.512,phx_ver10,2022.2.5,Win32,59.91970759,space,0.6296,,,,,,,,,,,,,,,,,,,,,,,,,,,,,,,,,,,,,,,,,,,,,,,,,,
587a40cfd22a5800014c5ad1,2023-06-16_10h04.52.512,phx_ver10,2022.2.5,Win32,59.91970759,,,space,0.517,,,,,,,,,,,,,,,,,,,,,,,,,,,,,,,,,,,,,,,,,,,,,,,,
587a40cfd22a5800014c5ad1,2023-06-16_10h04.52.512,phx_ver10,2022.2.5,Win32,59.91970759,,,,,space,1.3347,0,0,0,4,1,5,training,zh2x,a,zh2x_a,zh2x_2_azha.wav,,azha.jpg,,,,,,,,,,,,,,,,,,,,,,,,,,,,,,,,,
587a40cfd22a5800014c5ad1,2023-06-16_10h04.52.512,phx_ver10,2022.2.5,Win32,59.91970759,,,,,space,0.5674,0,1,1,12,1,13,training,zh2x,a,zh2x_a,zh2x_7_axa.wav,,axa.jpg,,,,,,,,,,,,,,,,,,,,,,,,,,,,,,,,,
587a40cfd22a5800014c5ad1,2023-06-16_10h04.52.512,phx_ver10,2022.2.5,Win32,59.91970759,,,,,space,0.1338,0,2,2,8,1,9,training,zh2x,a,zh2x_a,zh2x_5_axa.wav,,axa.jpg,,,,,,,,,,,,,,,,,,,,,,,,,,,,,,,,,
587a40cfd22a5800014c5ad1,2023-06-16_10h04.52.512,phx_ver10,2022.2.5,Win32,59.91970759,,,,,space,0.2798,0,3,3,30,1,31,training,zh2x,e,zh2x_e,zh2x_7_exe.wav,,exe.jpg,,,,,,,,,,,,,,,,,,,,,,,,,,,,,,,,,
587a40cfd22a5800014c5ad1,2023-06-16_10h04.52.512,phx_ver10,2022.2.5,Win32,59.91970759,,,,,space,0.1339,0,4,4,14,1,15,training,zh2x,a,zh2x_a,zh2x_7_axa.wav,,axa.jpg,,,,,,,,,,,,,,,,,,,,,,,,,,,,,,,,,
587a40cfd22a5800014c5ad1,2023-06-16_10h04.52.512,phx_ver10,2022.2.5,Win32,59.91970759,,,,,space,0.5021,0,5,5,31,1,32,training,zh2x,e,zh2x_e,zh2x_8_exe.wav,,exe.jpg,,,,,,,,,,,,,,,,,,,,,,,,,,,,,,,,,
587a40cfd22a5800014c5ad1,2023-06-16_10h04.52.512,phx_ver10,2022.2.5,Win32,59.91970759,,,,,,,,,,,,,attn_test,,,,zh2x_8_axa.wav,zh2x_1_azha.wav,azha.jpg,RIGHT,,f,3.0005,space,3.7839,0,0,0,0,1,,,,,,,,,,,,,,,,,,,,,,
587a40cfd22a5800014c5ad1,2023-06-16_10h04.52.512,phx_ver10,2022.2.5,Win32,59.91970759,,,,,space,0.5175,0,6,6,36,1,37,training,zh2x,i,zh2x_i,zh2x_2_izhi.wav,,izhi.jpg,,,,,,,,,,,,,,,,,,,,,,,,,,,,,,,,,
587a40cfd22a5800014c5ad1,2023-06-16_10h04.52.512,phx_ver10,2022.2.5,Win32,59.91970759,,,,,space,0.6002,0,7,7,37,1,38,training,zh2x,i,zh2x_i,zh2x_3_izhi.wav,,izhi.jpg,,,,,,,,,,,,,,,,,,,,,,,,,,,,,,,,,
587a40cfd22a5800014c5ad1,2023-06-16_10h04.52.512,phx_ver10,2022.2.5,Win32,59.91970759,,,,,space,0.267,0,8,8,6,1,7,training,zh2x,a,zh2x_a,zh2x_3_azha.wav,,azha.jpg,,,,,,,,,,,,,,,,,,,,,,,,,,,,,,,,,
587a40cfd22a5800014c5ad1,2023-06-16_10h04.52.512,phx_ver10,2022.2.5,Win32,59.91970759,,,,,space,0.1337,0,9,9,2,1,3,training,zh2x,a,zh2x_a,zh2x_2_azha.wav,,azha.jpg,,,,,,,,,,,,,,,,,,,,,,,,,,,,,,,,,
587a40cfd22a5800014c5ad1,2023-06-16_10h04.52.512,phx_ver10,2022.2.5,Win32,59.91970759,,,,,space,0.1344,0,10,10,43,1,44,training,zh2x,i,zh2x_i,zh2x_7_ixi.wav,,ixi.jpg,,,,,,,,,,,,,,,,,,,,,,,,,,,,,,,,,
587a40cfd22a5800014c5ad1,2023-06-16_10h04.52.512,phx_ver10,2022.2.5,Win32,59.91970759,,,,,space,0.2173,0,11,11,45,1,46,training,zh2x,i,zh2x_i,zh2x_7_ixi.wav,,ixi.jpg,,,,,,,,,,,,,,,,,,,,,,,,,,,,,,,,,
587a40cfd22a5800014c5ad1,2023-06-16_10h04.52.512,phx_ver10,2022.2.5,Win32,59.91970759,,,,,,,,,,,,,attn_test,,,,zh2x_8_axa.wav,zh2x_8_ixi.wav,ixi.jpg,RIGHT,,j,2.0173,space,2.2837,0,0,0,0,1,,,,,,,,,,,,,,,,,,,,,,
587a40cfd22a5800014c5ad1,2023-06-16_10h04.52.512,phx_ver10,2022.2.5,Win32,59.91970759,,,,,space,1.5176,0,12,12,39,1,40,training,zh2x,i,zh2x_i,zh2x_4_izhi.wav,,izhi.jpg,,,,,,,,,,,,,,,,,,,,,,,,,,,,,,,,,
587a40cfd22a5800014c5ad1,2023-06-16_10h04.52.512,phx_ver10,2022.2.5,Win32,59.91970759,,,,,space,0.5339,0,13,13,35,1,36,training,zh2x,i,zh2x_i,zh2x_2_izhi.wav,,izhi.jpg,,,,,,,,,,,,,,,,,,,,,,,,,,,,,,,,,
587a40cfd22a5800014c5ad1,2023-06-16_10h04.52.512,phx_ver10,2022.2.5,Win32,59.91970759,,,,,space,0.265,0,14,14,40,1,41,training,zh2x,i,zh2x_i,zh2x_5_ixi.wav,,ixi.jpg,,,,,,,,,,,,,,,,,,,,,,,,,,,,,,,,,
587a40cfd22a5800014c5ad1,2023-06-16_10h04.52.512,phx_ver10,2022.2.5,Win32,59.91970759,,,,,space,0.0676,0,15,15,15,1,16,training,zh2x,a,zh2x_a,zh2x_8_axa.wav,,axa.jpg,,,,,,,,,,,,,,,,,,,,,,,,,,,,,,,,,
587a40cfd22a5800014c5ad1,2023-06-16_10h04.52.512,phx_ver10,2022.2.5,Win32,59.91970759,,,,,space,0.1839,0,16,16,3,1,4,training,zh2x,a,zh2x_a,zh2x_2_azha.wav,,azha.jpg,,,,,,,,,,,,,,,,,,,,,,,,,,,,,,,,,
587a40cfd22a5800014c5ad1,2023-06-16_10h04.52.512,phx_ver10,2022.2.5,Win32,59.91970759,,,,,space,6.6662,0,17,17,34,1,35,training,zh2x,i,zh2x_i,zh2x_2_izhi.wav,,izhi.jpg,,,,,,,,,,,,,,,,,,,,,,,,,,,,,,,,,
587a40cfd22a5800014c5ad1,2023-06-16_10h04.52.512,phx_ver10,2022.2.5,Win32,59.91970759,,,,,,,,,,,,,attn_test,,,,zh2x_8_axa.wav,zh2x_1_azha.wav,axa.jpg,LEFT,,f,1.8392,space,2.069,0,0,0,0,1,,,,,,,,,,,,,,,,,,,,,,
587a40cfd22a5800014c5ad1,2023-06-16_10h04.52.512,phx_ver10,2022.2.5,Win32,59.91970759,,,,,space,0.6699,0,18,18,26,1,27,training,zh2x,e,zh2x_e,zh2x_6_exe.wav,,exe.jpg,,,,,,,,,,,,,,,,,,,,,,,,,,,,,,,,,
587a40cfd22a5800014c5ad1,2023-06-16_10h04.52.512,phx_ver10,2022.2.5,Win32,59.91970759,,,,,space,12.0172,0,19,19,23,1,24,training,zh2x,e,zh2x_e,zh2x_4_ezhe.wav,,ezhe.jpg,,,,,,,,,,,,,,,,,,,,,,,,,,,,,,,,,
587a40cfd22a5800014c5ad1,2023-06-16_10h04.52.512,phx_ver10,2022.2.5,Win32,59.91970759,,,,,space,0.0508,0,20,20,13,1,14,training,zh2x,a,zh2x_a,zh2x_7_axa.wav,,axa.jpg,,,,,,,,,,,,,,,,,,,,,,,,,,,,,,,,,
587a40cfd22a5800014c5ad1,2023-06-16_10h04.52.512,phx_ver10,2022.2.5,Win32,59.91970759,,,,,space,0.797,0,21,21,25,1,26,training,zh2x,e,zh2x_e,zh2x_6_exe.wav,,exe.jpg,,,,,,,,,,,,,,,,,,,,,,,,,,,,,,,,,
587a40cfd22a5800014c5ad1,2023-06-16_10h04.52.512,phx_ver10,2022.2.5,Win32,59.91970759,,,,,space,0.6495,0,22,22,0,1,1,training,zh2x,a,zh2x_a,zh2x_1_azha.wav,,azha.jpg,,,,,,,,,,,,,,,,,,,,,,,,,,,,,,,,,
587a40cfd22a5800014c5ad1,2023-06-16_10h04.52.512,phx_ver10,2022.2.5,Win32,59.91970759,,,,,space,0.3671,0,23,23,42,1,43,training,zh2x,i,zh2x_i,zh2x_6_ixi.wav,,ixi.jpg,,,,,,,,,,,,,,,,,,,,,,,,,,,,,,,,,
587a40cfd22a5800014c5ad1,2023-06-16_10h04.52.512,phx_ver10,2022.2.5,Win32,59.91970759,,,,,,,,,,,,,attn_test,,,,zh2x_8_exe.wav,zh2x_8_ixi.wav,exe.jpg,LEFT,,f,0.9172,space,1.5005,0,0,0,0,1,,,,,,,,,,,,,,,,,,,,,,
587a40cfd22a5800014c5ad1,2023-06-16_10h04.52.512,phx_ver10,2022.2.5,Win32,59.91970759,,,,,space,0.3001,0,24,24,22,1,23,training,zh2x,e,zh2x_e,zh2x_3_ezhe.wav,,ezhe.jpg,,,,,,,,,,,,,,,,,,,,,,,,,,,,,,,,,
587a40cfd22a5800014c5ad1,2023-06-16_10h04.52.512,phx_ver10,2022.2.5,Win32,59.91970759,,,,,space,13.0183,0,25,25,10,1,11,training,zh2x,a,zh2x_a,zh2x_6_axa.wav,,axa.jpg,,,,,,,,,,,,,,,,,,,,,,,,,,,,,,,,,
587a40cfd22a5800014c5ad1,2023-06-16_10h04.52.512,phx_ver10,2022.2.5,Win32,59.91970759,,,,,space,0.9373,0,26,26,24,1,25,training,zh2x,e,zh2x_e,zh2x_5_exe.wav,,exe.jpg,,,,,,,,,,,,,,,,,,,,,,,,,,,,,,,,,
587a40cfd22a5800014c5ad1,2023-06-16_10h04.52.512,phx_ver10,2022.2.5,Win32,59.91970759,,,,,space,13.0505,0,27,27,9,1,10,training,zh2x,a,zh2x_a,zh2x_6_axa.wav,,axa.jpg,,,,,,,,,,,,,,,,,,,,,,,,,,,,,,,,,
587a40cfd22a5800014c5ad1,2023-06-16_10h04.52.512,phx_ver10,2022.2.5,Win32,59.91970759,,,,,space,0.3226,0,28,28,28,1,29,training,zh2x,e,zh2x_e,zh2x_7_exe.wav,,exe.jpg,,,,,,,,,,,,,,,,,,,,,,,,,,,,,,,,,
587a40cfd22a5800014c5ad1,2023-06-16_10h04.52.512,phx_ver10,2022.2.5,Win32,59.91970759,,,,,space,29.6347,0,29,29,32,1,33,training,zh2x,i,zh2x_i,zh2x_1_izhi.wav,,izhi.jpg,,,,,,,,,,,,,,,,,,,,,,,,,,,,,,,,,
587a40cfd22a5800014c5ad1,2023-06-16_10h04.52.512,phx_ver10,2022.2.5,Win32,59.91970759,,,,,,,,,,,,,attn_test,,,,zh2x_8_axa.wav,zh2x_1_azha.wav,axa.jpg,LEFT,,f,0.8067,space,1.2021,0,0,0,0,1,,,,,,,,,,,,,,,,,,,,,,
587a40cfd22a5800014c5ad1,2023-06-16_10h04.52.512,phx_ver10,2022.2.5,Win32,59.91970759,,,,,space,0.0671,0,30,30,21,1,22,training,zh2x,e,zh2x_e,zh2x_3_ezhe.wav,,ezhe.jpg,,,,,,,,,,,,,,,,,,,,,,,,,,,,,,,,,
587a40cfd22a5800014c5ad1,2023-06-16_10h04.52.512,phx_ver10,2022.2.5,Win32,59.91970759,,,,,space,8.4004,0,31,31,17,1,18,training,zh2x,e,zh2x_e,zh2x_2_ezhe.wav,,ezhe.jpg,,,,,,,,,,,,,,,,,,,,,,,,,,,,,,,,,
587a40cfd22a5800014c5ad1,2023-06-16_10h04.52.512,phx_ver10,2022.2.5,Win32,59.91970759,,,,,space,0.1678,0,32,32,19,1,20,training,zh2x,e,zh2x_e,zh2x_2_ezhe.wav,,ezhe.jpg,,,,,,,,,,,,,,,,,,,,,,,,,,,,,,,,,
587a40cfd22a5800014c5ad1,2023-06-16_10h04.52.512,phx_ver10,2022.2.5,Win32,59.91970759,,,,,space,0.171,0,33,33,27,1,28,training,zh2x,e,zh2x_e,zh2x_7_exe.wav,,exe.jpg,,,,,,,,,,,,,,,,,,,,,,,,,,,,,,,,,
587a40cfd22a5800014c5ad1,2023-06-16_10h04.52.512,phx_ver10,2022.2.5,Win32,59.91970759,,,,,space,0.0671,0,34,34,11,1,12,training,zh2x,a,zh2x_a,zh2x_7_axa.wav,,axa.jpg,,,,,,,,,,,,,,,,,,,,,,,,,,,,,,,,,
587a40cfd22a5800014c5ad1,2023-06-16_10h04.52.512,phx_ver10,2022.2.5,Win32,59.91970759,,,,,space,0.3648,0,35,35,20,1,21,training,zh2x,e,zh2x_e,zh2x_2_ezhe.wav,,ezhe.jpg,,,,,,,,,,,,,,,,,,,,,,,,,,,,,,,,,
587a40cfd22a5800014c5ad1,2023-06-16_10h04.52.512,phx_ver10,2022.2.5,Win32,59.91970759,,,,,,,,,,,,,attn_test,,,,zh2x_8_axa.wav,zh2x_1_azha.wav,axa.jpg,LEFT,,f,0.344,space,0.7275,0,0,0,0,1,,,,,,,,,,,,,,,,,,,,,,
587a40cfd22a5800014c5ad1,2023-06-16_10h04.52.512,phx_ver10,2022.2.5,Win32,59.91970759,,,,,space,6.5672,0,36,36,1,1,2,training,zh2x,a,zh2x_a,zh2x_2_azha.wav,,azha.jpg,,,,,,,,,,,,,,,,,,,,,,,,,,,,,,,,,
587a40cfd22a5800014c5ad1,2023-06-16_10h04.52.512,phx_ver10,2022.2.5,Win32,59.91970759,,,,,space,0.2207,0,37,37,29,1,30,training,zh2x,e,zh2x_e,zh2x_7_exe.wav,,exe.jpg,,,,,,,,,,,,,,,,,,,,,,,,,,,,,,,,,
587a40cfd22a5800014c5ad1,2023-06-16_10h04.52.512,phx_ver10,2022.2.5,Win32,59.91970759,,,,,space,8.899,0,38,38,47,1,48,training,zh2x,i,zh2x_i,zh2x_8_ixi.wav,,ixi.jpg,,,,,,,,,,,,,,,,,,,,,,,,,,,,,,,,,
587a40cfd22a5800014c5ad1,2023-06-16_10h04.52.512,phx_ver10,2022.2.5,Win32,59.91970759,,,,,space,1.4364,0,39,39,41,1,42,training,zh2x,i,zh2x_i,zh2x_6_ixi.wav,,ixi.jpg,,,,,,,,,,,,,,,,,,,,,,,,,,,,,,,,,
587a40cfd22a5800014c5ad1,2023-06-16_10h04.52.512,phx_ver10,2022.2.5,Win32,59.91970759,,,,,space,1.1637,0,40,40,18,1,19,training,zh2x,e,zh2x_e,zh2x_2_ezhe.wav,,ezhe.jpg,,,,,,,,,,,,,,,,,,,,,,,,,,,,,,,,,
587a40cfd22a5800014c5ad1,2023-06-16_10h04.52.512,phx_ver10,2022.2.5,Win32,59.91970759,,,,,space,16.6534,0,41,41,33,1,34,training,zh2x,i,zh2x_i,zh2x_2_izhi.wav,,izhi.jpg,,,,,,,,,,,,,,,,,,,,,,,,,,,,,,,,,
587a40cfd22a5800014c5ad1,2023-06-16_10h04.52.512,phx_ver10,2022.2.5,Win32,59.91970759,,,,,,,,,,,,,attn_test,,,,zh2x_1_azha.wav,zh2x_1_izhi.wav,izhi.jpg,RIGHT,,j,1.3503,space,1.7006,0,0,0,0,1,,,,,,,,,,,,,,,,,,,,,,
587a40cfd22a5800014c5ad1,2023-06-16_10h04.52.512,phx_ver10,2022.2.5,Win32,59.91970759,,,,,space,0.1946,0,42,42,46,1,47,training,zh2x,i,zh2x_i,zh2x_7_ixi.wav,,ixi.jpg,,,,,,,,,,,,,,,,,,,,,,,,,,,,,,,,,
587a40cfd22a5800014c5ad1,2023-06-16_10h04.52.512,phx_ver10,2022.2.5,Win32,59.91970759,,,,,space,0.0895,0,43,43,38,1,39,training,zh2x,i,zh2x_i,zh2x_3_izhi.wav,,izhi.jpg,,,,,,,,,,,,,,,,,,,,,,,,,,,,,,,,,
587a40cfd22a5800014c5ad1,2023-06-16_10h04.52.512,phx_ver10,2022.2.5,Win32,59.91970759,,,,,space,0.2837,0,44,44,5,1,6,training,zh2x,a,zh2x_a,zh2x_3_azha.wav,,azha.jpg,,,,,,,,,,,,,,,,,,,,,,,,,,,,,,,,,
587a40cfd22a5800014c5ad1,2023-06-16_10h04.52.512,phx_ver10,2022.2.5,Win32,59.91970759,,,,,space,0.2095,0,45,45,7,1,8,training,zh2x,a,zh2x_a,zh2x_4_azha.wav,,azha.jpg,,,,,,,,,,,,,,,,,,,,,,,,,,,,,,,,,
587a40cfd22a5800014c5ad1,2023-06-16_10h04.52.512,phx_ver10,2022.2.5,Win32,59.91970759,,,,,space,0.0505,0,46,46,44,1,45,training,zh2x,i,zh2x_i,zh2x_7_ixi.wav,,ixi.jpg,,,,,,,,,,,,,,,,,,,,,,,,,,,,,,,,,
587a40cfd22a5800014c5ad1,2023-06-16_10h04.52.512,phx_ver10,2022.2.5,Win32,59.91970759,,,,,space,0.1138,0,47,47,16,1,17,training,zh2x,e,zh2x_e,zh2x_1_ezhe.wav,,ezhe.jpg,,,,,,,,,,,,,,,,,,,,,,,,,,,,,,,,,
587a40cfd22a5800014c5ad1,2023-06-16_10h04.52.512,phx_ver10,2022.2.5,Win32,59.91970759,,,,,,,,,,,,,attn_test,,,,zh2x_1_azha.wav,zh2x_1_ezhe.wav,azha.jpg,LEFT,,f,0.2339,space,1.4826,,,,,,,,,,,,,,,,,,,,,,,,,,,
587a40cfd22a5800014c5ad1,2023-06-16_10h04.52.512,phx_ver10,2022.2.5,Win32,59.91970759,,,,,,,,,,,,,,,,,,,,,,,,,,,,,,,space,0.7002,,,,,,,,,,,,,,,,,,,,
587a40cfd22a5800014c5ad1,2023-06-16_10h04.52.512,phx_ver10,2022.2.5,Win32,59.91970759,,,,,,,,,,,,,,,,,,,,,,,,,,,,,,,,,space,36.9674,,,,,,,,,,,,,,,,,,
587a40cfd22a5800014c5ad1,2023-06-16_10h04.52.512,phx_ver10,2022.2.5,Win32,59.91970759,,,,,,,,,,,,2,testing_pre,,,,auhau.wav,aufau.wav,,FALSE,,,,,,,,,,,,,,,j,2.1504,space,3.8004,0,0,0,1,1,,,,,,,,,
587a40cfd22a5800014c5ad1,2023-06-16_10h04.52.512,phx_ver10,2022.2.5,Win32,59.91970759,,,,,,,,,,,,5,testing_pre,,,,ihi.wav,ifi.wav,,FALSE,,,,,,,,,,,,,,,f,0.1838,space,0.5672,0,1,1,4,1,,,,,,,,,
587a40cfd22a5800014c5ad1,2023-06-16_10h04.52.512,phx_ver10,2022.2.5,Win32,59.91970759,,,,,,,,,,,,4,testing_pre,,,,eihei.wav,eihei.wav,,TRUE,,,,,,,,,,,,,,,j,0.2195,space,0.5503,0,2,2,3,1,,,,,,,,,
587a40cfd22a5800014c5ad1,2023-06-16_10h04.52.512,phx_ver10,2022.2.5,Win32,59.91970759,,,,,,,,,,,,3,testing_pre,,,,afa.wav,aha.wav,,FALSE,,,,,,,,,,,,,,,j,0.2785,space,0.9453,0,3,3,2,1,,,,,,,,,
587a40cfd22a5800014c5ad1,2023-06-16_10h04.52.512,phx_ver10,2022.2.5,Win32,59.91970759,,,,,,,,,,,,1,testing_pre,,,,ifi.wav,ifi.wav,,TRUE,,,,,,,,,,,,,,,f,0.0638,space,0.3671,0,4,4,0,1,,,,,,,,,
587a40cfd22a5800014c5ad1,2023-06-16_10h04.52.512,phx_ver10,2022.2.5,Win32,59.91970759,,,,,,,,,,,,,,,,,,,,,,,,,,,,,,,,,,,,,,,,,,,,space,0.891,,,,,,,
587a40cfd22a5800014c5ad1,2023-06-16_10h04.52.512,phx_ver10,2022.2.5,Win32,59.91970759,,,,,,,,,,,,51,testing_3,zh2j,a,zh2j_a,zh2j_1_azha.wav,zh2j_8_aja.wav,,FALSE,FALSE,,,,,,,,,,,,,,f,0.0557,space,0.3839,,,,,,,,0,0,0,50,1,,
587a40cfd22a5800014c5ad1,2023-06-16_10h04.52.512,phx_ver10,2022.2.5,Win32,59.91970759,,,,,,,,,,,,38,testing_3,zh2sh,e,zh2sh_e,zh2sh_8_eshe.wav,zh2sh_8_eshe.wav,,TRUE,FALSE,,,,,,,,,,,,,,f,0.9172,space,1.2504,,,,,,,,0,1,1,37,1,,
587a40cfd22a5800014c5ad1,2023-06-16_10h04.52.512,phx_ver10,2022.2.5,Win32,59.91970759,,,,,,,,,,,,47,testing_3,zh2sh,i,zh2sh_i,zh2sh_1_izhi.wav,zh2sh_8_ishi.wav,,FALSE,FALSE,,,,,,,,,,,,,,f,0.0505,space,0.3504,,,,,,,,0,2,2,46,1,,
587a40cfd22a5800014c5ad1,2023-06-16_10h04.52.512,phx_ver10,2022.2.5,Win32,59.91970759,,,,,,,,,,,,9,testing_1,zh2x,i,zh2x_i,zh2x_1_izhi.wav,zh2x_1_izhi_copy.wav,,TRUE,TRUE,,,,,,,,,,,,,,f,0.2175,space,0.5171,,,,,,,,0,3,3,8,1,,
587a40cfd22a5800014c5ad1,2023-06-16_10h04.52.512,phx_ver10,2022.2.5,Win32,59.91970759,,,,,,,,,,,,107,testing_3,sh2x,au,sh2x_au,sh2x_1_aushau.wav,sh2x_8_auxau.wav,,FALSE,FALSE,,,,,,,,,,,,,,f,0.3172,space,0.6672,,,,,,,,0,4,4,106,1,,
587a40cfd22a5800014c5ad1,2023-06-16_10h04.52.512,phx_ver10,2022.2.5,Win32,59.91970759,,,,,,,,,,,,68,testing_3,zh2j,ei,zh2j_ei,zh2j_8_eijei.wav,zh2j_1_eizhei.wav,,FALSE,FALSE,,,,,,,,,,,,,,f,0.1503,space,0.5004,,,,,,,,0,5,5,67,1,,
587a40cfd22a5800014c5ad1,2023-06-16_10h04.52.512,phx_ver10,2022.2.5,Win32,59.91970759,,,,,,,,,,,,10,testing_1,zh2x,i,zh2x_i,zh2x_8_ixi.wav,zh2x_8_ixi_copy.wav,,TRUE,TRUE,,,,,,,,,,,,,,f,0.1058,space,0.434,,,,,,,,0,6,6,9,1,,
587a40cfd22a5800014c5ad1,2023-06-16_10h04.52.512,phx_ver10,2022.2.5,Win32,59.91970759,,,,,,,,,,,,111,testing_3,sh2x,e,sh2x_e,sh2x_1_eshe.wav,sh2x_8_exe.wav,,FALSE,FALSE,,,,,,,,,,,,,,f,0.6008,space,0.9504,,,,,,,,0,7,7,110,1,,
587a40cfd22a5800014c5ad1,2023-06-16_10h04.52.512,phx_ver10,2022.2.5,Win32,59.91970759,,,,,,,,,,,,90,testing_3,j2x,ei,j2x_ei,j2x_8_eixei.wav,j2x_8_eixei.wav,,TRUE,FALSE,,,,,,,,,,,,,,f,0.8672,space,1.1837,,,,,,,,0,8,8,89,1,,
587a40cfd22a5800014c5ad1,2023-06-16_10h04.52.512,phx_ver10,2022.2.5,Win32,59.91970759,,,,,,,,,,,,79,testing_3,j2x,ai,j2x_ai,j2x_1_aijai.wav,j2x_8_aixai.wav,,FALSE,FALSE,,,,,,,,,,,,,,f,0.3177,space,0.6677,,,,,,,,0,9,9,78,1,,
587a40cfd22a5800014c5ad1,2023-06-16_10h04.52.512,phx_ver10,2022.2.5,Win32,59.91970759,,,,,,,,,,,,84,testing_3,j2x,au,j2x_au,j2x_8_auxau.wav,j2x_1_aujau.wav,,FALSE,FALSE,,,,,,,,,,,,,,j,0.7829,space,1.1338,,,,,,,,0,10,10,83,1,,
587a40cfd22a5800014c5ad1,2023-06-16_10h04.52.512,phx_ver10,2022.2.5,Win32,59.91970759,,,,,,,,,,,,136,testing_3,sh2j,e,sh2j_e,sh2j_8_eje.wav,sh2j_1_eshe.wav,,FALSE,FALSE,,,,,,,,,,,,,,j,0.9505,space,1.317,,,,,,,,0,11,11,135,1,,
587a40cfd22a5800014c5ad1,2023-06-16_10h04.52.512,phx_ver10,2022.2.5,Win32,59.91970759,,,,,,,,,,,,105,testing_3,sh2x,au,sh2x_au,sh2x_1_aushau.wav,sh2x_1_aushau.wav,,TRUE,FALSE,,,,,,,,,,,,,,f,0.3378,space,0.692,,,,,,,,0,12,12,104,1,,
587a40cfd22a5800014c5ad1,2023-06-16_10h04.52.512,phx_ver10,2022.2.5,Win32,59.91970759,,,,,,,,,,,,92,testing_3,j2x,ei,j2x_ei,j2x_8_eixei.wav,j2x_1_eijei.wav,,FALSE,FALSE,,,,,,,,,,,,,,f,0.0672,space,0.3473,,,,,,,,0,13,13,91,1,,
587a40cfd22a5800014c5ad1,2023-06-16_10h04.52.512,phx_ver10,2022.2.5,Win32,59.91970759,,,,,,,,,,,,43,testing_3,zh2sh,ei,zh2sh_ei,zh2sh_1_eizhei.wav,zh2sh_8_eishei.wav,,FALSE,FALSE,,,,,,,,,,,,,,j,0.5837,space,1.0004,,,,,,,,0,14,14,42,1,,
587a40cfd22a5800014c5ad1,2023-06-16_10h04.52.512,phx_ver10,2022.2.5,Win32,59.91970759,,,,,,,,,,,,1,testing_1,zh2x,a,zh2x_a,zh2x_1_azha.wav,zh2x_1_azha_copy.wav,,TRUE,TRUE,,,,,,,,,,,,,,f,0.9692,space,1.2509,,,,,,,,0,15,15,0,1,,
587a40cfd22a5800014c5ad1,2023-06-16_10h04.52.512,phx_ver10,2022.2.5,Win32,59.91970759,,,,,,,,,,,,50,testing_3,zh2j,a,zh2j_a,zh2j_8_aja.wav,zh2j_8_aja.wav,,TRUE,FALSE,,,,,,,,,,,,,,f,0.5895,space,0.8506,,,,,,,,0,16,16,49,1,,
587a40cfd22a5800014c5ad1,2023-06-16_10h04.52.512,phx_ver10,2022.2.5,Win32,59.91970759,,,,,,,,,,,,132,testing_3,sh2j,au,sh2j_au,sh2j_8_aujau.wav,sh2j_1_aushau.wav,,FALSE,FALSE,,,,,,,,,,,,,,j,0.2338,space,0.5517,,,,,,,,0,17,17,131,1,,
587a40cfd22a5800014c5ad1,2023-06-16_10h04.52.512,phx_ver10,2022.2.5,Win32,59.91970759,,,,,,,,,,,,93,testing_3,j2x,i,j2x_i,j2x_1_iji.wav,j2x_1_iji.wav,,TRUE,FALSE,,,,,,,,,,,,,,f,0.3507,space,0.6224,,,,,,,,0,18,18,92,1,,
587a40cfd22a5800014c5ad1,2023-06-16_10h04.52.512,phx_ver10,2022.2.5,Win32,59.91970759,,,,,,,,,,,,113,testing_3,sh2x,ei,sh2x_ei,sh2x_1_eishei.wav,sh2x_1_eishei.wav,,TRUE,FALSE,,,,,,,,,,,,,,f,0.0006,space,0.2838,,,,,,,,0,19,19,112,1,,
587a40cfd22a5800014c5ad1,2023-06-16_10h04.52.512,phx_ver10,2022.2.5,Win32,59.91970759,,,,,,,,,,,,22,testing_2,zh2x,ei,zh2x_ei,zh2x_8_eixei.wav,zh2x_8_eixei.wav,,TRUE,FALSE,,,,,,,,,,,,,,f,0.5173,space,0.8505,,,,,,,,0,20,20,21,1,,
587a40cfd22a5800014c5ad1,2023-06-16_10h04.52.512,phx_ver10,2022.2.5,Win32,59.91970759,,,,,,,,,,,,139,testing_3,sh2j,ei,sh2j_ei,sh2j_1_eishei.wav,sh2j_8_eijei.wav,,FALSE,FALSE,,,,,,,,,,,,,,f,0.357,space,0.6721,,,,,,,,0,21,21,138,1,,
587a40cfd22a5800014c5ad1,2023-06-16_10h04.52.512,phx_ver10,2022.2.5,Win32,59.91970759,,,,,,,,,,,,11,testing_1,zh2x,i,zh2x_i,zh2x_1_izhi.wav,zh2x_8_ixi.wav,,FALSE,TRUE,,,,,,,,,,,,,,j,0.4024,space,0.7239,,,,,,,,0,22,22,10,1,,
587a40cfd22a5800014c5ad1,2023-06-16_10h04.52.512,phx_ver10,2022.2.5,Win32,59.91970759,,,,,,,,,,,,27,testing_3,zh2sh,a,zh2sh_a,zh2sh_1_azha.wav,zh2sh_8_asha.wav,,FALSE,FALSE,,,,,,,,,,,,,,j,0.5392,space,0.8171,,,,,,,,0,23,23,26,1,,
587a40cfd22a5800014c5ad1,2023-06-16_10h04.52.512,phx_ver10,2022.2.5,Win32,59.91970759,,,,,,,,,,,,88,testing_3,j2x,e,j2x_e,j2x_8_exe.wav,j2x_1_eje.wav,,FALSE,FALSE,,,,,,,,,,,,,,f,0.2669,space,0.5336,,,,,,,,0,24,24,87,1,,
587a40cfd22a5800014c5ad1,2023-06-16_10h04.52.512,phx_ver10,2022.2.5,Win32,59.91970759,,,,,,,,,,,,15,testing_2,zh2x,ai,zh2x_ai,zh2x_1_aizhai.wav,zh2x_8_aixai.wav,,FALSE,FALSE,,,,,,,,,,,,,,j,0.4006,space,0.734,,,,,,,,0,25,25,14,1,,
587a40cfd22a5800014c5ad1,2023-06-16_10h04.52.512,phx_ver10,2022.2.5,Win32,59.91970759,,,,,,,,,,,,29,testing_3,zh2sh,ai,zh2sh_ai,zh2sh_1_aizhai.wav,zh2sh_1_aizhai.wav,,TRUE,FALSE,,,,,,,,,,,,,,f,0.8837,space,1.2004,,,,,,,,0,26,26,28,1,,
587a40cfd22a5800014c5ad1,2023-06-16_10h04.52.512,phx_ver10,2022.2.5,Win32,59.91970759,,,,,,,,,,,,42,testing_3,zh2sh,ei,zh2sh_ei,zh2sh_8_eishei.wav,zh2sh_8_eishei.wav,,TRUE,FALSE,,,,,,,,,,,,,,f,2.0506,space,2.2503,,,,,,,,0,27,27,41,1,,
587a40cfd22a5800014c5ad1,2023-06-16_10h04.52.512,phx_ver10,2022.2.5,Win32,59.91970759,,,,,,,,,,,,74,testing_3,j2x,a,j2x_a,j2x_8_axa.wav,j2x_8_axa.wav,,TRUE,FALSE,,,,,,,,,,,,,,f,12.6672,space,13.0671,,,,,,,,0,28,28,73,1,,
587a40cfd22a5800014c5ad1,2023-06-16_10h04.52.512,phx_ver10,2022.2.5,Win32,59.91970759,,,,,,,,,,,,101,testing_3,sh2x,ai,sh2x_ai,sh2x_1_aishai.wav,sh2x_1_aishai.wav,,TRUE,FALSE,,,,,,,,,,,,,,f,0.9012,space,1.1337,,,,,,,,0,29,29,100,1,,
587a40cfd22a5800014c5ad1,2023-06-16_10h04.52.512,phx_ver10,2022.2.5,Win32,59.91970759,,,,,,,,,,,,59,testing_3,zh2j,au,zh2j_au,zh2j_1_auzhau.wav,zh2j_8_aujau.wav,,FALSE,FALSE,,,,,,,,,,,,,,f,0.684,space,0.967,,,,,,,,0,30,30,58,1,,
587a40cfd22a5800014c5ad1,2023-06-16_10h04.52.512,phx_ver10,2022.2.5,Win32,59.91970759,,,,,,,,,,,,96,testing_3,j2x,i,j2x_i,j2x_8_ixi.wav,j2x_1_iji.wav,,FALSE,FALSE,,,,,,,,,,,,,,f,4.297,space,4.5171,,,,,,,,0,31,31,95,1,,
587a40cfd22a5800014c5ad1,2023-06-16_10h04.52.512,phx_ver10,2022.2.5,Win32,59.91970759,,,,,,,,,,,,131,testing_3,sh2j,au,sh2j_au,sh2j_1_aushau.wav,sh2j_8_aujau.wav,,FALSE,FALSE,,,,,,,,,,,,,,j,0.517,space,0.7503,,,,,,,,0,32,32,130,1,,
587a40cfd22a5800014c5ad1,2023-06-16_10h04.52.512,phx_ver10,2022.2.5,Win32,59.91970759,,,,,,,,,,,,56,testing_3,zh2j,ai,zh2j_ai,zh2j_8_aijai.wav,zh2j_1_aizhai.wav,,FALSE,FALSE,,,,,,,,,,,,,,f,8.9493,space,9.3661,,,,,,,,0,33,33,55,1,,
587a40cfd22a5800014c5ad1,2023-06-16_10h04.52.512,phx_ver10,2022.2.5,Win32,59.91970759,,,,,,,,,,,,119,testing_3,sh2x,i,sh2x_i,sh2x_1_ishi.wav,sh2x_8_ixi.wav,,FALSE,FALSE,,,,,,,,,,,,,,f,0.3588,space,0.6524,,,,,,,,0,34,34,118,1,,
587a40cfd22a5800014c5ad1,2023-06-16_10h04.52.512,phx_ver10,2022.2.5,Win32,59.91970759,,,,,,,,,,,,57,testing_3,zh2j,au,zh2j_au,zh2j_1_auzhau.wav,zh2j_1_auzhau.wav,,TRUE,FALSE,,,,,,,,,,,,,,f,11.4673,space,11.684,,,,,,,,0,35,35,56,1,,
587a40cfd22a5800014c5ad1,2023-06-16_10h04.52.512,phx_ver10,2022.2.5,Win32,59.91970759,,,,,,,,,,,,103,testing_3,sh2x,ai,sh2x_ai,sh2x_1_aishai.wav,sh2x_8_aixai.wav,,FALSE,FALSE,,,,,,,,,,,,,,f,0.9639,space,1.1506,,,,,,,,0,36,36,102,1,,
587a40cfd22a5800014c5ad1,2023-06-16_10h04.52.512,phx_ver10,2022.2.5,Win32,59.91970759,,,,,,,,,,,,55,testing_3,zh2j,ai,zh2j_ai,zh2j_1_aizhai.wav,zh2j_8_aijai.wav,,FALSE,FALSE,,,,,,,,,,,,,,f,23.5511,space,23.7674,,,,,,,,0,37,37,54,1,,
587a40cfd22a5800014c5ad1,2023-06-16_10h04.52.512,phx_ver10,2022.2.5,Win32,59.91970759,,,,,,,,,,,,19,testing_2,zh2x,au,zh2x_au,zh2x_1_auzhau.wav,zh2x_8_auxau.wav,,FALSE,FALSE,,,,,,,,,,,,,,j,0.5338,space,0.7005,,,,,,,,0,38,38,18,1,,
587a40cfd22a5800014c5ad1,2023-06-16_10h04.52.512,phx_ver10,2022.2.5,Win32,59.91970759,,,,,,,,,,,,77,testing_3,j2x,ai,j2x_ai,j2x_1_aijai.wav,j2x_1_aijai.wav,,TRUE,FALSE,,,,,,,,,,,,,,f,1.2326,space,1.4174,,,,,,,,0,39,39,76,1,,
587a40cfd22a5800014c5ad1,2023-06-16_10h04.52.512,phx_ver10,2022.2.5,Win32,59.91970759,,,,,,,,,,,,4,testing_1,zh2x,a,zh2x_a,zh2x_8_axa.wav,zh2x_1_azha.wav,,FALSE,TRUE,,,,,,,,,,,,,,j,0.5045,space,0.6837,,,,,,,,0,40,40,3,1,,
587a40cfd22a5800014c5ad1,2023-06-16_10h04.52.512,phx_ver10,2022.2.5,Win32,59.91970759,,,,,,,,,,,,65,testing_3,zh2j,ei,zh2j_ei,zh2j_1_eizhei.wav,zh2j_1_eizhei.wav,,TRUE,FALSE,,,,,,,,,,,,,,f,0.3886,space,0.617,,,,,,,,0,41,41,64,1,,
587a40cfd22a5800014c5ad1,2023-06-16_10h04.52.512,phx_ver10,2022.2.5,Win32,59.91970759,,,,,,,,,,,,26,testing_3,zh2sh,a,zh2sh_a,zh2sh_8_asha.wav,zh2sh_8_asha.wav,,TRUE,FALSE,,,,,,,,,,,,,,f,1.1474,space,1.301,,,,,,,,0,42,42,25,1,,
587a40cfd22a5800014c5ad1,2023-06-16_10h04.52.512,phx_ver10,2022.2.5,Win32,59.91970759,,,,,,,,,,,,71,testing_3,zh2j,i,zh2j_i,zh2j_1_izhi.wav,zh2j_8_iji.wav,,FALSE,FALSE,,,,,,,,,,,,,,f,0.6924,space,0.8789,,,,,,,,0,43,43,70,1,,
587a40cfd22a5800014c5ad1,2023-06-16_10h04.52.512,phx_ver10,2022.2.5,Win32,59.91970759,,,,,,,,,,,,108,testing_3,sh2x,au,sh2x_au,sh2x_8_auxau.wav,sh2x_1_aushau.wav,,FALSE,FALSE,,,,,,,,,,,,,,f,6.6258,space,6.8822,,,,,,,,0,44,44,107,1,,
587a40cfd22a5800014c5ad1,2023-06-16_10h04.52.512,phx_ver10,2022.2.5,Win32,59.91970759,,,,,,,,,,,,97,testing_3,sh2x,a,sh2x_a,sh2x_1_asha.wav,sh2x_1_asha.wav,,TRUE,FALSE,,,,,,,,,,,,,,f,0.0853,space,0.3677,,,,,,,,0,45,45,96,1,,
587a40cfd22a5800014c5ad1,2023-06-16_10h04.52.512,phx_ver10,2022.2.5,Win32,59.91970759,,,,,,,,,,,,78,testing_3,j2x,ai,j2x_ai,j2x_8_aixai.wav,j2x_8_aixai.wav,,TRUE,FALSE,,,,,,,,,,,,,,f,0.6005,space,0.9006,,,,,,,,0,46,46,77,1,,
587a40cfd22a5800014c5ad1,2023-06-16_10h04.52.512,phx_ver10,2022.2.5,Win32,59.91970759,,,,,,,,,,,,129,testing_3,sh2j,au,sh2j_au,sh2j_1_aushau.wav,sh2j_1_aushau.wav,,TRUE,FALSE,,,,,,,,,,,,,,f,2.6805,space,3.0474,,,,,,,,0,47,47,128,1,,
587a40cfd22a5800014c5ad1,2023-06-16_10h04.52.512,phx_ver10,2022.2.5,Win32,59.91970759,,,,,,,,,,,,46,testing_3,zh2sh,i,zh2sh_i,zh2sh_8_ishi.wav,zh2sh_8_ishi.wav,,TRUE,FALSE,,,,,,,,,,,,,,f,0.4028,space,0.7004,,,,,,,,0,48,48,45,1,,
587a40cfd22a5800014c5ad1,2023-06-16_10h04.52.512,phx_ver10,2022.2.5,Win32,59.91970759,,,,,,,,,,,,110,testing_3,sh2x,e,sh2x_e,sh2x_8_exe.wav,sh2x_8_exe.wav,,TRUE,FALSE,,,,,,,,,,,,,,f,0.1338,space,0.3505,,,,,,,,0,49,49,109,1,,
587a40cfd22a5800014c5ad1,2023-06-16_10h04.52.512,phx_ver10,2022.2.5,Win32,59.91970759,,,,,,,,,,,,37,testing_3,zh2sh,e,zh2sh_e,zh2sh_1_ezhe.wav,zh2sh_1_ezhe.wav,,TRUE,FALSE,,,,,,,,,,,,,,f,0.5094,space,0.7507,,,,,,,,0,50,50,36,1,,
587a40cfd22a5800014c5ad1,2023-06-16_10h04.52.512,phx_ver10,2022.2.5,Win32,59.91970759,,,,,,,,,,,,123,testing_3,sh2j,a,sh2j_a,sh2j_1_asha.wav,sh2j_8_aja.wav,,FALSE,FALSE,,,,,,,,,,,,,,j,0.684,space,1.0174,,,,,,,,0,51,51,122,1,,
587a40cfd22a5800014c5ad1,2023-06-16_10h04.52.512,phx_ver10,2022.2.5,Win32,59.91970759,,,,,,,,,,,,126,testing_3,sh2j,ai,sh2j_ai,sh2j_8_aijai.wav,sh2j_8_aijai.wav,,TRUE,FALSE,,,,,,,,,,,,,,f,0.5678,space,0.8506,,,,,,,,0,52,52,125,1,,
587a40cfd22a5800014c5ad1,2023-06-16_10h04.52.512,phx_ver10,2022.2.5,Win32,59.91970759,,,,,,,,,,,,87,testing_3,j2x,e,j2x_e,j2x_1_eje.wav,j2x_8_exe.wav,,FALSE,FALSE,,,,,,,,,,,,,,j,0.0366,space,0.4004,,,,,,,,0,53,53,86,1,,
587a40cfd22a5800014c5ad1,2023-06-16_10h04.52.512,phx_ver10,2022.2.5,Win32,59.91970759,,,,,,,,,,,,109,testing_3,sh2x,e,sh2x_e,sh2x_1_eshe.wav,sh2x_1_eshe.wav,,TRUE,FALSE,,,,,,,,,,,,,,f,0.2854,space,0.6003,,,,,,,,0,54,54,108,1,,
587a40cfd22a5800014c5ad1,2023-06-16_10h04.52.512,phx_ver10,2022.2.5,Win32,59.91970759,,,,,,,,,,,,115,testing_3,sh2x,ei,sh2x_ei,sh2x_1_eishei.wav,sh2x_8_eixei.wav,,FALSE,FALSE,,,,,,,,,,,,,,f,0.4505,space,0.8671,,,,,,,,0,55,55,114,1,,
587a40cfd22a5800014c5ad1,2023-06-16_10h04.52.512,phx_ver10,2022.2.5,Win32,59.91970759,,,,,,,,,,,,20,testing_2,zh2x,au,zh2x_au,zh2x_8_auxau.wav,zh2x_1_auzhau.wav,,FALSE,FALSE,,,,,,,,,,,,,,j,0.3173,space,0.6505,,,,,,,,0,56,56,19,1,,
587a40cfd22a5800014c5ad1,2023-06-16_10h04.52.512,phx_ver10,2022.2.5,Win32,59.91970759,,,,,,,,,,,,2,testing_1,zh2x,a,zh2x_a,zh2x_8_axa.wav,zh2x_8_axa_copy.wav,,TRUE,TRUE,,,,,,,,,,,,,,f,0.0504,space,0.4452,,,,,,,,0,57,57,1,1,,
587a40cfd22a5800014c5ad1,2023-06-16_10h04.52.512,phx_ver10,2022.2.5,Win32,59.91970759,,,,,,,,,,,,120,testing_3,sh2x,i,sh2x_i,sh2x_8_ixi.wav,sh2x_1_ishi.wav,,FALSE,FALSE,,,,,,,,,,,,,,f,0.8176,space,1.2634,,,,,,,,0,58,58,119,1,,
587a40cfd22a5800014c5ad1,2023-06-16_10h04.52.512,phx_ver10,2022.2.5,Win32,59.91970759,,,,,,,,,,,,122,testing_3,sh2j,a,sh2j_a,sh2j_8_aja.wav,sh2j_8_aja.wav,,TRUE,FALSE,,,,,,,,,,,,,,f,0.1005,space,0.4881,,,,,,,,0,59,59,121,1,,
587a40cfd22a5800014c5ad1,2023-06-16_10h04.52.512,phx_ver10,2022.2.5,Win32,59.91970759,,,,,,,,,,,,127,testing_3,sh2j,ai,sh2j_ai,sh2j_1_aishai.wav,sh2j_8_aijai.wav,,FALSE,FALSE,,,,,,,,,,,,,,j,0.1175,space,0.4675,,,,,,,,0,60,60,126,1,,
587a40cfd22a5800014c5ad1,2023-06-16_10h04.52.512,phx_ver10,2022.2.5,Win32,59.91970759,,,,,,,,,,,,91,testing_3,j2x,ei,j2x_ei,j2x_1_eijei.wav,j2x_8_eixei.wav,,FALSE,FALSE,,,,,,,,,,,,,,j,1.3171,space,1.6002,,,,,,,,0,61,61,90,1,,
587a40cfd22a5800014c5ad1,2023-06-16_10h04.52.512,phx_ver10,2022.2.5,Win32,59.91970759,,,,,,,,,,,,52,testing_3,zh2j,a,zh2j_a,zh2j_8_aja.wav,zh2j_1_azha.wav,,FALSE,FALSE,,,,,,,,,,,,,,f,0.2172,space,0.6006,,,,,,,,0,62,62,51,1,,
587a40cfd22a5800014c5ad1,2023-06-16_10h04.52.512,phx_ver10,2022.2.5,Win32,59.91970759,,,,,,,,,,,,35,testing_3,zh2sh,au,zh2sh_au,zh2sh_1_auzhau.wav,zh2sh_8_aushau.wav,,FALSE,FALSE,,,,,,,,,,,,,,j,0.076,space,0.4005,,,,,,,,0,63,63,34,1,,
587a40cfd22a5800014c5ad1,2023-06-16_10h04.52.512,phx_ver10,2022.2.5,Win32,59.91970759,,,,,,,,,,,,32,testing_3,zh2sh,ai,zh2sh_ai,zh2sh_8_aishai.wav,zh2sh_1_aizhai.wav,,FALSE,FALSE,,,,,,,,,,,,,,j,0.4672,space,0.7173,,,,,,,,0,64,64,31,1,,
587a40cfd22a5800014c5ad1,2023-06-16_10h04.52.512,phx_ver10,2022.2.5,Win32,59.91970759,,,,,,,,,,,,66,testing_3,zh2j,ei,zh2j_ei,zh2j_8_eijei.wav,zh2j_8_eijei.wav,,TRUE,FALSE,,,,,,,,,,,,,,f,0.0004,space,0.3225,,,,,,,,0,65,65,65,1,,
587a40cfd22a5800014c5ad1,2023-06-16_10h04.52.512,phx_ver10,2022.2.5,Win32,59.91970759,,,,,,,,,,,,94,testing_3,j2x,i,j2x_i,j2x_8_ixi.wav,j2x_8_ixi.wav,,TRUE,FALSE,,,,,,,,,,,,,,f,0.2227,space,0.4721,,,,,,,,0,66,66,93,1,,
587a40cfd22a5800014c5ad1,2023-06-16_10h04.52.512,phx_ver10,2022.2.5,Win32,59.91970759,,,,,,,,,,,,33,testing_3,zh2sh,au,zh2sh_au,zh2sh_1_auzhau.wav,zh2sh_1_auzhau.wav,,TRUE,FALSE,,,,,,,,,,,,,,f,0.1392,space,0.4307,,,,,,,,0,67,67,32,1,,
587a40cfd22a5800014c5ad1,2023-06-16_10h04.52.512,phx_ver10,2022.2.5,Win32,59.91970759,,,,,,,,,,,,114,testing_3,sh2x,ei,sh2x_ei,sh2x_8_eixei.wav,sh2x_8_eixei.wav,,TRUE,FALSE,,,,,,,,,,,,,,f,0.117,space,0.4836,,,,,,,,0,68,68,113,1,,
587a40cfd22a5800014c5ad1,2023-06-16_10h04.52.512,phx_ver10,2022.2.5,Win32,59.91970759,,,,,,,,,,,,6,testing_1,zh2x,e,zh2x_e,zh2x_8_exe.wav,zh2x_8_exe_copy.wav,,TRUE,TRUE,,,,,,,,,,,,,,f,0.1844,space,0.4808,,,,,,,,0,69,69,5,1,,
587a40cfd22a5800014c5ad1,2023-06-16_10h04.52.512,phx_ver10,2022.2.5,Win32,59.91970759,,,,,,,,,,,,118,testing_3,sh2x,i,sh2x_i,sh2x_8_ixi.wav,sh2x_8_ixi.wav,,TRUE,FALSE,,,,,,,,,,,,,,f,0.1638,space,0.539,,,,,,,,0,70,70,117,1,,
587a40cfd22a5800014c5ad1,2023-06-16_10h04.52.512,phx_ver10,2022.2.5,Win32,59.91970759,,,,,,,,,,,,125,testing_3,sh2j,ai,sh2j_ai,sh2j_1_aishai.wav,sh2j_1_aishai.wav,,TRUE,FALSE,,,,,,,,,,,,,,f,0.0887,space,0.384,,,,,,,,0,71,71,124,1,,
587a40cfd22a5800014c5ad1,2023-06-16_10h04.52.512,phx_ver10,2022.2.5,Win32,59.91970759,,,,,,,,,,,,98,testing_3,sh2x,a,sh2x_a,sh2x_8_axa.wav,sh2x_8_axa.wav,,TRUE,FALSE,,,,,,,,,,,,,,f,0.367,space,0.6994,,,,,,,,0,72,72,97,1,,
587a40cfd22a5800014c5ad1,2023-06-16_10h04.52.512,phx_ver10,2022.2.5,Win32,59.91970759,,,,,,,,,,,,83,testing_3,j2x,au,j2x_au,j2x_1_aujau.wav,j2x_8_auxau.wav,,FALSE,FALSE,,,,,,,,,,,,,,j,0.367,space,0.7055,,,,,,,,0,73,73,82,1,,
587a40cfd22a5800014c5ad1,2023-06-16_10h04.52.512,phx_ver10,2022.2.5,Win32,59.91970759,,,,,,,,,,,,3,testing_1,zh2x,a,zh2x_a,zh2x_1_azha.wav,zh2x_8_axa.wav,,FALSE,TRUE,,,,,,,,,,,,,,j,0.6675,space,0.8673,,,,,,,,0,74,74,2,1,,
587a40cfd22a5800014c5ad1,2023-06-16_10h04.52.512,phx_ver10,2022.2.5,Win32,59.91970759,,,,,,,,,,,,41,testing_3,zh2sh,ei,zh2sh_ei,zh2sh_1_eizhei.wav,zh2sh_1_eizhei.wav,,TRUE,FALSE,,,,,,,,,,,,,,f,0.0249,space,0.1839,,,,,,,,0,75,75,40,1,,
587a40cfd22a5800014c5ad1,2023-06-16_10h04.52.512,phx_ver10,2022.2.5,Win32,59.91970759,,,,,,,,,,,,80,testing_3,j2x,ai,j2x_ai,j2x_8_aixai.wav,j2x_1_aijai.wav,,FALSE,FALSE,,,,,,,,,,,,,,j,1.5838,space,1.7672,,,,,,,,0,76,76,79,1,,
587a40cfd22a5800014c5ad1,2023-06-16_10h04.52.512,phx_ver10,2022.2.5,Win32,59.91970759,,,,,,,,,,,,121,testing_3,sh2j,a,sh2j_a,sh2j_1_asha.wav,sh2j_1_asha.wav,,TRUE,FALSE,,,,,,,,,,,,,,f,7.0006,space,7.2005,,,,,,,,0,77,77,120,1,,
587a40cfd22a5800014c5ad1,2023-06-16_10h04.52.512,phx_ver10,2022.2.5,Win32,59.91970759,,,,,,,,,,,,30,testing_3,zh2sh,ai,zh2sh_ai,zh2sh_8_aishai.wav,zh2sh_8_aishai.wav,,TRUE,FALSE,,,,,,,,,,,,,,f,6.0342,space,6.2506,,,,,,,,0,78,78,29,1,,
587a40cfd22a5800014c5ad1,2023-06-16_10h04.52.512,phx_ver10,2022.2.5,Win32,59.91970759,,,,,,,,,,,,86,testing_3,j2x,e,j2x_e,j2x_8_exe.wav,j2x_8_exe.wav,,TRUE,FALSE,,,,,,,,,,,,,,j,1.3836,space,1.5536,,,,,,,,0,79,79,85,1,,
587a40cfd22a5800014c5ad1,2023-06-16_10h04.52.512,phx_ver10,2022.2.5,Win32,59.91970759,,,,,,,,,,,,128,testing_3,sh2j,ai,sh2j_ai,sh2j_8_aijai.wav,sh2j_1_aishai.wav,,FALSE,FALSE,,,,,,,,,,,,,,j,0.7196,space,0.9003,,,,,,,,0,80,80,127,1,,
587a40cfd22a5800014c5ad1,2023-06-16_10h04.52.512,phx_ver10,2022.2.5,Win32,59.91970759,,,,,,,,,,,,60,testing_3,zh2j,au,zh2j_au,zh2j_8_aujau.wav,zh2j_1_auzhau.wav,,FALSE,FALSE,,,,,,,,,,,,,,f,1.2877,space,1.4838,,,,,,,,0,81,81,59,1,,
587a40cfd22a5800014c5ad1,2023-06-16_10h04.52.512,phx_ver10,2022.2.5,Win32,59.91970759,,,,,,,,,,,,72,testing_3,zh2j,i,zh2j_i,zh2j_8_iji.wav,zh2j_1_izhi.wav,,FALSE,FALSE,,,,,,,,,,,,,,f,6.8342,space,7.084,,,,,,,,0,82,82,71,1,,
587a40cfd22a5800014c5ad1,2023-06-16_10h04.52.512,phx_ver10,2022.2.5,Win32,59.91970759,,,,,,,,,,,,36,testing_3,zh2sh,au,zh2sh_au,zh2sh_8_aushau.wav,zh2sh_1_auzhau.wav,,FALSE,FALSE,,,,,,,,,,,,,,j,0.9172,space,1.2502,,,,,,,,0,83,83,35,1,,
587a40cfd22a5800014c5ad1,2023-06-16_10h04.52.512,phx_ver10,2022.2.5,Win32,59.91970759,,,,,,,,,,,,95,testing_3,j2x,i,j2x_i,j2x_1_iji.wav,j2x_8_ixi.wav,,FALSE,FALSE,,,,,,,,,,,,,,f,0.8838,space,1.0673,,,,,,,,0,84,84,94,1,,
587a40cfd22a5800014c5ad1,2023-06-16_10h04.52.512,phx_ver10,2022.2.5,Win32,59.91970759,,,,,,,,,,,,100,testing_3,sh2x,a,sh2x_a,sh2x_8_axa.wav,sh2x_1_asha.wav,,FALSE,FALSE,,,,,,,,,,,,,,j,0.4838,space,0.6503,,,,,,,,0,85,85,99,1,,
587a40cfd22a5800014c5ad1,2023-06-16_10h04.52.512,phx_ver10,2022.2.5,Win32,59.91970759,,,,,,,,,,,,81,testing_3,j2x,au,j2x_au,j2x_1_aujau.wav,j2x_1_aujau.wav,,TRUE,FALSE,,,,,,,,,,,,,,f,1.2838,space,1.4841,,,,,,,,0,86,86,80,1,,
587a40cfd22a5800014c5ad1,2023-06-16_10h04.52.512,phx_ver10,2022.2.5,Win32,59.91970759,,,,,,,,,,,,18,testing_2,zh2x,au,zh2x_au,zh2x_8_auxau.wav,zh2x_8_auxau.wav,,TRUE,FALSE,,,,,,,,,,,,,,f,0.9222,space,1.1505,,,,,,,,0,87,87,17,1,,
587a40cfd22a5800014c5ad1,2023-06-16_10h04.52.512,phx_ver10,2022.2.5,Win32,59.91970759,,,,,,,,,,,,5,testing_1,zh2x,e,zh2x_e,zh2x_1_ezhe.wav,zh2x_1_ezhe_copy.wav,,TRUE,TRUE,,,,,,,,,,,,,,f,0.1232,space,0.3504,,,,,,,,0,88,88,4,1,,
587a40cfd22a5800014c5ad1,2023-06-16_10h04.52.512,phx_ver10,2022.2.5,Win32,59.91970759,,,,,,,,,,,,144,testing_3,sh2j,i,sh2j_i,sh2j_8_iji.wav,sh2j_1_ishi.wav,,FALSE,FALSE,,,,,,,,,,,,,,j,0.3004,space,0.6672,,,,,,,,0,89,89,143,1,,
587a40cfd22a5800014c5ad1,2023-06-16_10h04.52.512,phx_ver10,2022.2.5,Win32,59.91970759,,,,,,,,,,,,61,testing_3,zh2j,e,zh2j_e,zh2j_1_ezhe.wav,zh2j_1_ezhe.wav,,TRUE,FALSE,,,,,,,,,,,,,,f,0.9452,space,1.1952,,,,,,,,0,90,90,60,1,,
587a40cfd22a5800014c5ad1,2023-06-16_10h04.52.512,phx_ver10,2022.2.5,Win32,59.91970759,,,,,,,,,,,,54,testing_3,zh2j,ai,zh2j_ai,zh2j_8_aijai.wav,zh2j_8_aijai.wav,,TRUE,FALSE,,,,,,,,,,,,,,f,0.074,space,0.4014,,,,,,,,0,91,91,53,1,,
587a40cfd22a5800014c5ad1,2023-06-16_10h04.52.512,phx_ver10,2022.2.5,Win32,59.91970759,,,,,,,,,,,,140,testing_3,sh2j,ei,sh2j_ei,sh2j_8_eijei.wav,sh2j_1_eishei.wav,,FALSE,FALSE,,,,,,,,,,,,,,j,0.9671,space,3.7839,,,,,,,,0,92,92,139,1,,
587a40cfd22a5800014c5ad1,2023-06-16_10h04.52.512,phx_ver10,2022.2.5,Win32,59.91970759,,,,,,,,,,,,14,testing_2,zh2x,ai,zh2x_ai,zh2x_8_aixai.wav,zh2x_8_aixai.wav,,TRUE,FALSE,,,,,,,,,,,,,,f,1.6672,space,2.0672,,,,,,,,0,93,93,13,1,,
587a40cfd22a5800014c5ad1,2023-06-16_10h04.52.512,phx_ver10,2022.2.5,Win32,59.91970759,,,,,,,,,,,,142,testing_3,sh2j,i,sh2j_i,sh2j_8_iji.wav,sh2j_8_iji.wav,,TRUE,FALSE,,,,,,,,,,,,,,f,0.3707,space,0.7255,,,,,,,,0,94,94,141,1,,
587a40cfd22a5800014c5ad1,2023-06-16_10h04.52.512,phx_ver10,2022.2.5,Win32,59.91970759,,,,,,,,,,,,48,testing_3,zh2sh,i,zh2sh_i,zh2sh_8_ishi.wav,zh2sh_1_izhi.wav,,FALSE,FALSE,,,,,,,,,,,,,,f,0.0641,space,1.4231,,,,,,,,0,95,95,47,1,,
587a40cfd22a5800014c5ad1,2023-06-16_10h04.52.512,phx_ver10,2022.2.5,Win32,59.91970759,,,,,,,,,,,,82,testing_3,j2x,au,j2x_au,j2x_8_auxau.wav,j2x_8_auxau.wav,,TRUE,FALSE,,,,,,,,,,,,,,f,0.9006,space,1.1838,,,,,,,,0,96,96,81,1,,
587a40cfd22a5800014c5ad1,2023-06-16_10h04.52.512,phx_ver10,2022.2.5,Win32,59.91970759,,,,,,,,,,,,137,testing_3,sh2j,ei,sh2j_ei,sh2j_1_eishei.wav,sh2j_1_eishei.wav,,TRUE,FALSE,,,,,,,,,,,,,,f,0.2839,space,0.7839,,,,,,,,0,97,97,136,1,,
587a40cfd22a5800014c5ad1,2023-06-16_10h04.52.512,phx_ver10,2022.2.5,Win32,59.91970759,,,,,,,,,,,,102,testing_3,sh2x,ai,sh2x_ai,sh2x_8_aixai.wav,sh2x_8_aixai.wav,,TRUE,FALSE,,,,,,,,,,,,,,f,0.234,space,0.6505,,,,,,,,0,98,98,101,1,,
587a40cfd22a5800014c5ad1,2023-06-16_10h04.52.512,phx_ver10,2022.2.5,Win32,59.91970759,,,,,,,,,,,,49,testing_3,zh2j,a,zh2j_a,zh2j_1_azha.wav,zh2j_1_azha.wav,,TRUE,FALSE,,,,,,,,,,,,,,f,1.1836,space,1.4504,,,,,,,,0,99,99,48,1,,
587a40cfd22a5800014c5ad1,2023-06-16_10h04.52.512,phx_ver10,2022.2.5,Win32,59.91970759,,,,,,,,,,,,16,testing_2,zh2x,ai,zh2x_ai,zh2x_8_aixai.wav,zh2x_1_aizhai.wav,,FALSE,FALSE,,,,,,,,,,,,,,j,0.338,space,0.7839,,,,,,,,0,100,100,15,1,,
587a40cfd22a5800014c5ad1,2023-06-16_10h04.52.512,phx_ver10,2022.2.5,Win32,59.91970759,,,,,,,,,,,,124,testing_3,sh2j,a,sh2j_a,sh2j_8_aja.wav,sh2j_1_asha.wav,,FALSE,FALSE,,,,,,,,,,,,,,j,0.284,space,0.5673,,,,,,,,0,101,101,123,1,,
587a40cfd22a5800014c5ad1,2023-06-16_10h04.52.512,phx_ver10,2022.2.5,Win32,59.91970759,,,,,,,,,,,,31,testing_3,zh2sh,ai,zh2sh_ai,zh2sh_1_aizhai.wav,zh2sh_8_aishai.wav,,FALSE,FALSE,,,,,,,,,,,,,,f,1.1836,space,1.584,,,,,,,,0,102,102,30,1,,
587a40cfd22a5800014c5ad1,2023-06-16_10h04.52.512,phx_ver10,2022.2.5,Win32,59.91970759,,,,,,,,,,,,138,testing_3,sh2j,ei,sh2j_ei,sh2j_8_eijei.wav,sh2j_8_eijei.wav,,TRUE,FALSE,,,,,,,,,,,,,,f,4.1504,space,4.3663,,,,,,,,0,103,103,137,1,,
587a40cfd22a5800014c5ad1,2023-06-16_10h04.52.512,phx_ver10,2022.2.5,Win32,59.91970759,,,,,,,,,,,,134,testing_3,sh2j,e,sh2j_e,sh2j_8_eje.wav,sh2j_8_eje.wav,,TRUE,FALSE,,,,,,,,,,,,,,f,0.2506,space,0.4506,,,,,,,,0,104,104,133,1,,
587a40cfd22a5800014c5ad1,2023-06-16_10h04.52.512,phx_ver10,2022.2.5,Win32,59.91970759,,,,,,,,,,,,34,testing_3,zh2sh,au,zh2sh_au,zh2sh_8_aushau.wav,zh2sh_8_aushau.wav,,TRUE,FALSE,,,,,,,,,,,,,,f,0.0005,space,0.3005,,,,,,,,0,105,105,33,1,,
587a40cfd22a5800014c5ad1,2023-06-16_10h04.52.512,phx_ver10,2022.2.5,Win32,59.91970759,,,,,,,,,,,,25,testing_3,zh2sh,a,zh2sh_a,zh2sh_1_azha.wav,zh2sh_1_azha.wav,,TRUE,FALSE,,,,,,,,,,,,,,f,0.0671,space,0.4328,,,,,,,,0,106,106,24,1,,
587a40cfd22a5800014c5ad1,2023-06-16_10h04.52.512,phx_ver10,2022.2.5,Win32,59.91970759,,,,,,,,,,,,24,testing_2,zh2x,ei,zh2x_ei,zh2x_8_eixei.wav,zh2x_1_eizhei.wav,,FALSE,FALSE,,,,,,,,,,,,,,f,0.1558,space,0.4004,,,,,,,,0,107,107,23,1,,
587a40cfd22a5800014c5ad1,2023-06-16_10h04.52.512,phx_ver10,2022.2.5,Win32,59.91970759,,,,,,,,,,,,23,testing_2,zh2x,ei,zh2x_ei,zh2x_1_eizhei.wav,zh2x_8_eixei.wav,,FALSE,FALSE,,,,,,,,,,,,,,j,0.1204,space,0.3705,,,,,,,,0,108,108,22,1,,
587a40cfd22a5800014c5ad1,2023-06-16_10h04.52.512,phx_ver10,2022.2.5,Win32,59.91970759,,,,,,,,,,,,12,testing_1,zh2x,i,zh2x_i,zh2x_8_ixi.wav,zh2x_1_izhi.wav,,FALSE,TRUE,,,,,,,,,,,,,,j,0.1306,space,0.3508,,,,,,,,0,109,109,11,1,,
587a40cfd22a5800014c5ad1,2023-06-16_10h04.52.512,phx_ver10,2022.2.5,Win32,59.91970759,,,,,,,,,,,,8,testing_1,zh2x,e,zh2x_e,zh2x_8_exe.wav,zh2x_1_ezhe.wav,,FALSE,TRUE,,,,,,,,,,,,,,f,0.4671,space,0.7839,,,,,,,,0,110,110,7,1,,
587a40cfd22a5800014c5ad1,2023-06-16_10h04.52.512,phx_ver10,2022.2.5,Win32,59.91970759,,,,,,,,,,,,44,testing_3,zh2sh,ei,zh2sh_ei,zh2sh_8_eishei.wav,zh2sh_1_eizhei.wav,,FALSE,FALSE,,,,,,,,,,,,,,f,0.4141,space,0.6004,,,,,,,,0,111,111,43,1,,
587a40cfd22a5800014c5ad1,2023-06-16_10h04.52.512,phx_ver10,2022.2.5,Win32,59.91970759,,,,,,,,,,,,116,testing_3,sh2x,ei,sh2x_ei,sh2x_8_eixei.wav,sh2x_1_eishei.wav,,FALSE,FALSE,,,,,,,,,,,,,,f,0.0006,space,0.3064,,,,,,,,0,112,112,115,1,,
587a40cfd22a5800014c5ad1,2023-06-16_10h04.52.512,phx_ver10,2022.2.5,Win32,59.91970759,,,,,,,,,,,,112,testing_3,sh2x,e,sh2x_e,sh2x_8_exe.wav,sh2x_1_eshe.wav,,FALSE,FALSE,,,,,,,,,,,,,,f,0.1506,space,0.4007,,,,,,,,0,113,113,111,1,,
587a40cfd22a5800014c5ad1,2023-06-16_10h04.52.512,phx_ver10,2022.2.5,Win32,59.91970759,,,,,,,,,,,,104,testing_3,sh2x,ai,sh2x_ai,sh2x_8_aixai.wav,sh2x_1_aishai.wav,,FALSE,FALSE,,,,,,,,,,,,,,f,0.3507,space,0.5836,,,,,,,,0,114,114,103,1,,
587a40cfd22a5800014c5ad1,2023-06-16_10h04.52.512,phx_ver10,2022.2.5,Win32,59.91970759,,,,,,,,,,,,75,testing_3,j2x,a,j2x_a,j2x_1_aja.wav,j2x_8_axa.wav,,FALSE,FALSE,,,,,,,,,,,,,,j,0.7006,space,0.9671,,,,,,,,0,115,115,74,1,,
587a40cfd22a5800014c5ad1,2023-06-16_10h04.52.512,phx_ver10,2022.2.5,Win32,59.91970759,,,,,,,,,,,,73,testing_3,j2x,a,j2x_a,j2x_1_aja.wav,j2x_1_aja.wav,,TRUE,FALSE,,,,,,,,,,,,,,f,4.3828,space,4.6054,,,,,,,,0,116,116,72,1,,
587a40cfd22a5800014c5ad1,2023-06-16_10h04.52.512,phx_ver10,2022.2.5,Win32,59.91970759,,,,,,,,,,,,45,testing_3,zh2sh,i,zh2sh_i,zh2sh_1_izhi.wav,zh2sh_1_izhi.wav,,TRUE,FALSE,,,,,,,,,,,,,,f,0.4504,space,0.6671,,,,,,,,0,117,117,44,1,,
587a40cfd22a5800014c5ad1,2023-06-16_10h04.52.512,phx_ver10,2022.2.5,Win32,59.91970759,,,,,,,,,,,,64,testing_3,zh2j,e,zh2j_e,zh2j_8_eje.wav,zh2j_1_ezhe.wav,,FALSE,FALSE,,,,,,,,,,,,,,f,0.3454,space,0.562,,,,,,,,0,118,118,63,1,,
587a40cfd22a5800014c5ad1,2023-06-16_10h04.52.512,phx_ver10,2022.2.5,Win32,59.91970759,,,,,,,,,,,,117,testing_3,sh2x,i,sh2x_i,sh2x_1_ishi.wav,sh2x_1_ishi.wav,,TRUE,FALSE,,,,,,,,,,,,,,f,0.8051,space,1.0698,,,,,,,,0,119,119,116,1,,
587a40cfd22a5800014c5ad1,2023-06-16_10h04.52.512,phx_ver10,2022.2.5,Win32,59.91970759,,,,,,,,,,,,39,testing_3,zh2sh,e,zh2sh_e,zh2sh_1_ezhe.wav,zh2sh_8_eshe.wav,,FALSE,FALSE,,,,,,,,,,,,,,f,0.684,space,0.8337,,,,,,,,0,120,120,38,1,,
587a40cfd22a5800014c5ad1,2023-06-16_10h04.52.512,phx_ver10,2022.2.5,Win32,59.91970759,,,,,,,,,,,,141,testing_3,sh2j,i,sh2j_i,sh2j_1_ishi.wav,sh2j_1_ishi.wav,,TRUE,FALSE,,,,,,,,,,,,,,f,0.5699,space,0.7337,,,,,,,,0,121,121,140,1,,
587a40cfd22a5800014c5ad1,2023-06-16_10h04.52.512,phx_ver10,2022.2.5,Win32,59.91970759,,,,,,,,,,,,63,testing_3,zh2j,e,zh2j_e,zh2j_1_ezhe.wav,zh2j_8_eje.wav,,FALSE,FALSE,,,,,,,,,,,,,,f,4.0005,space,4.1838,,,,,,,,0,122,122,62,1,,
587a40cfd22a5800014c5ad1,2023-06-16_10h04.52.512,phx_ver10,2022.2.5,Win32,59.91970759,,,,,,,,,,,,106,testing_3,sh2x,au,sh2x_au,sh2x_8_auxau.wav,sh2x_8_auxau.wav,,TRUE,FALSE,,,,,,,,,,,,,,f,2.6097,space,2.9574,,,,,,,,0,123,123,105,1,,
587a40cfd22a5800014c5ad1,2023-06-16_10h04.52.512,phx_ver10,2022.2.5,Win32,59.91970759,,,,,,,,,,,,7,testing_1,zh2x,e,zh2x_e,zh2x_1_ezhe.wav,zh2x_8_exe.wav,,FALSE,TRUE,,,,,,,,,,,,,,j,0.9006,space,1.0671,,,,,,,,0,124,124,6,1,,
587a40cfd22a5800014c5ad1,2023-06-16_10h04.52.512,phx_ver10,2022.2.5,Win32,59.91970759,,,,,,,,,,,,85,testing_3,j2x,e,j2x_e,j2x_1_eje.wav,j2x_1_eje.wav,,TRUE,FALSE,,,,,,,,,,,,,,f,0.6338,space,0.8672,,,,,,,,0,125,125,84,1,,
587a40cfd22a5800014c5ad1,2023-06-16_10h04.52.512,phx_ver10,2022.2.5,Win32,59.91970759,,,,,,,,,,,,13,testing_2,zh2x,ai,zh2x_ai,zh2x_1_aizhai.wav,zh2x_1_aizhai.wav,,TRUE,FALSE,,,,,,,,,,,,,,f,3.7877,space,4.1186,,,,,,,,0,126,126,12,1,,
587a40cfd22a5800014c5ad1,2023-06-16_10h04.52.512,phx_ver10,2022.2.5,Win32,59.91970759,,,,,,,,,,,,67,testing_3,zh2j,ei,zh2j_ei,zh2j_1_eizhei.wav,zh2j_8_eijei.wav,,FALSE,FALSE,,,,,,,,,,,,,,f,1.8411,space,2.1328,,,,,,,,0,127,127,66,1,,
587a40cfd22a5800014c5ad1,2023-06-16_10h04.52.512,phx_ver10,2022.2.5,Win32,59.91970759,,,,,,,,,,,,28,testing_3,zh2sh,a,zh2sh_a,zh2sh_8_asha.wav,zh2sh_1_azha.wav,,FALSE,FALSE,,,,,,,,,,,,,,j,0.2642,space,0.4175,,,,,,,,0,128,128,27,1,,
587a40cfd22a5800014c5ad1,2023-06-16_10h04.52.512,phx_ver10,2022.2.5,Win32,59.91970759,,,,,,,,,,,,133,testing_3,sh2j,e,sh2j_e,sh2j_1_eshe.wav,sh2j_1_eshe.wav,,TRUE,FALSE,,,,,,,,,,,,,,f,3.5083,space,3.6672,,,,,,,,0,129,129,132,1,,
587a40cfd22a5800014c5ad1,2023-06-16_10h04.52.512,phx_ver10,2022.2.5,Win32,59.91970759,,,,,,,,,,,,89,testing_3,j2x,ei,j2x_ei,j2x_1_eijei.wav,j2x_1_eijei.wav,,TRUE,FALSE,,,,,,,,,,,,,,f,4.9839,space,5.2838,,,,,,,,0,130,130,88,1,,
587a40cfd22a5800014c5ad1,2023-06-16_10h04.52.512,phx_ver10,2022.2.5,Win32,59.91970759,,,,,,,,,,,,135,testing_3,sh2j,e,sh2j_e,sh2j_1_eshe.wav,sh2j_8_eje.wav,,FALSE,FALSE,,,,,,,,,,,,,,f,1.8727,space,2.258,,,,,,,,0,131,131,134,1,,
587a40cfd22a5800014c5ad1,2023-06-16_10h04.52.512,phx_ver10,2022.2.5,Win32,59.91970759,,,,,,,,,,,,58,testing_3,zh2j,au,zh2j_au,zh2j_8_aujau.wav,zh2j_8_aujau.wav,,TRUE,FALSE,,,,,,,,,,,,,,f,1.1171,space,1.321,,,,,,,,0,132,132,57,1,,
587a40cfd22a5800014c5ad1,2023-06-16_10h04.52.512,phx_ver10,2022.2.5,Win32,59.91970759,,,,,,,,,,,,69,testing_3,zh2j,i,zh2j_i,zh2j_1_izhi.wav,zh2j_1_izhi.wav,,TRUE,FALSE,,,,,,,,,,,,,,j,1.3741,space,1.6662,,,,,,,,0,133,133,68,1,,
587a40cfd22a5800014c5ad1,2023-06-16_10h04.52.512,phx_ver10,2022.2.5,Win32,59.91970759,,,,,,,,,,,,76,testing_3,j2x,a,j2x_a,j2x_8_axa.wav,j2x_1_aja.wav,,FALSE,FALSE,,,,,,,,,,,,,,f,1.1005,space,1.6338,,,,,,,,0,134,134,75,1,,
587a40cfd22a5800014c5ad1,2023-06-16_10h04.52.512,phx_ver10,2022.2.5,Win32,59.91970759,,,,,,,,,,,,70,testing_3,zh2j,i,zh2j_i,zh2j_8_iji.wav,zh2j_8_iji.wav,,TRUE,FALSE,,,,,,,,,,,,,,f,0.0337,space,0.4505,,,,,,,,0,135,135,69,1,,
587a40cfd22a5800014c5ad1,2023-06-16_10h04.52.512,phx_ver10,2022.2.5,Win32,59.91970759,,,,,,,,,,,,17,testing_2,zh2x,au,zh2x_au,zh2x_1_auzhau.wav,zh2x_1_auzhau.wav,,TRUE,FALSE,,,,,,,,,,,,,,f,10.9496,space,11.5994,,,,,,,,0,136,136,16,1,,
587a40cfd22a5800014c5ad1,2023-06-16_10h04.52.512,phx_ver10,2022.2.5,Win32,59.91970759,,,,,,,,,,,,143,testing_3,sh2j,i,sh2j_i,sh2j_1_ishi.wav,sh2j_8_iji.wav,,FALSE,FALSE,,,,,,,,,,,,,,j,4.6247,space,4.8506,,,,,,,,0,137,137,142,1,,
587a40cfd22a5800014c5ad1,2023-06-16_10h04.52.512,phx_ver10,2022.2.5,Win32,59.91970759,,,,,,,,,,,,99,testing_3,sh2x,a,sh2x_a,sh2x_1_asha.wav,sh2x_8_axa.wav,,FALSE,FALSE,,,,,,,,,,,,,,j,2.4674,space,2.7516,,,,,,,,0,138,138,98,1,,
587a40cfd22a5800014c5ad1,2023-06-16_10h04.52.512,phx_ver10,2022.2.5,Win32,59.91970759,,,,,,,,,,,,53,testing_3,zh2j,ai,zh2j_ai,zh2j_1_aizhai.wav,zh2j_1_aizhai.wav,,TRUE,FALSE,,,,,,,,,,,,,,f,0.2504,space,0.5341,,,,,,,,0,139,139,52,1,,
587a40cfd22a5800014c5ad1,2023-06-16_10h04.52.512,phx_ver10,2022.2.5,Win32,59.91970759,,,,,,,,,,,,40,testing_3,zh2sh,e,zh2sh_e,zh2sh_8_eshe.wav,zh2sh_1_ezhe.wav,,FALSE,FALSE,,,,,,,,,,,,,,j,4.1495,space,4.5162,,,,,,,,0,140,140,39,1,,
587a40cfd22a5800014c5ad1,2023-06-16_10h04.52.512,phx_ver10,2022.2.5,Win32,59.91970759,,,,,,,,,,,,130,testing_3,sh2j,au,sh2j_au,sh2j_8_aujau.wav,sh2j_8_aujau.wav,,TRUE,FALSE,,,,,,,,,,,,,,f,8.7006,space,9.0006,,,,,,,,0,141,141,129,1,,
587a40cfd22a5800014c5ad1,2023-06-16_10h04.52.512,phx_ver10,2022.2.5,Win32,59.91970759,,,,,,,,,,,,21,testing_2,zh2x,ei,zh2x_ei,zh2x_1_eizhei.wav,zh2x_1_eizhei.wav,,TRUE,FALSE,,,,,,,,,,,,,,f,3.2674,space,3.5505,,,,,,,,0,142,142,20,1,,
587a40cfd22a5800014c5ad1,2023-06-16_10h04.52.512,phx_ver10,2022.2.5,Win32,59.91970759,,,,,,,,,,,,62,testing_3,zh2j,e,zh2j_e,zh2j_8_eje.wav,zh2j_8_eje.wav,,TRUE,FALSE,,,,,,,,,,,,,,j,3.4084,space,3.7869,,,,,,,,0,143,143,61,1,,
587a40cfd22a5800014c5ad1,2023-06-16_10h04.52.512,phx_ver10,2022.2.5,Win32,59.91970759,,,,,,,,,,,,,,,,,,,,,,,,,,,,,,,,,,,,,,,,,,,,,,,,,,,space,5.3996
