participant,date,expName,psychopyVersion,OS,frameRate,space_1.keys,space_1.rt,space_2.keys,space_2.rt,space_train.keys,space_train.rt,training.thisRepN,training.thisTrialN,training.thisN,training.thisIndex,training.ran,token_id,task,continuum,vowel,series,sound_1,sound_2,img,same,trained,FJ_attn.keys,FJ_attn.rt,space_attn.keys,space_attn.rt,if_attn_test.thisRepN,if_attn_test.thisTrialN,if_attn_test.thisN,if_attn_test.thisIndex,if_attn_test.ran,space_trans_1.keys,space_trans_1.rt,space_trans_11.keys,space_trans_11.rt,FJ_test.keys,FJ_test.rt,space_test.keys,space_test.rt,testing_pre.thisRepN,testing_pre.thisTrialN,testing_pre.thisN,testing_pre.thisIndex,testing_pre.ran,space_trans_2.keys,space_trans_2.rt,testing_all.thisRepN,testing_all.thisTrialN,testing_all.thisN,testing_all.thisIndex,testing_all.ran,space_ending.keys,space_ending.rt
59609bdb599b690001ef2c59,2023-06-16_21h30.06.079,phx_ver10,2022.2.5,Win32,59.95203837,,,,,,,,,,,,,,,,,,,,,,,,,,,,,,,,,,,,,,,,,,,,,,,,,,,,
59609bdb599b690001ef2c59,2023-06-16_21h30.06.079,phx_ver10,2022.2.5,Win32,59.95203837,space,8.053,,,,,,,,,,,,,,,,,,,,,,,,,,,,,,,,,,,,,,,,,,,,,,,,,,
59609bdb599b690001ef2c59,2023-06-16_21h30.06.079,phx_ver10,2022.2.5,Win32,59.95203837,,,space,4.081,,,,,,,,,,,,,,,,,,,,,,,,,,,,,,,,,,,,,,,,,,,,,,,,
59609bdb599b690001ef2c59,2023-06-16_21h30.06.079,phx_ver10,2022.2.5,Win32,59.95203837,,,,,space,5.982,0,0,0,39,1,40,training,zh2x,i,zh2x_i,zh2x_4_izhi.wav,,izhi.jpg,,,,,,,,,,,,,,,,,,,,,,,,,,,,,,,,,
59609bdb599b690001ef2c59,2023-06-16_21h30.06.079,phx_ver10,2022.2.5,Win32,59.95203837,,,,,space,3.935,0,1,1,33,1,34,training,zh2x,i,zh2x_i,zh2x_2_izhi.wav,,izhi.jpg,,,,,,,,,,,,,,,,,,,,,,,,,,,,,,,,,
59609bdb599b690001ef2c59,2023-06-16_21h30.06.079,phx_ver10,2022.2.5,Win32,59.95203837,,,,,space,3.502,0,2,2,2,1,3,training,zh2x,a,zh2x_a,zh2x_2_azha.wav,,azha.jpg,,,,,,,,,,,,,,,,,,,,,,,,,,,,,,,,,
59609bdb599b690001ef2c59,2023-06-16_21h30.06.079,phx_ver10,2022.2.5,Win32,59.95203837,,,,,space,2.718,0,3,3,0,1,1,training,zh2x,a,zh2x_a,zh2x_1_azha.wav,,azha.jpg,,,,,,,,,,,,,,,,,,,,,,,,,,,,,,,,,
59609bdb599b690001ef2c59,2023-06-16_21h30.06.079,phx_ver10,2022.2.5,Win32,59.95203837,,,,,space,4.684,0,4,4,27,1,28,training,zh2x,e,zh2x_e,zh2x_7_exe.wav,,exe.jpg,,,,,,,,,,,,,,,,,,,,,,,,,,,,,,,,,
59609bdb599b690001ef2c59,2023-06-16_21h30.06.079,phx_ver10,2022.2.5,Win32,59.95203837,,,,,space,2.284,0,5,5,17,1,18,training,zh2x,e,zh2x_e,zh2x_2_ezhe.wav,,ezhe.jpg,,,,,,,,,,,,,,,,,,,,,,,,,,,,,,,,,
59609bdb599b690001ef2c59,2023-06-16_21h30.06.079,phx_ver10,2022.2.5,Win32,59.95203837,,,,,,,,,,,,,attn_test,,,,zh2x_1_azha.wav,zh2x_1_izhi.wav,izhi.jpg,RIGHT,,f,4.931,space,8.198,0,0,0,0,1,,,,,,,,,,,,,,,,,,,,,,
59609bdb599b690001ef2c59,2023-06-16_21h30.06.079,phx_ver10,2022.2.5,Win32,59.95203837,,,,,space,2.401,0,6,6,10,1,11,training,zh2x,a,zh2x_a,zh2x_6_axa.wav,,axa.jpg,,,,,,,,,,,,,,,,,,,,,,,,,,,,,,,,,
59609bdb599b690001ef2c59,2023-06-16_21h30.06.079,phx_ver10,2022.2.5,Win32,59.95203837,,,,,space,1.667,0,7,7,9,1,10,training,zh2x,a,zh2x_a,zh2x_6_axa.wav,,axa.jpg,,,,,,,,,,,,,,,,,,,,,,,,,,,,,,,,,
59609bdb599b690001ef2c59,2023-06-16_21h30.06.079,phx_ver10,2022.2.5,Win32,59.95203837,,,,,space,4.317,0,8,8,30,1,31,training,zh2x,e,zh2x_e,zh2x_7_exe.wav,,exe.jpg,,,,,,,,,,,,,,,,,,,,,,,,,,,,,,,,,
59609bdb599b690001ef2c59,2023-06-16_21h30.06.079,phx_ver10,2022.2.5,Win32,59.95203837,,,,,space,3.37,0,9,9,32,1,33,training,zh2x,i,zh2x_i,zh2x_1_izhi.wav,,izhi.jpg,,,,,,,,,,,,,,,,,,,,,,,,,,,,,,,,,
59609bdb599b690001ef2c59,2023-06-16_21h30.06.079,phx_ver10,2022.2.5,Win32,59.95203837,,,,,space,1.917,0,10,10,28,1,29,training,zh2x,e,zh2x_e,zh2x_7_exe.wav,,exe.jpg,,,,,,,,,,,,,,,,,,,,,,,,,,,,,,,,,
59609bdb599b690001ef2c59,2023-06-16_21h30.06.079,phx_ver10,2022.2.5,Win32,59.95203837,,,,,space,3.069,0,11,11,47,1,48,training,zh2x,i,zh2x_i,zh2x_8_ixi.wav,,ixi.jpg,,,,,,,,,,,,,,,,,,,,,,,,,,,,,,,,,
59609bdb599b690001ef2c59,2023-06-16_21h30.06.079,phx_ver10,2022.2.5,Win32,59.95203837,,,,,,,,,,,,,attn_test,,,,zh2x_8_axa.wav,zh2x_8_ixi.wav,ixi.jpg,RIGHT,,j,2.685,space,5.085,0,0,0,0,1,,,,,,,,,,,,,,,,,,,,,,
59609bdb599b690001ef2c59,2023-06-16_21h30.06.079,phx_ver10,2022.2.5,Win32,59.95203837,,,,,space,1.985,0,12,12,23,1,24,training,zh2x,e,zh2x_e,zh2x_4_ezhe.wav,,ezhe.jpg,,,,,,,,,,,,,,,,,,,,,,,,,,,,,,,,,
59609bdb599b690001ef2c59,2023-06-16_21h30.06.079,phx_ver10,2022.2.5,Win32,59.95203837,,,,,space,1.684,0,13,13,22,1,23,training,zh2x,e,zh2x_e,zh2x_3_ezhe.wav,,ezhe.jpg,,,,,,,,,,,,,,,,,,,,,,,,,,,,,,,,,
59609bdb599b690001ef2c59,2023-06-16_21h30.06.079,phx_ver10,2022.2.5,Win32,59.95203837,,,,,space,2.618,0,14,14,43,1,44,training,zh2x,i,zh2x_i,zh2x_7_ixi.wav,,ixi.jpg,,,,,,,,,,,,,,,,,,,,,,,,,,,,,,,,,
59609bdb599b690001ef2c59,2023-06-16_21h30.06.079,phx_ver10,2022.2.5,Win32,59.95203837,,,,,space,2.401,0,15,15,35,1,36,training,zh2x,i,zh2x_i,zh2x_2_izhi.wav,,izhi.jpg,,,,,,,,,,,,,,,,,,,,,,,,,,,,,,,,,
59609bdb599b690001ef2c59,2023-06-16_21h30.06.079,phx_ver10,2022.2.5,Win32,59.95203837,,,,,space,1.585,0,16,16,40,1,41,training,zh2x,i,zh2x_i,zh2x_5_ixi.wav,,ixi.jpg,,,,,,,,,,,,,,,,,,,,,,,,,,,,,,,,,
59609bdb599b690001ef2c59,2023-06-16_21h30.06.079,phx_ver10,2022.2.5,Win32,59.95203837,,,,,space,1.068,0,17,17,45,1,46,training,zh2x,i,zh2x_i,zh2x_7_ixi.wav,,ixi.jpg,,,,,,,,,,,,,,,,,,,,,,,,,,,,,,,,,
59609bdb599b690001ef2c59,2023-06-16_21h30.06.079,phx_ver10,2022.2.5,Win32,59.95203837,,,,,,,,,,,,,attn_test,,,,zh2x_1_izhi.wav,zh2x_8_axa.wav,izhi.jpg,LEFT,,f,1.784,space,2.934,0,0,0,0,1,,,,,,,,,,,,,,,,,,,,,,
59609bdb599b690001ef2c59,2023-06-16_21h30.06.079,phx_ver10,2022.2.5,Win32,59.95203837,,,,,space,2.217,0,18,18,38,1,39,training,zh2x,i,zh2x_i,zh2x_3_izhi.wav,,izhi.jpg,,,,,,,,,,,,,,,,,,,,,,,,,,,,,,,,,
59609bdb599b690001ef2c59,2023-06-16_21h30.06.079,phx_ver10,2022.2.5,Win32,59.95203837,,,,,space,2.218,0,19,19,42,1,43,training,zh2x,i,zh2x_i,zh2x_6_ixi.wav,,ixi.jpg,,,,,,,,,,,,,,,,,,,,,,,,,,,,,,,,,
59609bdb599b690001ef2c59,2023-06-16_21h30.06.079,phx_ver10,2022.2.5,Win32,59.95203837,,,,,space,4.421,0,20,20,25,1,26,training,zh2x,e,zh2x_e,zh2x_6_exe.wav,,exe.jpg,,,,,,,,,,,,,,,,,,,,,,,,,,,,,,,,,
59609bdb599b690001ef2c59,2023-06-16_21h30.06.079,phx_ver10,2022.2.5,Win32,59.95203837,,,,,space,1.587,0,21,21,12,1,13,training,zh2x,a,zh2x_a,zh2x_7_axa.wav,,axa.jpg,,,,,,,,,,,,,,,,,,,,,,,,,,,,,,,,,
59609bdb599b690001ef2c59,2023-06-16_21h30.06.079,phx_ver10,2022.2.5,Win32,59.95203837,,,,,space,1.602,0,22,22,7,1,8,training,zh2x,a,zh2x_a,zh2x_4_azha.wav,,azha.jpg,,,,,,,,,,,,,,,,,,,,,,,,,,,,,,,,,
59609bdb599b690001ef2c59,2023-06-16_21h30.06.079,phx_ver10,2022.2.5,Win32,59.95203837,,,,,space,1.735,0,23,23,44,1,45,training,zh2x,i,zh2x_i,zh2x_7_ixi.wav,,ixi.jpg,,,,,,,,,,,,,,,,,,,,,,,,,,,,,,,,,
59609bdb599b690001ef2c59,2023-06-16_21h30.06.079,phx_ver10,2022.2.5,Win32,59.95203837,,,,,,,,,,,,,attn_test,,,,zh2x_1_izhi.wav,zh2x_8_ixi.wav,ixi.jpg,RIGHT,,f,1.4,space,2.469,0,0,0,0,1,,,,,,,,,,,,,,,,,,,,,,
59609bdb599b690001ef2c59,2023-06-16_21h30.06.079,phx_ver10,2022.2.5,Win32,59.95203837,,,,,space,1.702,0,24,24,14,1,15,training,zh2x,a,zh2x_a,zh2x_7_axa.wav,,axa.jpg,,,,,,,,,,,,,,,,,,,,,,,,,,,,,,,,,
59609bdb599b690001ef2c59,2023-06-16_21h30.06.079,phx_ver10,2022.2.5,Win32,59.95203837,,,,,space,2.552,0,25,25,5,1,6,training,zh2x,a,zh2x_a,zh2x_3_azha.wav,,azha.jpg,,,,,,,,,,,,,,,,,,,,,,,,,,,,,,,,,
59609bdb599b690001ef2c59,2023-06-16_21h30.06.079,phx_ver10,2022.2.5,Win32,59.95203837,,,,,space,1.367,0,26,26,31,1,32,training,zh2x,e,zh2x_e,zh2x_8_exe.wav,,exe.jpg,,,,,,,,,,,,,,,,,,,,,,,,,,,,,,,,,
59609bdb599b690001ef2c59,2023-06-16_21h30.06.079,phx_ver10,2022.2.5,Win32,59.95203837,,,,,space,2.033,0,27,27,36,1,37,training,zh2x,i,zh2x_i,zh2x_2_izhi.wav,,izhi.jpg,,,,,,,,,,,,,,,,,,,,,,,,,,,,,,,,,
59609bdb599b690001ef2c59,2023-06-16_21h30.06.079,phx_ver10,2022.2.5,Win32,59.95203837,,,,,space,1.368,0,28,28,24,1,25,training,zh2x,e,zh2x_e,zh2x_5_exe.wav,,exe.jpg,,,,,,,,,,,,,,,,,,,,,,,,,,,,,,,,,
59609bdb599b690001ef2c59,2023-06-16_21h30.06.079,phx_ver10,2022.2.5,Win32,59.95203837,,,,,space,0.685,0,29,29,26,1,27,training,zh2x,e,zh2x_e,zh2x_6_exe.wav,,exe.jpg,,,,,,,,,,,,,,,,,,,,,,,,,,,,,,,,,
59609bdb599b690001ef2c59,2023-06-16_21h30.06.079,phx_ver10,2022.2.5,Win32,59.95203837,,,,,,,,,,,,,attn_test,,,,zh2x_1_azha.wav,zh2x_8_axa.wav,axa.jpg,RIGHT,,j,4.767,space,7.902,0,0,0,0,1,,,,,,,,,,,,,,,,,,,,,,
59609bdb599b690001ef2c59,2023-06-16_21h30.06.079,phx_ver10,2022.2.5,Win32,59.95203837,,,,,space,1.801,0,30,30,37,1,38,training,zh2x,i,zh2x_i,zh2x_3_izhi.wav,,izhi.jpg,,,,,,,,,,,,,,,,,,,,,,,,,,,,,,,,,
59609bdb599b690001ef2c59,2023-06-16_21h30.06.079,phx_ver10,2022.2.5,Win32,59.95203837,,,,,space,2.119,0,31,31,20,1,21,training,zh2x,e,zh2x_e,zh2x_2_ezhe.wav,,ezhe.jpg,,,,,,,,,,,,,,,,,,,,,,,,,,,,,,,,,
59609bdb599b690001ef2c59,2023-06-16_21h30.06.079,phx_ver10,2022.2.5,Win32,59.95203837,,,,,space,2.451,0,32,32,13,1,14,training,zh2x,a,zh2x_a,zh2x_7_axa.wav,,axa.jpg,,,,,,,,,,,,,,,,,,,,,,,,,,,,,,,,,
59609bdb599b690001ef2c59,2023-06-16_21h30.06.079,phx_ver10,2022.2.5,Win32,59.95203837,,,,,space,3.669,0,33,33,46,1,47,training,zh2x,i,zh2x_i,zh2x_7_ixi.wav,,ixi.jpg,,,,,,,,,,,,,,,,,,,,,,,,,,,,,,,,,
59609bdb599b690001ef2c59,2023-06-16_21h30.06.079,phx_ver10,2022.2.5,Win32,59.95203837,,,,,space,2.352,0,34,34,8,1,9,training,zh2x,a,zh2x_a,zh2x_5_axa.wav,,axa.jpg,,,,,,,,,,,,,,,,,,,,,,,,,,,,,,,,,
59609bdb599b690001ef2c59,2023-06-16_21h30.06.079,phx_ver10,2022.2.5,Win32,59.95203837,,,,,space,1.317,0,35,35,18,1,19,training,zh2x,e,zh2x_e,zh2x_2_ezhe.wav,,ezhe.jpg,,,,,,,,,,,,,,,,,,,,,,,,,,,,,,,,,
59609bdb599b690001ef2c59,2023-06-16_21h30.06.079,phx_ver10,2022.2.5,Win32,59.95203837,,,,,,,,,,,,,attn_test,,,,zh2x_8_exe.wav,zh2x_8_axa.wav,axa.jpg,RIGHT,,f,4.119,space,5.117,0,0,0,0,1,,,,,,,,,,,,,,,,,,,,,,
59609bdb599b690001ef2c59,2023-06-16_21h30.06.079,phx_ver10,2022.2.5,Win32,59.95203837,,,,,space,2,0,36,36,11,1,12,training,zh2x,a,zh2x_a,zh2x_7_axa.wav,,axa.jpg,,,,,,,,,,,,,,,,,,,,,,,,,,,,,,,,,
59609bdb599b690001ef2c59,2023-06-16_21h30.06.079,phx_ver10,2022.2.5,Win32,59.95203837,,,,,space,1.588,0,37,37,3,1,4,training,zh2x,a,zh2x_a,zh2x_2_azha.wav,,azha.jpg,,,,,,,,,,,,,,,,,,,,,,,,,,,,,,,,,
59609bdb599b690001ef2c59,2023-06-16_21h30.06.079,phx_ver10,2022.2.5,Win32,59.95203837,,,,,space,1.434,0,38,38,21,1,22,training,zh2x,e,zh2x_e,zh2x_3_ezhe.wav,,ezhe.jpg,,,,,,,,,,,,,,,,,,,,,,,,,,,,,,,,,
59609bdb599b690001ef2c59,2023-06-16_21h30.06.079,phx_ver10,2022.2.5,Win32,59.95203837,,,,,space,2.018,0,39,39,1,1,2,training,zh2x,a,zh2x_a,zh2x_2_azha.wav,,azha.jpg,,,,,,,,,,,,,,,,,,,,,,,,,,,,,,,,,
59609bdb599b690001ef2c59,2023-06-16_21h30.06.079,phx_ver10,2022.2.5,Win32,59.95203837,,,,,space,2.084,0,40,40,15,1,16,training,zh2x,a,zh2x_a,zh2x_8_axa.wav,,axa.jpg,,,,,,,,,,,,,,,,,,,,,,,,,,,,,,,,,
59609bdb599b690001ef2c59,2023-06-16_21h30.06.079,phx_ver10,2022.2.5,Win32,59.95203837,,,,,space,3.4,0,41,41,16,1,17,training,zh2x,e,zh2x_e,zh2x_1_ezhe.wav,,ezhe.jpg,,,,,,,,,,,,,,,,,,,,,,,,,,,,,,,,,
59609bdb599b690001ef2c59,2023-06-16_21h30.06.079,phx_ver10,2022.2.5,Win32,59.95203837,,,,,,,,,,,,,attn_test,,,,zh2x_1_ezhe.wav,zh2x_8_exe.wav,ezhe.jpg,LEFT,,f,2.701,space,4.234,0,0,0,0,1,,,,,,,,,,,,,,,,,,,,,,
59609bdb599b690001ef2c59,2023-06-16_21h30.06.079,phx_ver10,2022.2.5,Win32,59.95203837,,,,,space,2.319,0,42,42,34,1,35,training,zh2x,i,zh2x_i,zh2x_2_izhi.wav,,izhi.jpg,,,,,,,,,,,,,,,,,,,,,,,,,,,,,,,,,
59609bdb599b690001ef2c59,2023-06-16_21h30.06.079,phx_ver10,2022.2.5,Win32,59.95203837,,,,,space,1.9,0,43,43,19,1,20,training,zh2x,e,zh2x_e,zh2x_2_ezhe.wav,,ezhe.jpg,,,,,,,,,,,,,,,,,,,,,,,,,,,,,,,,,
59609bdb599b690001ef2c59,2023-06-16_21h30.06.079,phx_ver10,2022.2.5,Win32,59.95203837,,,,,space,2.017,0,44,44,4,1,5,training,zh2x,a,zh2x_a,zh2x_2_azha.wav,,azha.jpg,,,,,,,,,,,,,,,,,,,,,,,,,,,,,,,,,
59609bdb599b690001ef2c59,2023-06-16_21h30.06.079,phx_ver10,2022.2.5,Win32,59.95203837,,,,,space,3.268,0,45,45,29,1,30,training,zh2x,e,zh2x_e,zh2x_7_exe.wav,,exe.jpg,,,,,,,,,,,,,,,,,,,,,,,,,,,,,,,,,
59609bdb599b690001ef2c59,2023-06-16_21h30.06.079,phx_ver10,2022.2.5,Win32,59.95203837,,,,,space,2.5,0,46,46,6,1,7,training,zh2x,a,zh2x_a,zh2x_3_azha.wav,,azha.jpg,,,,,,,,,,,,,,,,,,,,,,,,,,,,,,,,,
59609bdb599b690001ef2c59,2023-06-16_21h30.06.079,phx_ver10,2022.2.5,Win32,59.95203837,,,,,space,2.135,0,47,47,41,1,42,training,zh2x,i,zh2x_i,zh2x_6_ixi.wav,,ixi.jpg,,,,,,,,,,,,,,,,,,,,,,,,,,,,,,,,,
59609bdb599b690001ef2c59,2023-06-16_21h30.06.079,phx_ver10,2022.2.5,Win32,59.95203837,,,,,,,,,,,,,attn_test,,,,zh2x_1_izhi.wav,zh2x_8_exe.wav,exe.jpg,RIGHT,,j,2.035,space,4.518,,,,,,,,,,,,,,,,,,,,,,,,,,,
59609bdb599b690001ef2c59,2023-06-16_21h30.06.079,phx_ver10,2022.2.5,Win32,59.95203837,,,,,,,,,,,,,,,,,,,,,,,,,,,,,,,space,2.002,,,,,,,,,,,,,,,,,,,,
59609bdb599b690001ef2c59,2023-06-16_21h30.06.079,phx_ver10,2022.2.5,Win32,59.95203837,,,,,,,,,,,,,,,,,,,,,,,,,,,,,,,,,space,4.881,,,,,,,,,,,,,,,,,,
59609bdb599b690001ef2c59,2023-06-16_21h30.06.079,phx_ver10,2022.2.5,Win32,59.95203837,,,,,,,,,,,,3,testing_pre,,,,afa.wav,aha.wav,,FALSE,,,,,,,,,,,,,,,f,2.665,space,3.881,0,0,0,2,1,,,,,,,,,
59609bdb599b690001ef2c59,2023-06-16_21h30.06.079,phx_ver10,2022.2.5,Win32,59.95203837,,,,,,,,,,,,2,testing_pre,,,,auhau.wav,aufau.wav,,FALSE,,,,,,,,,,,,,,,j,4.351,space,5.434,0,1,1,1,1,,,,,,,,,
59609bdb599b690001ef2c59,2023-06-16_21h30.06.079,phx_ver10,2022.2.5,Win32,59.95203837,,,,,,,,,,,,5,testing_pre,,,,ihi.wav,ifi.wav,,FALSE,,,,,,,,,,,,,,,f,2.485,space,3.853,0,2,2,4,1,,,,,,,,,
59609bdb599b690001ef2c59,2023-06-16_21h30.06.079,phx_ver10,2022.2.5,Win32,59.95203837,,,,,,,,,,,,1,testing_pre,,,,ifi.wav,ifi.wav,,TRUE,,,,,,,,,,,,,,,f,1.852,space,2.835,0,3,3,0,1,,,,,,,,,
59609bdb599b690001ef2c59,2023-06-16_21h30.06.079,phx_ver10,2022.2.5,Win32,59.95203837,,,,,,,,,,,,4,testing_pre,,,,eihei.wav,eihei.wav,,TRUE,,,,,,,,,,,,,,,f,2.969,space,3.8,0,4,4,3,1,,,,,,,,,
59609bdb599b690001ef2c59,2023-06-16_21h30.06.079,phx_ver10,2022.2.5,Win32,59.95203837,,,,,,,,,,,,,,,,,,,,,,,,,,,,,,,,,,,,,,,,,,,,space,0.949,,,,,,,
59609bdb599b690001ef2c59,2023-06-16_21h30.06.079,phx_ver10,2022.2.5,Win32,59.95203837,,,,,,,,,,,,89,testing_3,j2x,ei,j2x_ei,j2x_1_eijei.wav,j2x_1_eijei.wav,,TRUE,FALSE,,,,,,,,,,,,,,f,3.218,space,4.101,,,,,,,,0,0,0,88,1,,
59609bdb599b690001ef2c59,2023-06-16_21h30.06.079,phx_ver10,2022.2.5,Win32,59.95203837,,,,,,,,,,,,8,testing_1,zh2x,e,zh2x_e,zh2x_8_exe.wav,zh2x_1_ezhe.wav,,FALSE,TRUE,,,,,,,,,,,,,,j,1.773,space,2.869,,,,,,,,0,1,1,7,1,,
59609bdb599b690001ef2c59,2023-06-16_21h30.06.079,phx_ver10,2022.2.5,Win32,59.95203837,,,,,,,,,,,,11,testing_1,zh2x,i,zh2x_i,zh2x_1_izhi.wav,zh2x_8_ixi.wav,,FALSE,TRUE,,,,,,,,,,,,,,f,2.385,space,3.268,,,,,,,,0,2,2,10,1,,
59609bdb599b690001ef2c59,2023-06-16_21h30.06.079,phx_ver10,2022.2.5,Win32,59.95203837,,,,,,,,,,,,104,testing_3,sh2x,ai,sh2x_ai,sh2x_8_aixai.wav,sh2x_1_aishai.wav,,FALSE,FALSE,,,,,,,,,,,,,,f,1.801,space,2.733,,,,,,,,0,3,3,103,1,,
59609bdb599b690001ef2c59,2023-06-16_21h30.06.079,phx_ver10,2022.2.5,Win32,59.95203837,,,,,,,,,,,,63,testing_3,zh2j,e,zh2j_e,zh2j_1_ezhe.wav,zh2j_8_eje.wav,,FALSE,FALSE,,,,,,,,,,,,,,f,1.901,space,3.6,,,,,,,,0,4,4,62,1,,
59609bdb599b690001ef2c59,2023-06-16_21h30.06.079,phx_ver10,2022.2.5,Win32,59.95203837,,,,,,,,,,,,140,testing_3,sh2j,ei,sh2j_ei,sh2j_8_eijei.wav,sh2j_1_eishei.wav,,FALSE,FALSE,,,,,,,,,,,,,,f,2.319,space,3.335,,,,,,,,0,5,5,139,1,,
59609bdb599b690001ef2c59,2023-06-16_21h30.06.079,phx_ver10,2022.2.5,Win32,59.95203837,,,,,,,,,,,,101,testing_3,sh2x,ai,sh2x_ai,sh2x_1_aishai.wav,sh2x_1_aishai.wav,,TRUE,FALSE,,,,,,,,,,,,,,f,2.884,space,3.801,,,,,,,,0,6,6,100,1,,
59609bdb599b690001ef2c59,2023-06-16_21h30.06.079,phx_ver10,2022.2.5,Win32,59.95203837,,,,,,,,,,,,6,testing_1,zh2x,e,zh2x_e,zh2x_8_exe.wav,zh2x_8_exe_copy.wav,,TRUE,TRUE,,,,,,,,,,,,,,f,2.586,space,3.486,,,,,,,,0,7,7,5,1,,
59609bdb599b690001ef2c59,2023-06-16_21h30.06.079,phx_ver10,2022.2.5,Win32,59.95203837,,,,,,,,,,,,35,testing_3,zh2sh,au,zh2sh_au,zh2sh_1_auzhau.wav,zh2sh_8_aushau.wav,,FALSE,FALSE,,,,,,,,,,,,,,f,3.184,space,3.984,,,,,,,,0,8,8,34,1,,
59609bdb599b690001ef2c59,2023-06-16_21h30.06.079,phx_ver10,2022.2.5,Win32,59.95203837,,,,,,,,,,,,64,testing_3,zh2j,e,zh2j_e,zh2j_8_eje.wav,zh2j_1_ezhe.wav,,FALSE,FALSE,,,,,,,,,,,,,,f,1.403,space,2.418,,,,,,,,0,9,9,63,1,,
59609bdb599b690001ef2c59,2023-06-16_21h30.06.079,phx_ver10,2022.2.5,Win32,59.95203837,,,,,,,,,,,,58,testing_3,zh2j,au,zh2j_au,zh2j_8_aujau.wav,zh2j_8_aujau.wav,,TRUE,FALSE,,,,,,,,,,,,,,f,2.27,space,3.15,,,,,,,,0,10,10,57,1,,
59609bdb599b690001ef2c59,2023-06-16_21h30.06.079,phx_ver10,2022.2.5,Win32,59.95203837,,,,,,,,,,,,109,testing_3,sh2x,e,sh2x_e,sh2x_1_eshe.wav,sh2x_1_eshe.wav,,TRUE,FALSE,,,,,,,,,,,,,,j,2.085,space,2.75,,,,,,,,0,11,11,108,1,,
59609bdb599b690001ef2c59,2023-06-16_21h30.06.079,phx_ver10,2022.2.5,Win32,59.95203837,,,,,,,,,,,,106,testing_3,sh2x,au,sh2x_au,sh2x_8_auxau.wav,sh2x_8_auxau.wav,,TRUE,FALSE,,,,,,,,,,,,,,f,2.103,space,3.216,,,,,,,,0,12,12,105,1,,
59609bdb599b690001ef2c59,2023-06-16_21h30.06.079,phx_ver10,2022.2.5,Win32,59.95203837,,,,,,,,,,,,53,testing_3,zh2j,ai,zh2j_ai,zh2j_1_aizhai.wav,zh2j_1_aizhai.wav,,TRUE,FALSE,,,,,,,,,,,,,,j,2.369,space,3.135,,,,,,,,0,13,13,52,1,,
59609bdb599b690001ef2c59,2023-06-16_21h30.06.079,phx_ver10,2022.2.5,Win32,59.95203837,,,,,,,,,,,,93,testing_3,j2x,i,j2x_i,j2x_1_iji.wav,j2x_1_iji.wav,,TRUE,FALSE,,,,,,,,,,,,,,f,1.184,space,2.018,,,,,,,,0,14,14,92,1,,
59609bdb599b690001ef2c59,2023-06-16_21h30.06.079,phx_ver10,2022.2.5,Win32,59.95203837,,,,,,,,,,,,134,testing_3,sh2j,e,sh2j_e,sh2j_8_eje.wav,sh2j_8_eje.wav,,TRUE,FALSE,,,,,,,,,,,,,,f,0.65,space,1.35,,,,,,,,0,15,15,133,1,,
59609bdb599b690001ef2c59,2023-06-16_21h30.06.079,phx_ver10,2022.2.5,Win32,59.95203837,,,,,,,,,,,,73,testing_3,j2x,a,j2x_a,j2x_1_aja.wav,j2x_1_aja.wav,,TRUE,FALSE,,,,,,,,,,,,,,f,0.934,space,1.684,,,,,,,,0,16,16,72,1,,
59609bdb599b690001ef2c59,2023-06-16_21h30.06.079,phx_ver10,2022.2.5,Win32,59.95203837,,,,,,,,,,,,81,testing_3,j2x,au,j2x_au,j2x_1_aujau.wav,j2x_1_aujau.wav,,TRUE,FALSE,,,,,,,,,,,,,,j,1.868,space,2.335,,,,,,,,0,17,17,80,1,,
59609bdb599b690001ef2c59,2023-06-16_21h30.06.079,phx_ver10,2022.2.5,Win32,59.95203837,,,,,,,,,,,,21,testing_2,zh2x,ei,zh2x_ei,zh2x_1_eizhei.wav,zh2x_1_eizhei.wav,,TRUE,FALSE,,,,,,,,,,,,,,f,0.719,space,1.435,,,,,,,,0,18,18,20,1,,
59609bdb599b690001ef2c59,2023-06-16_21h30.06.079,phx_ver10,2022.2.5,Win32,59.95203837,,,,,,,,,,,,107,testing_3,sh2x,au,sh2x_au,sh2x_1_aushau.wav,sh2x_8_auxau.wav,,FALSE,FALSE,,,,,,,,,,,,,,f,1.235,space,2.084,,,,,,,,0,19,19,106,1,,
59609bdb599b690001ef2c59,2023-06-16_21h30.06.079,phx_ver10,2022.2.5,Win32,59.95203837,,,,,,,,,,,,116,testing_3,sh2x,ei,sh2x_ei,sh2x_8_eixei.wav,sh2x_1_eishei.wav,,FALSE,FALSE,,,,,,,,,,,,,,f,0.853,space,1.62,,,,,,,,0,20,20,115,1,,
59609bdb599b690001ef2c59,2023-06-16_21h30.06.079,phx_ver10,2022.2.5,Win32,59.95203837,,,,,,,,,,,,44,testing_3,zh2sh,ei,zh2sh_ei,zh2sh_8_eishei.wav,zh2sh_1_eizhei.wav,,FALSE,FALSE,,,,,,,,,,,,,,f,0.655,space,1.45,,,,,,,,0,21,21,43,1,,
59609bdb599b690001ef2c59,2023-06-16_21h30.06.079,phx_ver10,2022.2.5,Win32,59.95203837,,,,,,,,,,,,98,testing_3,sh2x,a,sh2x_a,sh2x_8_axa.wav,sh2x_8_axa.wav,,TRUE,FALSE,,,,,,,,,,,,,,f,1.403,space,2.05,,,,,,,,0,22,22,97,1,,
59609bdb599b690001ef2c59,2023-06-16_21h30.06.079,phx_ver10,2022.2.5,Win32,59.95203837,,,,,,,,,,,,47,testing_3,zh2sh,i,zh2sh_i,zh2sh_1_izhi.wav,zh2sh_8_ishi.wav,,FALSE,FALSE,,,,,,,,,,,,,,f,0.651,space,1.484,,,,,,,,0,23,23,46,1,,
59609bdb599b690001ef2c59,2023-06-16_21h30.06.079,phx_ver10,2022.2.5,Win32,59.95203837,,,,,,,,,,,,69,testing_3,zh2j,i,zh2j_i,zh2j_1_izhi.wav,zh2j_1_izhi.wav,,TRUE,FALSE,,,,,,,,,,,,,,j,1.935,space,2.484,,,,,,,,0,24,24,68,1,,
59609bdb599b690001ef2c59,2023-06-16_21h30.06.079,phx_ver10,2022.2.5,Win32,59.95203837,,,,,,,,,,,,49,testing_3,zh2j,a,zh2j_a,zh2j_1_azha.wav,zh2j_1_azha.wav,,TRUE,FALSE,,,,,,,,,,,,,,f,0.686,space,1.235,,,,,,,,0,25,25,48,1,,
59609bdb599b690001ef2c59,2023-06-16_21h30.06.079,phx_ver10,2022.2.5,Win32,59.95203837,,,,,,,,,,,,23,testing_2,zh2x,ei,zh2x_ei,zh2x_1_eizhei.wav,zh2x_8_eixei.wav,,FALSE,FALSE,,,,,,,,,,,,,,f,0.605,space,1.201,,,,,,,,0,26,26,22,1,,
59609bdb599b690001ef2c59,2023-06-16_21h30.06.079,phx_ver10,2022.2.5,Win32,59.95203837,,,,,,,,,,,,90,testing_3,j2x,ei,j2x_ei,j2x_8_eixei.wav,j2x_8_eixei.wav,,TRUE,FALSE,,,,,,,,,,,,,,f,0.6,space,1.233,,,,,,,,0,27,27,89,1,,
59609bdb599b690001ef2c59,2023-06-16_21h30.06.079,phx_ver10,2022.2.5,Win32,59.95203837,,,,,,,,,,,,41,testing_3,zh2sh,ei,zh2sh_ei,zh2sh_1_eizhei.wav,zh2sh_1_eizhei.wav,,TRUE,FALSE,,,,,,,,,,,,,,f,1.219,space,1.786,,,,,,,,0,28,28,40,1,,
59609bdb599b690001ef2c59,2023-06-16_21h30.06.079,phx_ver10,2022.2.5,Win32,59.95203837,,,,,,,,,,,,95,testing_3,j2x,i,j2x_i,j2x_1_iji.wav,j2x_8_ixi.wav,,FALSE,FALSE,,,,,,,,,,,,,,f,1.601,space,2.183,,,,,,,,0,29,29,94,1,,
59609bdb599b690001ef2c59,2023-06-16_21h30.06.079,phx_ver10,2022.2.5,Win32,59.95203837,,,,,,,,,,,,28,testing_3,zh2sh,a,zh2sh_a,zh2sh_8_asha.wav,zh2sh_1_azha.wav,,FALSE,FALSE,,,,,,,,,,,,,,f,0.868,space,2.233,,,,,,,,0,30,30,27,1,,
59609bdb599b690001ef2c59,2023-06-16_21h30.06.079,phx_ver10,2022.2.5,Win32,59.95203837,,,,,,,,,,,,118,testing_3,sh2x,i,sh2x_i,sh2x_8_ixi.wav,sh2x_8_ixi.wav,,TRUE,FALSE,,,,,,,,,,,,,,f,0.517,space,1.236,,,,,,,,0,31,31,117,1,,
59609bdb599b690001ef2c59,2023-06-16_21h30.06.079,phx_ver10,2022.2.5,Win32,59.95203837,,,,,,,,,,,,105,testing_3,sh2x,au,sh2x_au,sh2x_1_aushau.wav,sh2x_1_aushau.wav,,TRUE,FALSE,,,,,,,,,,,,,,j,1.601,space,2.272,,,,,,,,0,32,32,104,1,,
59609bdb599b690001ef2c59,2023-06-16_21h30.06.079,phx_ver10,2022.2.5,Win32,59.95203837,,,,,,,,,,,,83,testing_3,j2x,au,j2x_au,j2x_1_aujau.wav,j2x_8_auxau.wav,,FALSE,FALSE,,,,,,,,,,,,,,j,1.851,space,2.435,,,,,,,,0,33,33,82,1,,
59609bdb599b690001ef2c59,2023-06-16_21h30.06.079,phx_ver10,2022.2.5,Win32,59.95203837,,,,,,,,,,,,43,testing_3,zh2sh,ei,zh2sh_ei,zh2sh_1_eizhei.wav,zh2sh_8_eishei.wav,,FALSE,FALSE,,,,,,,,,,,,,,f,0.683,space,1.299,,,,,,,,0,34,34,42,1,,
59609bdb599b690001ef2c59,2023-06-16_21h30.06.079,phx_ver10,2022.2.5,Win32,59.95203837,,,,,,,,,,,,52,testing_3,zh2j,a,zh2j_a,zh2j_8_aja.wav,zh2j_1_azha.wav,,FALSE,FALSE,,,,,,,,,,,,,,j,1.484,space,2.001,,,,,,,,0,35,35,51,1,,
59609bdb599b690001ef2c59,2023-06-16_21h30.06.079,phx_ver10,2022.2.5,Win32,59.95203837,,,,,,,,,,,,48,testing_3,zh2sh,i,zh2sh_i,zh2sh_8_ishi.wav,zh2sh_1_izhi.wav,,FALSE,FALSE,,,,,,,,,,,,,,f,0.384,space,0.854,,,,,,,,0,36,36,47,1,,
59609bdb599b690001ef2c59,2023-06-16_21h30.06.079,phx_ver10,2022.2.5,Win32,59.95203837,,,,,,,,,,,,51,testing_3,zh2j,a,zh2j_a,zh2j_1_azha.wav,zh2j_8_aja.wav,,FALSE,FALSE,,,,,,,,,,,,,,f,0.818,space,1.301,,,,,,,,0,37,37,50,1,,
59609bdb599b690001ef2c59,2023-06-16_21h30.06.079,phx_ver10,2022.2.5,Win32,59.95203837,,,,,,,,,,,,117,testing_3,sh2x,i,sh2x_i,sh2x_1_ishi.wav,sh2x_1_ishi.wav,,TRUE,FALSE,,,,,,,,,,,,,,f,0.569,space,1.118,,,,,,,,0,38,38,116,1,,
59609bdb599b690001ef2c59,2023-06-16_21h30.06.079,phx_ver10,2022.2.5,Win32,59.95203837,,,,,,,,,,,,32,testing_3,zh2sh,ai,zh2sh_ai,zh2sh_8_aishai.wav,zh2sh_1_aizhai.wav,,FALSE,FALSE,,,,,,,,,,,,,,j,1.4,space,1.853,,,,,,,,0,39,39,31,1,,
59609bdb599b690001ef2c59,2023-06-16_21h30.06.079,phx_ver10,2022.2.5,Win32,59.95203837,,,,,,,,,,,,31,testing_3,zh2sh,ai,zh2sh_ai,zh2sh_1_aizhai.wav,zh2sh_8_aishai.wav,,FALSE,FALSE,,,,,,,,,,,,,,f,0.62,space,1.183,,,,,,,,0,40,40,30,1,,
59609bdb599b690001ef2c59,2023-06-16_21h30.06.079,phx_ver10,2022.2.5,Win32,59.95203837,,,,,,,,,,,,125,testing_3,sh2j,ai,sh2j_ai,sh2j_1_aishai.wav,sh2j_1_aishai.wav,,TRUE,FALSE,,,,,,,,,,,,,,f,0.919,space,1.534,,,,,,,,0,41,41,124,1,,
59609bdb599b690001ef2c59,2023-06-16_21h30.06.079,phx_ver10,2022.2.5,Win32,59.95203837,,,,,,,,,,,,60,testing_3,zh2j,au,zh2j_au,zh2j_8_aujau.wav,zh2j_1_auzhau.wav,,FALSE,FALSE,,,,,,,,,,,,,,f,0.702,space,1.252,,,,,,,,0,42,42,59,1,,
59609bdb599b690001ef2c59,2023-06-16_21h30.06.079,phx_ver10,2022.2.5,Win32,59.95203837,,,,,,,,,,,,10,testing_1,zh2x,i,zh2x_i,zh2x_8_ixi.wav,zh2x_8_ixi_copy.wav,,TRUE,TRUE,,,,,,,,,,,,,,f,0.718,space,1.285,,,,,,,,0,43,43,9,1,,
59609bdb599b690001ef2c59,2023-06-16_21h30.06.079,phx_ver10,2022.2.5,Win32,59.95203837,,,,,,,,,,,,97,testing_3,sh2x,a,sh2x_a,sh2x_1_asha.wav,sh2x_1_asha.wav,,TRUE,FALSE,,,,,,,,,,,,,,j,0.968,space,1.434,,,,,,,,0,44,44,96,1,,
59609bdb599b690001ef2c59,2023-06-16_21h30.06.079,phx_ver10,2022.2.5,Win32,59.95203837,,,,,,,,,,,,99,testing_3,sh2x,a,sh2x_a,sh2x_1_asha.wav,sh2x_8_axa.wav,,FALSE,FALSE,,,,,,,,,,,,,,j,0.918,space,1.369,,,,,,,,0,45,45,98,1,,
59609bdb599b690001ef2c59,2023-06-16_21h30.06.079,phx_ver10,2022.2.5,Win32,59.95203837,,,,,,,,,,,,108,testing_3,sh2x,au,sh2x_au,sh2x_8_auxau.wav,sh2x_1_aushau.wav,,FALSE,FALSE,,,,,,,,,,,,,,j,1.851,space,2.234,,,,,,,,0,46,46,107,1,,
59609bdb599b690001ef2c59,2023-06-16_21h30.06.079,phx_ver10,2022.2.5,Win32,59.95203837,,,,,,,,,,,,54,testing_3,zh2j,ai,zh2j_ai,zh2j_8_aijai.wav,zh2j_8_aijai.wav,,TRUE,FALSE,,,,,,,,,,,,,,j,1.901,space,2.317,,,,,,,,0,47,47,53,1,,
59609bdb599b690001ef2c59,2023-06-16_21h30.06.079,phx_ver10,2022.2.5,Win32,59.95203837,,,,,,,,,,,,119,testing_3,sh2x,i,sh2x_i,sh2x_1_ishi.wav,sh2x_8_ixi.wav,,FALSE,FALSE,,,,,,,,,,,,,,f,0.352,space,1.167,,,,,,,,0,48,48,118,1,,
59609bdb599b690001ef2c59,2023-06-16_21h30.06.079,phx_ver10,2022.2.5,Win32,59.95203837,,,,,,,,,,,,27,testing_3,zh2sh,a,zh2sh_a,zh2sh_1_azha.wav,zh2sh_8_asha.wav,,FALSE,FALSE,,,,,,,,,,,,,,f,0.484,space,0.934,,,,,,,,0,49,49,26,1,,
59609bdb599b690001ef2c59,2023-06-16_21h30.06.079,phx_ver10,2022.2.5,Win32,59.95203837,,,,,,,,,,,,138,testing_3,sh2j,ei,sh2j_ei,sh2j_8_eijei.wav,sh2j_8_eijei.wav,,TRUE,FALSE,,,,,,,,,,,,,,f,0.604,space,1.051,,,,,,,,0,50,50,137,1,,
59609bdb599b690001ef2c59,2023-06-16_21h30.06.079,phx_ver10,2022.2.5,Win32,59.95203837,,,,,,,,,,,,36,testing_3,zh2sh,au,zh2sh_au,zh2sh_8_aushau.wav,zh2sh_1_auzhau.wav,,FALSE,FALSE,,,,,,,,,,,,,,f,1.086,space,1.485,,,,,,,,0,51,51,35,1,,
59609bdb599b690001ef2c59,2023-06-16_21h30.06.079,phx_ver10,2022.2.5,Win32,59.95203837,,,,,,,,,,,,85,testing_3,j2x,e,j2x_e,j2x_1_eje.wav,j2x_1_eje.wav,,TRUE,FALSE,,,,,,,,,,,,,,f,0.606,space,1,,,,,,,,0,52,52,84,1,,
59609bdb599b690001ef2c59,2023-06-16_21h30.06.079,phx_ver10,2022.2.5,Win32,59.95203837,,,,,,,,,,,,82,testing_3,j2x,au,j2x_au,j2x_8_auxau.wav,j2x_8_auxau.wav,,TRUE,FALSE,,,,,,,,,,,,,,f,0.685,space,1.22,,,,,,,,0,53,53,81,1,,
59609bdb599b690001ef2c59,2023-06-16_21h30.06.079,phx_ver10,2022.2.5,Win32,59.95203837,,,,,,,,,,,,30,testing_3,zh2sh,ai,zh2sh_ai,zh2sh_8_aishai.wav,zh2sh_8_aishai.wav,,TRUE,FALSE,,,,,,,,,,,,,,j,2.7,space,3.751,,,,,,,,0,54,54,29,1,,
59609bdb599b690001ef2c59,2023-06-16_21h30.06.079,phx_ver10,2022.2.5,Win32,59.95203837,,,,,,,,,,,,84,testing_3,j2x,au,j2x_au,j2x_8_auxau.wav,j2x_1_aujau.wav,,FALSE,FALSE,,,,,,,,,,,,,,j,0.954,space,1.417,,,,,,,,0,55,55,83,1,,
59609bdb599b690001ef2c59,2023-06-16_21h30.06.079,phx_ver10,2022.2.5,Win32,59.95203837,,,,,,,,,,,,14,testing_2,zh2x,ai,zh2x_ai,zh2x_8_aixai.wav,zh2x_8_aixai.wav,,TRUE,FALSE,,,,,,,,,,,,,,j,1.002,space,1.801,,,,,,,,0,56,56,13,1,,
59609bdb599b690001ef2c59,2023-06-16_21h30.06.079,phx_ver10,2022.2.5,Win32,59.95203837,,,,,,,,,,,,71,testing_3,zh2j,i,zh2j_i,zh2j_1_izhi.wav,zh2j_8_iji.wav,,FALSE,FALSE,,,,,,,,,,,,,,f,1.403,space,2.82,,,,,,,,0,57,57,70,1,,
59609bdb599b690001ef2c59,2023-06-16_21h30.06.079,phx_ver10,2022.2.5,Win32,59.95203837,,,,,,,,,,,,74,testing_3,j2x,a,j2x_a,j2x_8_axa.wav,j2x_8_axa.wav,,TRUE,FALSE,,,,,,,,,,,,,,f,0.817,space,1.218,,,,,,,,0,58,58,73,1,,
59609bdb599b690001ef2c59,2023-06-16_21h30.06.079,phx_ver10,2022.2.5,Win32,59.95203837,,,,,,,,,,,,22,testing_2,zh2x,ei,zh2x_ei,zh2x_8_eixei.wav,zh2x_8_eixei.wav,,TRUE,FALSE,,,,,,,,,,,,,,j,1.352,space,1.886,,,,,,,,0,59,59,21,1,,
59609bdb599b690001ef2c59,2023-06-16_21h30.06.079,phx_ver10,2022.2.5,Win32,59.95203837,,,,,,,,,,,,136,testing_3,sh2j,e,sh2j_e,sh2j_8_eje.wav,sh2j_1_eshe.wav,,FALSE,FALSE,,,,,,,,,,,,,,f,0.918,space,3.602,,,,,,,,0,60,60,135,1,,
59609bdb599b690001ef2c59,2023-06-16_21h30.06.079,phx_ver10,2022.2.5,Win32,59.95203837,,,,,,,,,,,,132,testing_3,sh2j,au,sh2j_au,sh2j_8_aujau.wav,sh2j_1_aushau.wav,,FALSE,FALSE,,,,,,,,,,,,,,f,1.268,space,1.717,,,,,,,,0,61,61,131,1,,
59609bdb599b690001ef2c59,2023-06-16_21h30.06.079,phx_ver10,2022.2.5,Win32,59.95203837,,,,,,,,,,,,110,testing_3,sh2x,e,sh2x_e,sh2x_8_exe.wav,sh2x_8_exe.wav,,TRUE,FALSE,,,,,,,,,,,,,,f,0.404,space,0.952,,,,,,,,0,62,62,109,1,,
59609bdb599b690001ef2c59,2023-06-16_21h30.06.079,phx_ver10,2022.2.5,Win32,59.95203837,,,,,,,,,,,,113,testing_3,sh2x,ei,sh2x_ei,sh2x_1_eishei.wav,sh2x_1_eishei.wav,,TRUE,FALSE,,,,,,,,,,,,,,j,0.768,space,1.252,,,,,,,,0,63,63,112,1,,
59609bdb599b690001ef2c59,2023-06-16_21h30.06.079,phx_ver10,2022.2.5,Win32,59.95203837,,,,,,,,,,,,115,testing_3,sh2x,ei,sh2x_ei,sh2x_1_eishei.wav,sh2x_8_eixei.wav,,FALSE,FALSE,,,,,,,,,,,,,,j,0.569,space,1.054,,,,,,,,0,64,64,114,1,,
59609bdb599b690001ef2c59,2023-06-16_21h30.06.079,phx_ver10,2022.2.5,Win32,59.95203837,,,,,,,,,,,,18,testing_2,zh2x,au,zh2x_au,zh2x_8_auxau.wav,zh2x_8_auxau.wav,,TRUE,FALSE,,,,,,,,,,,,,,f,1.205,space,1.7,,,,,,,,0,65,65,17,1,,
59609bdb599b690001ef2c59,2023-06-16_21h30.06.079,phx_ver10,2022.2.5,Win32,59.95203837,,,,,,,,,,,,126,testing_3,sh2j,ai,sh2j_ai,sh2j_8_aijai.wav,sh2j_8_aijai.wav,,TRUE,FALSE,,,,,,,,,,,,,,j,0.652,space,1.134,,,,,,,,0,66,66,125,1,,
59609bdb599b690001ef2c59,2023-06-16_21h30.06.079,phx_ver10,2022.2.5,Win32,59.95203837,,,,,,,,,,,,79,testing_3,j2x,ai,j2x_ai,j2x_1_aijai.wav,j2x_8_aixai.wav,,FALSE,FALSE,,,,,,,,,,,,,,j,0.654,space,1.152,,,,,,,,0,67,67,78,1,,
59609bdb599b690001ef2c59,2023-06-16_21h30.06.079,phx_ver10,2022.2.5,Win32,59.95203837,,,,,,,,,,,,65,testing_3,zh2j,ei,zh2j_ei,zh2j_1_eizhei.wav,zh2j_1_eizhei.wav,,TRUE,FALSE,,,,,,,,,,,,,,f,0.351,space,0.903,,,,,,,,0,68,68,64,1,,
59609bdb599b690001ef2c59,2023-06-16_21h30.06.079,phx_ver10,2022.2.5,Win32,59.95203837,,,,,,,,,,,,94,testing_3,j2x,i,j2x_i,j2x_8_ixi.wav,j2x_8_ixi.wav,,TRUE,FALSE,,,,,,,,,,,,,,f,0.401,space,0.868,,,,,,,,0,69,69,93,1,,
59609bdb599b690001ef2c59,2023-06-16_21h30.06.079,phx_ver10,2022.2.5,Win32,59.95203837,,,,,,,,,,,,122,testing_3,sh2j,a,sh2j_a,sh2j_8_aja.wav,sh2j_8_aja.wav,,TRUE,FALSE,,,,,,,,,,,,,,j,0.551,space,1.05,,,,,,,,0,70,70,121,1,,
59609bdb599b690001ef2c59,2023-06-16_21h30.06.079,phx_ver10,2022.2.5,Win32,59.95203837,,,,,,,,,,,,46,testing_3,zh2sh,i,zh2sh_i,zh2sh_8_ishi.wav,zh2sh_8_ishi.wav,,TRUE,FALSE,,,,,,,,,,,,,,f,0.254,space,0.7,,,,,,,,0,71,71,45,1,,
59609bdb599b690001ef2c59,2023-06-16_21h30.06.079,phx_ver10,2022.2.5,Win32,59.95203837,,,,,,,,,,,,77,testing_3,j2x,ai,j2x_ai,j2x_1_aijai.wav,j2x_1_aijai.wav,,TRUE,FALSE,,,,,,,,,,,,,,f,0.886,space,1.267,,,,,,,,0,72,72,76,1,,
59609bdb599b690001ef2c59,2023-06-16_21h30.06.079,phx_ver10,2022.2.5,Win32,59.95203837,,,,,,,,,,,,39,testing_3,zh2sh,e,zh2sh_e,zh2sh_1_ezhe.wav,zh2sh_8_eshe.wav,,FALSE,FALSE,,,,,,,,,,,,,,f,0.602,space,1.118,,,,,,,,0,73,73,38,1,,
59609bdb599b690001ef2c59,2023-06-16_21h30.06.079,phx_ver10,2022.2.5,Win32,59.95203837,,,,,,,,,,,,40,testing_3,zh2sh,e,zh2sh_e,zh2sh_8_eshe.wav,zh2sh_1_ezhe.wav,,FALSE,FALSE,,,,,,,,,,,,,,j,0.601,space,0.984,,,,,,,,0,74,74,39,1,,
59609bdb599b690001ef2c59,2023-06-16_21h30.06.079,phx_ver10,2022.2.5,Win32,59.95203837,,,,,,,,,,,,37,testing_3,zh2sh,e,zh2sh_e,zh2sh_1_ezhe.wav,zh2sh_1_ezhe.wav,,TRUE,FALSE,,,,,,,,,,,,,,f,0.369,space,0.834,,,,,,,,0,75,75,36,1,,
59609bdb599b690001ef2c59,2023-06-16_21h30.06.079,phx_ver10,2022.2.5,Win32,59.95203837,,,,,,,,,,,,34,testing_3,zh2sh,au,zh2sh_au,zh2sh_8_aushau.wav,zh2sh_8_aushau.wav,,TRUE,FALSE,,,,,,,,,,,,,,f,0.569,space,0.967,,,,,,,,0,76,76,33,1,,
59609bdb599b690001ef2c59,2023-06-16_21h30.06.079,phx_ver10,2022.2.5,Win32,59.95203837,,,,,,,,,,,,55,testing_3,zh2j,ai,zh2j_ai,zh2j_1_aizhai.wav,zh2j_8_aijai.wav,,FALSE,FALSE,,,,,,,,,,,,,,f,0.586,space,1.05,,,,,,,,0,77,77,54,1,,
59609bdb599b690001ef2c59,2023-06-16_21h30.06.079,phx_ver10,2022.2.5,Win32,59.95203837,,,,,,,,,,,,123,testing_3,sh2j,a,sh2j_a,sh2j_1_asha.wav,sh2j_8_aja.wav,,FALSE,FALSE,,,,,,,,,,,,,,j,0.736,space,1.136,,,,,,,,0,78,78,122,1,,
59609bdb599b690001ef2c59,2023-06-16_21h30.06.079,phx_ver10,2022.2.5,Win32,59.95203837,,,,,,,,,,,,50,testing_3,zh2j,a,zh2j_a,zh2j_8_aja.wav,zh2j_8_aja.wav,,TRUE,FALSE,,,,,,,,,,,,,,f,0.418,space,0.821,,,,,,,,0,79,79,49,1,,
59609bdb599b690001ef2c59,2023-06-16_21h30.06.079,phx_ver10,2022.2.5,Win32,59.95203837,,,,,,,,,,,,57,testing_3,zh2j,au,zh2j_au,zh2j_1_auzhau.wav,zh2j_1_auzhau.wav,,TRUE,FALSE,,,,,,,,,,,,,,f,0.421,space,0.817,,,,,,,,0,80,80,56,1,,
59609bdb599b690001ef2c59,2023-06-16_21h30.06.079,phx_ver10,2022.2.5,Win32,59.95203837,,,,,,,,,,,,19,testing_2,zh2x,au,zh2x_au,zh2x_1_auzhau.wav,zh2x_8_auxau.wav,,FALSE,FALSE,,,,,,,,,,,,,,f,0.485,space,0.889,,,,,,,,0,81,81,18,1,,
59609bdb599b690001ef2c59,2023-06-16_21h30.06.079,phx_ver10,2022.2.5,Win32,59.95203837,,,,,,,,,,,,67,testing_3,zh2j,ei,zh2j_ei,zh2j_1_eizhei.wav,zh2j_8_eijei.wav,,FALSE,FALSE,,,,,,,,,,,,,,f,0.585,space,0.988,,,,,,,,0,82,82,66,1,,
59609bdb599b690001ef2c59,2023-06-16_21h30.06.079,phx_ver10,2022.2.5,Win32,59.95203837,,,,,,,,,,,,12,testing_1,zh2x,i,zh2x_i,zh2x_8_ixi.wav,zh2x_1_izhi.wav,,FALSE,TRUE,,,,,,,,,,,,,,f,0.318,space,0.784,,,,,,,,0,83,83,11,1,,
59609bdb599b690001ef2c59,2023-06-16_21h30.06.079,phx_ver10,2022.2.5,Win32,59.95203837,,,,,,,,,,,,78,testing_3,j2x,ai,j2x_ai,j2x_8_aixai.wav,j2x_8_aixai.wav,,TRUE,FALSE,,,,,,,,,,,,,,f,0.434,space,0.906,,,,,,,,0,84,84,77,1,,
59609bdb599b690001ef2c59,2023-06-16_21h30.06.079,phx_ver10,2022.2.5,Win32,59.95203837,,,,,,,,,,,,33,testing_3,zh2sh,au,zh2sh_au,zh2sh_1_auzhau.wav,zh2sh_1_auzhau.wav,,TRUE,FALSE,,,,,,,,,,,,,,f,0.467,space,0.868,,,,,,,,0,85,85,32,1,,
59609bdb599b690001ef2c59,2023-06-16_21h30.06.079,phx_ver10,2022.2.5,Win32,59.95203837,,,,,,,,,,,,62,testing_3,zh2j,e,zh2j_e,zh2j_8_eje.wav,zh2j_8_eje.wav,,TRUE,FALSE,,,,,,,,,,,,,,f,0.5,space,0.969,,,,,,,,0,86,86,61,1,,
59609bdb599b690001ef2c59,2023-06-16_21h30.06.079,phx_ver10,2022.2.5,Win32,59.95203837,,,,,,,,,,,,88,testing_3,j2x,e,j2x_e,j2x_8_exe.wav,j2x_1_eje.wav,,FALSE,FALSE,,,,,,,,,,,,,,f,0.5,space,0.918,,,,,,,,0,87,87,87,1,,
59609bdb599b690001ef2c59,2023-06-16_21h30.06.079,phx_ver10,2022.2.5,Win32,59.95203837,,,,,,,,,,,,128,testing_3,sh2j,ai,sh2j_ai,sh2j_8_aijai.wav,sh2j_1_aishai.wav,,FALSE,FALSE,,,,,,,,,,,,,,f,0.535,space,0.951,,,,,,,,0,88,88,127,1,,
59609bdb599b690001ef2c59,2023-06-16_21h30.06.079,phx_ver10,2022.2.5,Win32,59.95203837,,,,,,,,,,,,24,testing_2,zh2x,ei,zh2x_ei,zh2x_8_eixei.wav,zh2x_1_eizhei.wav,,FALSE,FALSE,,,,,,,,,,,,,,f,0.434,space,0.834,,,,,,,,0,89,89,23,1,,
59609bdb599b690001ef2c59,2023-06-16_21h30.06.079,phx_ver10,2022.2.5,Win32,59.95203837,,,,,,,,,,,,3,testing_1,zh2x,a,zh2x_a,zh2x_1_azha.wav,zh2x_8_axa.wav,,FALSE,TRUE,,,,,,,,,,,,,,f,0.434,space,0.817,,,,,,,,0,90,90,2,1,,
59609bdb599b690001ef2c59,2023-06-16_21h30.06.079,phx_ver10,2022.2.5,Win32,59.95203837,,,,,,,,,,,,76,testing_3,j2x,a,j2x_a,j2x_8_axa.wav,j2x_1_aja.wav,,FALSE,FALSE,,,,,,,,,,,,,,f,0.386,space,0.785,,,,,,,,0,91,91,75,1,,
59609bdb599b690001ef2c59,2023-06-16_21h30.06.079,phx_ver10,2022.2.5,Win32,59.95203837,,,,,,,,,,,,111,testing_3,sh2x,e,sh2x_e,sh2x_1_eshe.wav,sh2x_8_exe.wav,,FALSE,FALSE,,,,,,,,,,,,,,f,0.521,space,0.884,,,,,,,,0,92,92,110,1,,
59609bdb599b690001ef2c59,2023-06-16_21h30.06.079,phx_ver10,2022.2.5,Win32,59.95203837,,,,,,,,,,,,42,testing_3,zh2sh,ei,zh2sh_ei,zh2sh_8_eishei.wav,zh2sh_8_eishei.wav,,TRUE,FALSE,,,,,,,,,,,,,,f,0.852,space,1.668,,,,,,,,0,93,93,41,1,,
59609bdb599b690001ef2c59,2023-06-16_21h30.06.079,phx_ver10,2022.2.5,Win32,59.95203837,,,,,,,,,,,,103,testing_3,sh2x,ai,sh2x_ai,sh2x_1_aishai.wav,sh2x_8_aixai.wav,,FALSE,FALSE,,,,,,,,,,,,,,j,1.201,space,1.635,,,,,,,,0,94,94,102,1,,
59609bdb599b690001ef2c59,2023-06-16_21h30.06.079,phx_ver10,2022.2.5,Win32,59.95203837,,,,,,,,,,,,127,testing_3,sh2j,ai,sh2j_ai,sh2j_1_aishai.wav,sh2j_8_aijai.wav,,FALSE,FALSE,,,,,,,,,,,,,,f,0.783,space,1.251,,,,,,,,0,95,95,126,1,,
59609bdb599b690001ef2c59,2023-06-16_21h30.06.079,phx_ver10,2022.2.5,Win32,59.95203837,,,,,,,,,,,,86,testing_3,j2x,e,j2x_e,j2x_8_exe.wav,j2x_8_exe.wav,,TRUE,FALSE,,,,,,,,,,,,,,f,0.335,space,0.869,,,,,,,,0,96,96,85,1,,
59609bdb599b690001ef2c59,2023-06-16_21h30.06.079,phx_ver10,2022.2.5,Win32,59.95203837,,,,,,,,,,,,20,testing_2,zh2x,au,zh2x_au,zh2x_8_auxau.wav,zh2x_1_auzhau.wav,,FALSE,FALSE,,,,,,,,,,,,,,j,0.653,space,1.036,,,,,,,,0,97,97,19,1,,
59609bdb599b690001ef2c59,2023-06-16_21h30.06.079,phx_ver10,2022.2.5,Win32,59.95203837,,,,,,,,,,,,139,testing_3,sh2j,ei,sh2j_ei,sh2j_1_eishei.wav,sh2j_8_eijei.wav,,FALSE,FALSE,,,,,,,,,,,,,,f,0.286,space,0.751,,,,,,,,0,98,98,138,1,,
59609bdb599b690001ef2c59,2023-06-16_21h30.06.079,phx_ver10,2022.2.5,Win32,59.95203837,,,,,,,,,,,,92,testing_3,j2x,ei,j2x_ei,j2x_8_eixei.wav,j2x_1_eijei.wav,,FALSE,FALSE,,,,,,,,,,,,,,f,0.302,space,0.739,,,,,,,,0,99,99,91,1,,
59609bdb599b690001ef2c59,2023-06-16_21h30.06.079,phx_ver10,2022.2.5,Win32,59.95203837,,,,,,,,,,,,112,testing_3,sh2x,e,sh2x_e,sh2x_8_exe.wav,sh2x_1_eshe.wav,,FALSE,FALSE,,,,,,,,,,,,,,f,0.633,space,1.017,,,,,,,,0,100,100,111,1,,
59609bdb599b690001ef2c59,2023-06-16_21h30.06.079,phx_ver10,2022.2.5,Win32,59.95203837,,,,,,,,,,,,135,testing_3,sh2j,e,sh2j_e,sh2j_1_eshe.wav,sh2j_8_eje.wav,,FALSE,FALSE,,,,,,,,,,,,,,f,0.567,space,0.934,,,,,,,,0,101,101,134,1,,
59609bdb599b690001ef2c59,2023-06-16_21h30.06.079,phx_ver10,2022.2.5,Win32,59.95203837,,,,,,,,,,,,141,testing_3,sh2j,i,sh2j_i,sh2j_1_ishi.wav,sh2j_1_ishi.wav,,TRUE,FALSE,,,,,,,,,,,,,,f,0.601,space,1.034,,,,,,,,0,102,102,140,1,,
59609bdb599b690001ef2c59,2023-06-16_21h30.06.079,phx_ver10,2022.2.5,Win32,59.95203837,,,,,,,,,,,,7,testing_1,zh2x,e,zh2x_e,zh2x_1_ezhe.wav,zh2x_8_exe.wav,,FALSE,TRUE,,,,,,,,,,,,,,j,0.784,space,1.086,,,,,,,,0,103,103,6,1,,
59609bdb599b690001ef2c59,2023-06-16_21h30.06.079,phx_ver10,2022.2.5,Win32,59.95203837,,,,,,,,,,,,17,testing_2,zh2x,au,zh2x_au,zh2x_1_auzhau.wav,zh2x_1_auzhau.wav,,TRUE,FALSE,,,,,,,,,,,,,,f,0.519,space,0.92,,,,,,,,0,104,104,16,1,,
59609bdb599b690001ef2c59,2023-06-16_21h30.06.079,phx_ver10,2022.2.5,Win32,59.95203837,,,,,,,,,,,,29,testing_3,zh2sh,ai,zh2sh_ai,zh2sh_1_aizhai.wav,zh2sh_1_aizhai.wav,,TRUE,FALSE,,,,,,,,,,,,,,f,0.422,space,0.835,,,,,,,,0,105,105,28,1,,
59609bdb599b690001ef2c59,2023-06-16_21h30.06.079,phx_ver10,2022.2.5,Win32,59.95203837,,,,,,,,,,,,66,testing_3,zh2j,ei,zh2j_ei,zh2j_8_eijei.wav,zh2j_8_eijei.wav,,TRUE,FALSE,,,,,,,,,,,,,,f,0.385,space,0.785,,,,,,,,0,106,106,65,1,,
59609bdb599b690001ef2c59,2023-06-16_21h30.06.079,phx_ver10,2022.2.5,Win32,59.95203837,,,,,,,,,,,,120,testing_3,sh2x,i,sh2x_i,sh2x_8_ixi.wav,sh2x_1_ishi.wav,,FALSE,FALSE,,,,,,,,,,,,,,f,0.402,space,0.834,,,,,,,,0,107,107,119,1,,
59609bdb599b690001ef2c59,2023-06-16_21h30.06.079,phx_ver10,2022.2.5,Win32,59.95203837,,,,,,,,,,,,124,testing_3,sh2j,a,sh2j_a,sh2j_8_aja.wav,sh2j_1_asha.wav,,FALSE,FALSE,,,,,,,,,,,,,,f,2.601,space,3.201,,,,,,,,0,108,108,123,1,,
59609bdb599b690001ef2c59,2023-06-16_21h30.06.079,phx_ver10,2022.2.5,Win32,59.95203837,,,,,,,,,,,,114,testing_3,sh2x,ei,sh2x_ei,sh2x_8_eixei.wav,sh2x_8_eixei.wav,,TRUE,FALSE,,,,,,,,,,,,,,f,0.652,space,1.02,,,,,,,,0,109,109,113,1,,
59609bdb599b690001ef2c59,2023-06-16_21h30.06.079,phx_ver10,2022.2.5,Win32,59.95203837,,,,,,,,,,,,45,testing_3,zh2sh,i,zh2sh_i,zh2sh_1_izhi.wav,zh2sh_1_izhi.wav,,TRUE,FALSE,,,,,,,,,,,,,,f,0.418,space,0.752,,,,,,,,0,110,110,44,1,,
59609bdb599b690001ef2c59,2023-06-16_21h30.06.079,phx_ver10,2022.2.5,Win32,59.95203837,,,,,,,,,,,,80,testing_3,j2x,ai,j2x_ai,j2x_8_aixai.wav,j2x_1_aijai.wav,,FALSE,FALSE,,,,,,,,,,,,,,j,0.821,space,1.871,,,,,,,,0,111,111,79,1,,
59609bdb599b690001ef2c59,2023-06-16_21h30.06.079,phx_ver10,2022.2.5,Win32,59.95203837,,,,,,,,,,,,1,testing_1,zh2x,a,zh2x_a,zh2x_1_azha.wav,zh2x_1_azha_copy.wav,,TRUE,TRUE,,,,,,,,,,,,,,j,0.551,space,1.001,,,,,,,,0,112,112,0,1,,
59609bdb599b690001ef2c59,2023-06-16_21h30.06.079,phx_ver10,2022.2.5,Win32,59.95203837,,,,,,,,,,,,4,testing_1,zh2x,a,zh2x_a,zh2x_8_axa.wav,zh2x_1_azha.wav,,FALSE,TRUE,,,,,,,,,,,,,,j,0.604,space,1.001,,,,,,,,0,113,113,3,1,,
59609bdb599b690001ef2c59,2023-06-16_21h30.06.079,phx_ver10,2022.2.5,Win32,59.95203837,,,,,,,,,,,,142,testing_3,sh2j,i,sh2j_i,sh2j_8_iji.wav,sh2j_8_iji.wav,,TRUE,FALSE,,,,,,,,,,,,,,f,0.551,space,0.969,,,,,,,,0,114,114,141,1,,
59609bdb599b690001ef2c59,2023-06-16_21h30.06.079,phx_ver10,2022.2.5,Win32,59.95203837,,,,,,,,,,,,121,testing_3,sh2j,a,sh2j_a,sh2j_1_asha.wav,sh2j_1_asha.wav,,TRUE,FALSE,,,,,,,,,,,,,,f,0.586,space,0.936,,,,,,,,0,115,115,120,1,,
59609bdb599b690001ef2c59,2023-06-16_21h30.06.079,phx_ver10,2022.2.5,Win32,59.95203837,,,,,,,,,,,,38,testing_3,zh2sh,e,zh2sh_e,zh2sh_8_eshe.wav,zh2sh_8_eshe.wav,,TRUE,FALSE,,,,,,,,,,,,,,f,0.668,space,1.468,,,,,,,,0,116,116,37,1,,
59609bdb599b690001ef2c59,2023-06-16_21h30.06.079,phx_ver10,2022.2.5,Win32,59.95203837,,,,,,,,,,,,144,testing_3,sh2j,i,sh2j_i,sh2j_8_iji.wav,sh2j_1_ishi.wav,,FALSE,FALSE,,,,,,,,,,,,,,f,1.138,space,1.502,,,,,,,,0,117,117,143,1,,
59609bdb599b690001ef2c59,2023-06-16_21h30.06.079,phx_ver10,2022.2.5,Win32,59.95203837,,,,,,,,,,,,5,testing_1,zh2x,e,zh2x_e,zh2x_1_ezhe.wav,zh2x_1_ezhe_copy.wav,,TRUE,TRUE,,,,,,,,,,,,,,f,0.485,space,0.837,,,,,,,,0,118,118,4,1,,
59609bdb599b690001ef2c59,2023-06-16_21h30.06.079,phx_ver10,2022.2.5,Win32,59.95203837,,,,,,,,,,,,133,testing_3,sh2j,e,sh2j_e,sh2j_1_eshe.wav,sh2j_1_eshe.wav,,TRUE,FALSE,,,,,,,,,,,,,,f,0.485,space,0.884,,,,,,,,0,119,119,132,1,,
59609bdb599b690001ef2c59,2023-06-16_21h30.06.079,phx_ver10,2022.2.5,Win32,59.95203837,,,,,,,,,,,,59,testing_3,zh2j,au,zh2j_au,zh2j_1_auzhau.wav,zh2j_8_aujau.wav,,FALSE,FALSE,,,,,,,,,,,,,,f,0.538,space,1.287,,,,,,,,0,120,120,58,1,,
59609bdb599b690001ef2c59,2023-06-16_21h30.06.079,phx_ver10,2022.2.5,Win32,59.95203837,,,,,,,,,,,,137,testing_3,sh2j,ei,sh2j_ei,sh2j_1_eishei.wav,sh2j_1_eishei.wav,,TRUE,FALSE,,,,,,,,,,,,,,j,0.668,space,1.05,,,,,,,,0,121,121,136,1,,
59609bdb599b690001ef2c59,2023-06-16_21h30.06.079,phx_ver10,2022.2.5,Win32,59.95203837,,,,,,,,,,,,100,testing_3,sh2x,a,sh2x_a,sh2x_8_axa.wav,sh2x_1_asha.wav,,FALSE,FALSE,,,,,,,,,,,,,,f,0.552,space,1.016,,,,,,,,0,122,122,99,1,,
59609bdb599b690001ef2c59,2023-06-16_21h30.06.079,phx_ver10,2022.2.5,Win32,59.95203837,,,,,,,,,,,,130,testing_3,sh2j,au,sh2j_au,sh2j_8_aujau.wav,sh2j_8_aujau.wav,,TRUE,FALSE,,,,,,,,,,,,,,f,0.653,space,1.101,,,,,,,,0,123,123,129,1,,
59609bdb599b690001ef2c59,2023-06-16_21h30.06.079,phx_ver10,2022.2.5,Win32,59.95203837,,,,,,,,,,,,131,testing_3,sh2j,au,sh2j_au,sh2j_1_aushau.wav,sh2j_8_aujau.wav,,FALSE,FALSE,,,,,,,,,,,,,,f,0.719,space,1.035,,,,,,,,0,124,124,130,1,,
59609bdb599b690001ef2c59,2023-06-16_21h30.06.079,phx_ver10,2022.2.5,Win32,59.95203837,,,,,,,,,,,,68,testing_3,zh2j,ei,zh2j_ei,zh2j_8_eijei.wav,zh2j_1_eizhei.wav,,FALSE,FALSE,,,,,,,,,,,,,,f,0.534,space,0.883,,,,,,,,0,125,125,67,1,,
59609bdb599b690001ef2c59,2023-06-16_21h30.06.079,phx_ver10,2022.2.5,Win32,59.95203837,,,,,,,,,,,,91,testing_3,j2x,ei,j2x_ei,j2x_1_eijei.wav,j2x_8_eixei.wav,,FALSE,FALSE,,,,,,,,,,,,,,f,0.652,space,1.017,,,,,,,,0,126,126,90,1,,
59609bdb599b690001ef2c59,2023-06-16_21h30.06.079,phx_ver10,2022.2.5,Win32,59.95203837,,,,,,,,,,,,13,testing_2,zh2x,ai,zh2x_ai,zh2x_1_aizhai.wav,zh2x_1_aizhai.wav,,TRUE,FALSE,,,,,,,,,,,,,,j,0.738,space,1.234,,,,,,,,0,127,127,12,1,,
59609bdb599b690001ef2c59,2023-06-16_21h30.06.079,phx_ver10,2022.2.5,Win32,59.95203837,,,,,,,,,,,,87,testing_3,j2x,e,j2x_e,j2x_1_eje.wav,j2x_8_exe.wav,,FALSE,FALSE,,,,,,,,,,,,,,j,0.736,space,1.085,,,,,,,,0,128,128,86,1,,
59609bdb599b690001ef2c59,2023-06-16_21h30.06.079,phx_ver10,2022.2.5,Win32,59.95203837,,,,,,,,,,,,2,testing_1,zh2x,a,zh2x_a,zh2x_8_axa.wav,zh2x_8_axa_copy.wav,,TRUE,TRUE,,,,,,,,,,,,,,f,0.432,space,0.818,,,,,,,,0,129,129,1,1,,
59609bdb599b690001ef2c59,2023-06-16_21h30.06.079,phx_ver10,2022.2.5,Win32,59.95203837,,,,,,,,,,,,72,testing_3,zh2j,i,zh2j_i,zh2j_8_iji.wav,zh2j_1_izhi.wav,,FALSE,FALSE,,,,,,,,,,,,,,f,0.633,space,0.987,,,,,,,,0,130,130,71,1,,
59609bdb599b690001ef2c59,2023-06-16_21h30.06.079,phx_ver10,2022.2.5,Win32,59.95203837,,,,,,,,,,,,61,testing_3,zh2j,e,zh2j_e,zh2j_1_ezhe.wav,zh2j_1_ezhe.wav,,TRUE,FALSE,,,,,,,,,,,,,,f,0.503,space,0.868,,,,,,,,0,131,131,60,1,,
59609bdb599b690001ef2c59,2023-06-16_21h30.06.079,phx_ver10,2022.2.5,Win32,59.95203837,,,,,,,,,,,,102,testing_3,sh2x,ai,sh2x_ai,sh2x_8_aixai.wav,sh2x_8_aixai.wav,,TRUE,FALSE,,,,,,,,,,,,,,f,0.784,space,1.152,,,,,,,,0,132,132,101,1,,
59609bdb599b690001ef2c59,2023-06-16_21h30.06.079,phx_ver10,2022.2.5,Win32,59.95203837,,,,,,,,,,,,16,testing_2,zh2x,ai,zh2x_ai,zh2x_8_aixai.wav,zh2x_1_aizhai.wav,,FALSE,FALSE,,,,,,,,,,,,,,f,0.567,space,0.968,,,,,,,,0,133,133,15,1,,
59609bdb599b690001ef2c59,2023-06-16_21h30.06.079,phx_ver10,2022.2.5,Win32,59.95203837,,,,,,,,,,,,26,testing_3,zh2sh,a,zh2sh_a,zh2sh_8_asha.wav,zh2sh_8_asha.wav,,TRUE,FALSE,,,,,,,,,,,,,,f,0.751,space,1.118,,,,,,,,0,134,134,25,1,,
59609bdb599b690001ef2c59,2023-06-16_21h30.06.079,phx_ver10,2022.2.5,Win32,59.95203837,,,,,,,,,,,,70,testing_3,zh2j,i,zh2j_i,zh2j_8_iji.wav,zh2j_8_iji.wav,,TRUE,FALSE,,,,,,,,,,,,,,f,0.318,space,0.721,,,,,,,,0,135,135,69,1,,
59609bdb599b690001ef2c59,2023-06-16_21h30.06.079,phx_ver10,2022.2.5,Win32,59.95203837,,,,,,,,,,,,143,testing_3,sh2j,i,sh2j_i,sh2j_1_ishi.wav,sh2j_8_iji.wav,,FALSE,FALSE,,,,,,,,,,,,,,f,0.434,space,0.785,,,,,,,,0,136,136,142,1,,
59609bdb599b690001ef2c59,2023-06-16_21h30.06.079,phx_ver10,2022.2.5,Win32,59.95203837,,,,,,,,,,,,96,testing_3,j2x,i,j2x_i,j2x_8_ixi.wav,j2x_1_iji.wav,,FALSE,FALSE,,,,,,,,,,,,,,f,0.268,space,0.684,,,,,,,,0,137,137,95,1,,
59609bdb599b690001ef2c59,2023-06-16_21h30.06.079,phx_ver10,2022.2.5,Win32,59.95203837,,,,,,,,,,,,15,testing_2,zh2x,ai,zh2x_ai,zh2x_1_aizhai.wav,zh2x_8_aixai.wav,,FALSE,FALSE,,,,,,,,,,,,,,f,0.484,space,0.901,,,,,,,,0,138,138,14,1,,
59609bdb599b690001ef2c59,2023-06-16_21h30.06.079,phx_ver10,2022.2.5,Win32,59.95203837,,,,,,,,,,,,56,testing_3,zh2j,ai,zh2j_ai,zh2j_8_aijai.wav,zh2j_1_aizhai.wav,,FALSE,FALSE,,,,,,,,,,,,,,f,0.401,space,0.87,,,,,,,,0,139,139,55,1,,
59609bdb599b690001ef2c59,2023-06-16_21h30.06.079,phx_ver10,2022.2.5,Win32,59.95203837,,,,,,,,,,,,9,testing_1,zh2x,i,zh2x_i,zh2x_1_izhi.wav,zh2x_1_izhi_copy.wav,,TRUE,TRUE,,,,,,,,,,,,,,f,0.273,space,0.668,,,,,,,,0,140,140,8,1,,
59609bdb599b690001ef2c59,2023-06-16_21h30.06.079,phx_ver10,2022.2.5,Win32,59.95203837,,,,,,,,,,,,75,testing_3,j2x,a,j2x_a,j2x_1_aja.wav,j2x_8_axa.wav,,FALSE,FALSE,,,,,,,,,,,,,,j,0.601,space,0.969,,,,,,,,0,141,141,74,1,,
59609bdb599b690001ef2c59,2023-06-16_21h30.06.079,phx_ver10,2022.2.5,Win32,59.95203837,,,,,,,,,,,,25,testing_3,zh2sh,a,zh2sh_a,zh2sh_1_azha.wav,zh2sh_1_azha.wav,,TRUE,FALSE,,,,,,,,,,,,,,j,0.636,space,0.985,,,,,,,,0,142,142,24,1,,
59609bdb599b690001ef2c59,2023-06-16_21h30.06.079,phx_ver10,2022.2.5,Win32,59.95203837,,,,,,,,,,,,129,testing_3,sh2j,au,sh2j_au,sh2j_1_aushau.wav,sh2j_1_aushau.wav,,TRUE,FALSE,,,,,,,,,,,,,,j,0.585,space,0.919,,,,,,,,0,143,143,128,1,,
59609bdb599b690001ef2c59,2023-06-16_21h30.06.079,phx_ver10,2022.2.5,Win32,59.95203837,,,,,,,,,,,,,,,,,,,,,,,,,,,,,,,,,,,,,,,,,,,,,,,,,,,space,4.107
