participant,date,expName,psychopyVersion,OS,frameRate,space_1.keys,space_1.rt,space_2.keys,space_2.rt,space_train.keys,space_train.rt,training.thisRepN,training.thisTrialN,training.thisN,training.thisIndex,training.ran,token_id,task,continuum,vowel,series,sound_1,sound_2,img,same,trained,FJ_attn.keys,FJ_attn.rt,space_attn.keys,space_attn.rt,if_attn_test.thisRepN,if_attn_test.thisTrialN,if_attn_test.thisN,if_attn_test.thisIndex,if_attn_test.ran,space_trans_1.keys,space_trans_1.rt,space_trans_11.keys,space_trans_11.rt,FJ_test.keys,FJ_test.rt,space_test.keys,space_test.rt,testing_pre.thisRepN,testing_pre.thisTrialN,testing_pre.thisN,testing_pre.thisIndex,testing_pre.ran,space_trans_2.keys,space_trans_2.rt,testing_all.thisRepN,testing_all.thisTrialN,testing_all.thisN,testing_all.thisIndex,testing_all.ran,space_ending.keys,space_ending.rt
59de02265de9b000017ec12e,2023-06-16_10h13.03.099,phx_ver10,2022.2.5,Win32,59.21714929,,,,,,,,,,,,,,,,,,,,,,,,,,,,,,,,,,,,,,,,,,,,,,,,,,,,
59de02265de9b000017ec12e,2023-06-16_10h13.03.099,phx_ver10,2022.2.5,Win32,59.21714929,space,6.1001,,,,,,,,,,,,,,,,,,,,,,,,,,,,,,,,,,,,,,,,,,,,,,,,,,
59de02265de9b000017ec12e,2023-06-16_10h13.03.099,phx_ver10,2022.2.5,Win32,59.21714929,,,space,1.3328,,,,,,,,,,,,,,,,,,,,,,,,,,,,,,,,,,,,,,,,,,,,,,,,
59de02265de9b000017ec12e,2023-06-16_10h13.03.099,phx_ver10,2022.2.5,Win32,59.21714929,,,,,space,3.2531,0,0,0,21,1,22,training,zh2x,e,zh2x_e,zh2x_3_ezhe.wav,,ezhe.jpg,,,,,,,,,,,,,,,,,,,,,,,,,,,,,,,,,
59de02265de9b000017ec12e,2023-06-16_10h13.03.099,phx_ver10,2022.2.5,Win32,59.21714929,,,,,space,3.2327,0,1,1,38,1,39,training,zh2x,i,zh2x_i,zh2x_3_izhi.wav,,izhi.jpg,,,,,,,,,,,,,,,,,,,,,,,,,,,,,,,,,
59de02265de9b000017ec12e,2023-06-16_10h13.03.099,phx_ver10,2022.2.5,Win32,59.21714929,,,,,space,2.7635,0,2,2,46,1,47,training,zh2x,i,zh2x_i,zh2x_7_ixi.wav,,ixi.jpg,,,,,,,,,,,,,,,,,,,,,,,,,,,,,,,,,
59de02265de9b000017ec12e,2023-06-16_10h13.03.099,phx_ver10,2022.2.5,Win32,59.21714929,,,,,space,0.8894,0,3,3,43,1,44,training,zh2x,i,zh2x_i,zh2x_7_ixi.wav,,ixi.jpg,,,,,,,,,,,,,,,,,,,,,,,,,,,,,,,,,
59de02265de9b000017ec12e,2023-06-16_10h13.03.099,phx_ver10,2022.2.5,Win32,59.21714929,,,,,space,3.2858,0,4,4,25,1,26,training,zh2x,e,zh2x_e,zh2x_6_exe.wav,,exe.jpg,,,,,,,,,,,,,,,,,,,,,,,,,,,,,,,,,
59de02265de9b000017ec12e,2023-06-16_10h13.03.099,phx_ver10,2022.2.5,Win32,59.21714929,,,,,space,1.601,0,5,5,32,1,33,training,zh2x,i,zh2x_i,zh2x_1_izhi.wav,,izhi.jpg,,,,,,,,,,,,,,,,,,,,,,,,,,,,,,,,,
59de02265de9b000017ec12e,2023-06-16_10h13.03.099,phx_ver10,2022.2.5,Win32,59.21714929,,,,,,,,,,,,,attn_test,,,,zh2x_8_ixi.wav,zh2x_1_izhi.wav,ixi.jpg,LEFT,,f,5.4861,space,7.4839,0,0,0,0,1,,,,,,,,,,,,,,,,,,,,,,
59de02265de9b000017ec12e,2023-06-16_10h13.03.099,phx_ver10,2022.2.5,Win32,59.21714929,,,,,space,1.0812,0,6,6,24,1,25,training,zh2x,e,zh2x_e,zh2x_5_exe.wav,,exe.jpg,,,,,,,,,,,,,,,,,,,,,,,,,,,,,,,,,
59de02265de9b000017ec12e,2023-06-16_10h13.03.099,phx_ver10,2022.2.5,Win32,59.21714929,,,,,space,1.1045,0,7,7,39,1,40,training,zh2x,i,zh2x_i,zh2x_4_izhi.wav,,izhi.jpg,,,,,,,,,,,,,,,,,,,,,,,,,,,,,,,,,
59de02265de9b000017ec12e,2023-06-16_10h13.03.099,phx_ver10,2022.2.5,Win32,59.21714929,,,,,space,0.0116,0,8,8,33,1,34,training,zh2x,i,zh2x_i,zh2x_2_izhi.wav,,izhi.jpg,,,,,,,,,,,,,,,,,,,,,,,,,,,,,,,,,
59de02265de9b000017ec12e,2023-06-16_10h13.03.099,phx_ver10,2022.2.5,Win32,59.21714929,,,,,space,0.166,0,9,9,42,1,43,training,zh2x,i,zh2x_i,zh2x_6_ixi.wav,,ixi.jpg,,,,,,,,,,,,,,,,,,,,,,,,,,,,,,,,,
59de02265de9b000017ec12e,2023-06-16_10h13.03.099,phx_ver10,2022.2.5,Win32,59.21714929,,,,,space,0.3563,0,10,10,47,1,48,training,zh2x,i,zh2x_i,zh2x_8_ixi.wav,,ixi.jpg,,,,,,,,,,,,,,,,,,,,,,,,,,,,,,,,,
59de02265de9b000017ec12e,2023-06-16_10h13.03.099,phx_ver10,2022.2.5,Win32,59.21714929,,,,,space,2.9067,0,11,11,8,1,9,training,zh2x,a,zh2x_a,zh2x_5_axa.wav,,axa.jpg,,,,,,,,,,,,,,,,,,,,,,,,,,,,,,,,,
59de02265de9b000017ec12e,2023-06-16_10h13.03.099,phx_ver10,2022.2.5,Win32,59.21714929,,,,,,,,,,,,,attn_test,,,,zh2x_1_azha.wav,zh2x_8_ixi.wav,ixi.jpg,RIGHT,,j,2.8905,space,4.641,0,0,0,0,1,,,,,,,,,,,,,,,,,,,,,,
59de02265de9b000017ec12e,2023-06-16_10h13.03.099,phx_ver10,2022.2.5,Win32,59.21714929,,,,,space,1.1,0,12,12,45,1,46,training,zh2x,i,zh2x_i,zh2x_7_ixi.wav,,ixi.jpg,,,,,,,,,,,,,,,,,,,,,,,,,,,,,,,,,
59de02265de9b000017ec12e,2023-06-16_10h13.03.099,phx_ver10,2022.2.5,Win32,59.21714929,,,,,space,1.1126,0,13,13,18,1,19,training,zh2x,e,zh2x_e,zh2x_2_ezhe.wav,,ezhe.jpg,,,,,,,,,,,,,,,,,,,,,,,,,,,,,,,,,
59de02265de9b000017ec12e,2023-06-16_10h13.03.099,phx_ver10,2022.2.5,Win32,59.21714929,,,,,space,0.1592,0,14,14,37,1,38,training,zh2x,i,zh2x_i,zh2x_3_izhi.wav,,izhi.jpg,,,,,,,,,,,,,,,,,,,,,,,,,,,,,,,,,
59de02265de9b000017ec12e,2023-06-16_10h13.03.099,phx_ver10,2022.2.5,Win32,59.21714929,,,,,space,0.7081,0,15,15,28,1,29,training,zh2x,e,zh2x_e,zh2x_7_exe.wav,,exe.jpg,,,,,,,,,,,,,,,,,,,,,,,,,,,,,,,,,
59de02265de9b000017ec12e,2023-06-16_10h13.03.099,phx_ver10,2022.2.5,Win32,59.21714929,,,,,space,0.8299,0,16,16,9,1,10,training,zh2x,a,zh2x_a,zh2x_6_axa.wav,,axa.jpg,,,,,,,,,,,,,,,,,,,,,,,,,,,,,,,,,
59de02265de9b000017ec12e,2023-06-16_10h13.03.099,phx_ver10,2022.2.5,Win32,59.21714929,,,,,space,1.1332,0,17,17,26,1,27,training,zh2x,e,zh2x_e,zh2x_6_exe.wav,,exe.jpg,,,,,,,,,,,,,,,,,,,,,,,,,,,,,,,,,
59de02265de9b000017ec12e,2023-06-16_10h13.03.099,phx_ver10,2022.2.5,Win32,59.21714929,,,,,,,,,,,,,attn_test,,,,zh2x_1_azha.wav,zh2x_8_ixi.wav,ixi.jpg,RIGHT,,j,0.6789,space,2.0324,0,0,0,0,1,,,,,,,,,,,,,,,,,,,,,,
59de02265de9b000017ec12e,2023-06-16_10h13.03.099,phx_ver10,2022.2.5,Win32,59.21714929,,,,,space,0.7885,0,18,18,44,1,45,training,zh2x,i,zh2x_i,zh2x_7_ixi.wav,,ixi.jpg,,,,,,,,,,,,,,,,,,,,,,,,,,,,,,,,,
59de02265de9b000017ec12e,2023-06-16_10h13.03.099,phx_ver10,2022.2.5,Win32,59.21714929,,,,,space,3.1659,0,19,19,1,1,2,training,zh2x,a,zh2x_a,zh2x_2_azha.wav,,azha.jpg,,,,,,,,,,,,,,,,,,,,,,,,,,,,,,,,,
59de02265de9b000017ec12e,2023-06-16_10h13.03.099,phx_ver10,2022.2.5,Win32,59.21714929,,,,,space,0.7552,0,20,20,20,1,21,training,zh2x,e,zh2x_e,zh2x_2_ezhe.wav,,ezhe.jpg,,,,,,,,,,,,,,,,,,,,,,,,,,,,,,,,,
59de02265de9b000017ec12e,2023-06-16_10h13.03.099,phx_ver10,2022.2.5,Win32,59.21714929,,,,,space,1.1285,0,21,21,10,1,11,training,zh2x,a,zh2x_a,zh2x_6_axa.wav,,axa.jpg,,,,,,,,,,,,,,,,,,,,,,,,,,,,,,,,,
59de02265de9b000017ec12e,2023-06-16_10h13.03.099,phx_ver10,2022.2.5,Win32,59.21714929,,,,,space,0.4794,0,22,22,41,1,42,training,zh2x,i,zh2x_i,zh2x_6_ixi.wav,,ixi.jpg,,,,,,,,,,,,,,,,,,,,,,,,,,,,,,,,,
59de02265de9b000017ec12e,2023-06-16_10h13.03.099,phx_ver10,2022.2.5,Win32,59.21714929,,,,,space,0.234,0,23,23,31,1,32,training,zh2x,e,zh2x_e,zh2x_8_exe.wav,,exe.jpg,,,,,,,,,,,,,,,,,,,,,,,,,,,,,,,,,
59de02265de9b000017ec12e,2023-06-16_10h13.03.099,phx_ver10,2022.2.5,Win32,59.21714929,,,,,,,,,,,,,attn_test,,,,zh2x_1_ezhe.wav,zh2x_8_ixi.wav,ixi.jpg,RIGHT,,j,0.4164,space,1.6007,0,0,0,0,1,,,,,,,,,,,,,,,,,,,,,,
59de02265de9b000017ec12e,2023-06-16_10h13.03.099,phx_ver10,2022.2.5,Win32,59.21714929,,,,,space,0.377,0,24,24,11,1,12,training,zh2x,a,zh2x_a,zh2x_7_axa.wav,,axa.jpg,,,,,,,,,,,,,,,,,,,,,,,,,,,,,,,,,
59de02265de9b000017ec12e,2023-06-16_10h13.03.099,phx_ver10,2022.2.5,Win32,59.21714929,,,,,space,0.3876,0,25,25,22,1,23,training,zh2x,e,zh2x_e,zh2x_3_ezhe.wav,,ezhe.jpg,,,,,,,,,,,,,,,,,,,,,,,,,,,,,,,,,
59de02265de9b000017ec12e,2023-06-16_10h13.03.099,phx_ver10,2022.2.5,Win32,59.21714929,,,,,space,0.1301,0,26,26,15,1,16,training,zh2x,a,zh2x_a,zh2x_8_axa.wav,,axa.jpg,,,,,,,,,,,,,,,,,,,,,,,,,,,,,,,,,
59de02265de9b000017ec12e,2023-06-16_10h13.03.099,phx_ver10,2022.2.5,Win32,59.21714929,,,,,space,1.1739,0,27,27,2,1,3,training,zh2x,a,zh2x_a,zh2x_2_azha.wav,,azha.jpg,,,,,,,,,,,,,,,,,,,,,,,,,,,,,,,,,
59de02265de9b000017ec12e,2023-06-16_10h13.03.099,phx_ver10,2022.2.5,Win32,59.21714929,,,,,space,0.8126,0,28,28,23,1,24,training,zh2x,e,zh2x_e,zh2x_4_ezhe.wav,,ezhe.jpg,,,,,,,,,,,,,,,,,,,,,,,,,,,,,,,,,
59de02265de9b000017ec12e,2023-06-16_10h13.03.099,phx_ver10,2022.2.5,Win32,59.21714929,,,,,space,0.7392,0,29,29,27,1,28,training,zh2x,e,zh2x_e,zh2x_7_exe.wav,,exe.jpg,,,,,,,,,,,,,,,,,,,,,,,,,,,,,,,,,
59de02265de9b000017ec12e,2023-06-16_10h13.03.099,phx_ver10,2022.2.5,Win32,59.21714929,,,,,,,,,,,,,attn_test,,,,zh2x_8_axa.wav,zh2x_1_ezhe.wav,axa.jpg,LEFT,,f,0.9474,space,1.8199,0,0,0,0,1,,,,,,,,,,,,,,,,,,,,,,
59de02265de9b000017ec12e,2023-06-16_10h13.03.099,phx_ver10,2022.2.5,Win32,59.21714929,,,,,space,0.3652,0,30,30,13,1,14,training,zh2x,a,zh2x_a,zh2x_7_axa.wav,,axa.jpg,,,,,,,,,,,,,,,,,,,,,,,,,,,,,,,,,
59de02265de9b000017ec12e,2023-06-16_10h13.03.099,phx_ver10,2022.2.5,Win32,59.21714929,,,,,space,0.4707,0,31,31,14,1,15,training,zh2x,a,zh2x_a,zh2x_7_axa.wav,,axa.jpg,,,,,,,,,,,,,,,,,,,,,,,,,,,,,,,,,
59de02265de9b000017ec12e,2023-06-16_10h13.03.099,phx_ver10,2022.2.5,Win32,59.21714929,,,,,space,0.4781,0,32,32,19,1,20,training,zh2x,e,zh2x_e,zh2x_2_ezhe.wav,,ezhe.jpg,,,,,,,,,,,,,,,,,,,,,,,,,,,,,,,,,
59de02265de9b000017ec12e,2023-06-16_10h13.03.099,phx_ver10,2022.2.5,Win32,59.21714929,,,,,space,0.6871,0,33,33,12,1,13,training,zh2x,a,zh2x_a,zh2x_7_axa.wav,,axa.jpg,,,,,,,,,,,,,,,,,,,,,,,,,,,,,,,,,
59de02265de9b000017ec12e,2023-06-16_10h13.03.099,phx_ver10,2022.2.5,Win32,59.21714929,,,,,space,0.5277,0,34,34,35,1,36,training,zh2x,i,zh2x_i,zh2x_2_izhi.wav,,izhi.jpg,,,,,,,,,,,,,,,,,,,,,,,,,,,,,,,,,
59de02265de9b000017ec12e,2023-06-16_10h13.03.099,phx_ver10,2022.2.5,Win32,59.21714929,,,,,space,0.2718,0,35,35,29,1,30,training,zh2x,e,zh2x_e,zh2x_7_exe.wav,,exe.jpg,,,,,,,,,,,,,,,,,,,,,,,,,,,,,,,,,
59de02265de9b000017ec12e,2023-06-16_10h13.03.099,phx_ver10,2022.2.5,Win32,59.21714929,,,,,,,,,,,,,attn_test,,,,zh2x_8_ixi.wav,zh2x_8_exe.wav,exe.jpg,RIGHT,,j,0.2657,space,0.9544,0,0,0,0,1,,,,,,,,,,,,,,,,,,,,,,
59de02265de9b000017ec12e,2023-06-16_10h13.03.099,phx_ver10,2022.2.5,Win32,59.21714929,,,,,space,0.0841,0,36,36,40,1,41,training,zh2x,i,zh2x_i,zh2x_5_ixi.wav,,ixi.jpg,,,,,,,,,,,,,,,,,,,,,,,,,,,,,,,,,
59de02265de9b000017ec12e,2023-06-16_10h13.03.099,phx_ver10,2022.2.5,Win32,59.21714929,,,,,space,0.1349,0,37,37,4,1,5,training,zh2x,a,zh2x_a,zh2x_2_azha.wav,,azha.jpg,,,,,,,,,,,,,,,,,,,,,,,,,,,,,,,,,
59de02265de9b000017ec12e,2023-06-16_10h13.03.099,phx_ver10,2022.2.5,Win32,59.21714929,,,,,space,0.0356,0,38,38,7,1,8,training,zh2x,a,zh2x_a,zh2x_4_azha.wav,,azha.jpg,,,,,,,,,,,,,,,,,,,,,,,,,,,,,,,,,
59de02265de9b000017ec12e,2023-06-16_10h13.03.099,phx_ver10,2022.2.5,Win32,59.21714929,,,,,space,1.0277,0,39,39,5,1,6,training,zh2x,a,zh2x_a,zh2x_3_azha.wav,,azha.jpg,,,,,,,,,,,,,,,,,,,,,,,,,,,,,,,,,
59de02265de9b000017ec12e,2023-06-16_10h13.03.099,phx_ver10,2022.2.5,Win32,59.21714929,,,,,space,0.162,0,40,40,30,1,31,training,zh2x,e,zh2x_e,zh2x_7_exe.wav,,exe.jpg,,,,,,,,,,,,,,,,,,,,,,,,,,,,,,,,,
59de02265de9b000017ec12e,2023-06-16_10h13.03.099,phx_ver10,2022.2.5,Win32,59.21714929,,,,,space,0.7843,0,41,41,34,1,35,training,zh2x,i,zh2x_i,zh2x_2_izhi.wav,,izhi.jpg,,,,,,,,,,,,,,,,,,,,,,,,,,,,,,,,,
59de02265de9b000017ec12e,2023-06-16_10h13.03.099,phx_ver10,2022.2.5,Win32,59.21714929,,,,,,,,,,,,,attn_test,,,,zh2x_1_azha.wav,zh2x_8_ixi.wav,azha.jpg,LEFT,,f,0.598,space,1.1968,0,0,0,0,1,,,,,,,,,,,,,,,,,,,,,,
59de02265de9b000017ec12e,2023-06-16_10h13.03.099,phx_ver10,2022.2.5,Win32,59.21714929,,,,,space,0.5749,0,42,42,16,1,17,training,zh2x,e,zh2x_e,zh2x_1_ezhe.wav,,ezhe.jpg,,,,,,,,,,,,,,,,,,,,,,,,,,,,,,,,,
59de02265de9b000017ec12e,2023-06-16_10h13.03.099,phx_ver10,2022.2.5,Win32,59.21714929,,,,,space,0.1177,0,43,43,36,1,37,training,zh2x,i,zh2x_i,zh2x_2_izhi.wav,,izhi.jpg,,,,,,,,,,,,,,,,,,,,,,,,,,,,,,,,,
59de02265de9b000017ec12e,2023-06-16_10h13.03.099,phx_ver10,2022.2.5,Win32,59.21714929,,,,,space,0.0426,0,44,44,6,1,7,training,zh2x,a,zh2x_a,zh2x_3_azha.wav,,azha.jpg,,,,,,,,,,,,,,,,,,,,,,,,,,,,,,,,,
59de02265de9b000017ec12e,2023-06-16_10h13.03.099,phx_ver10,2022.2.5,Win32,59.21714929,,,,,space,0.1835,0,45,45,17,1,18,training,zh2x,e,zh2x_e,zh2x_2_ezhe.wav,,ezhe.jpg,,,,,,,,,,,,,,,,,,,,,,,,,,,,,,,,,
59de02265de9b000017ec12e,2023-06-16_10h13.03.099,phx_ver10,2022.2.5,Win32,59.21714929,,,,,space,0.2849,0,46,46,3,1,4,training,zh2x,a,zh2x_a,zh2x_2_azha.wav,,azha.jpg,,,,,,,,,,,,,,,,,,,,,,,,,,,,,,,,,
59de02265de9b000017ec12e,2023-06-16_10h13.03.099,phx_ver10,2022.2.5,Win32,59.21714929,,,,,space,0.5836,0,47,47,0,1,1,training,zh2x,a,zh2x_a,zh2x_1_azha.wav,,azha.jpg,,,,,,,,,,,,,,,,,,,,,,,,,,,,,,,,,
59de02265de9b000017ec12e,2023-06-16_10h13.03.099,phx_ver10,2022.2.5,Win32,59.21714929,,,,,,,,,,,,,attn_test,,,,zh2x_8_exe.wav,zh2x_1_ezhe.wav,ezhe.jpg,RIGHT,,f,7.2812,space,8.1522,,,,,,,,,,,,,,,,,,,,,,,,,,,
59de02265de9b000017ec12e,2023-06-16_10h13.03.099,phx_ver10,2022.2.5,Win32,59.21714929,,,,,,,,,,,,,,,,,,,,,,,,,,,,,,,space,1.1195,,,,,,,,,,,,,,,,,,,,
59de02265de9b000017ec12e,2023-06-16_10h13.03.099,phx_ver10,2022.2.5,Win32,59.21714929,,,,,,,,,,,,,,,,,,,,,,,,,,,,,,,,,space,11.0865,,,,,,,,,,,,,,,,,,
59de02265de9b000017ec12e,2023-06-16_10h13.03.099,phx_ver10,2022.2.5,Win32,59.21714929,,,,,,,,,,,,1,testing_pre,,,,ifi.wav,ifi.wav,,TRUE,,,,,,,,,,,,,,,f,1.72,space,2.6586,0,0,0,0,1,,,,,,,,,
59de02265de9b000017ec12e,2023-06-16_10h13.03.099,phx_ver10,2022.2.5,Win32,59.21714929,,,,,,,,,,,,3,testing_pre,,,,afa.wav,aha.wav,,FALSE,,,,,,,,,,,,,,,j,1.9002,space,2.8069,0,1,1,2,1,,,,,,,,,
59de02265de9b000017ec12e,2023-06-16_10h13.03.099,phx_ver10,2022.2.5,Win32,59.21714929,,,,,,,,,,,,5,testing_pre,,,,ihi.wav,ifi.wav,,FALSE,,,,,,,,,,,,,,,f,1.6566,space,2.1499,0,2,2,4,1,,,,,,,,,
59de02265de9b000017ec12e,2023-06-16_10h13.03.099,phx_ver10,2022.2.5,Win32,59.21714929,,,,,,,,,,,,4,testing_pre,,,,eihei.wav,eihei.wav,,TRUE,,,,,,,,,,,,,,,f,0.6558,space,1.0176,0,3,3,3,1,,,,,,,,,
59de02265de9b000017ec12e,2023-06-16_10h13.03.099,phx_ver10,2022.2.5,Win32,59.21714929,,,,,,,,,,,,2,testing_pre,,,,auhau.wav,aufau.wav,,FALSE,,,,,,,,,,,,,,,j,0.6015,space,1.0699,0,4,4,1,1,,,,,,,,,
59de02265de9b000017ec12e,2023-06-16_10h13.03.099,phx_ver10,2022.2.5,Win32,59.21714929,,,,,,,,,,,,,,,,,,,,,,,,,,,,,,,,,,,,,,,,,,,,space,0.732,,,,,,,
59de02265de9b000017ec12e,2023-06-16_10h13.03.099,phx_ver10,2022.2.5,Win32,59.21714929,,,,,,,,,,,,109,testing_3,sh2x,e,sh2x_e,sh2x_1_eshe.wav,sh2x_1_eshe.wav,,TRUE,FALSE,,,,,,,,,,,,,,f,0.7719,space,1.3002,,,,,,,,0,0,0,108,1,,
59de02265de9b000017ec12e,2023-06-16_10h13.03.099,phx_ver10,2022.2.5,Win32,59.21714929,,,,,,,,,,,,57,testing_3,zh2j,au,zh2j_au,zh2j_1_auzhau.wav,zh2j_1_auzhau.wav,,TRUE,FALSE,,,,,,,,,,,,,,f,1.9293,space,2.3835,,,,,,,,0,1,1,56,1,,
59de02265de9b000017ec12e,2023-06-16_10h13.03.099,phx_ver10,2022.2.5,Win32,59.21714929,,,,,,,,,,,,114,testing_3,sh2x,ei,sh2x_ei,sh2x_8_eixei.wav,sh2x_8_eixei.wav,,TRUE,FALSE,,,,,,,,,,,,,,f,0.947,space,1.3286,,,,,,,,0,2,2,113,1,,
59de02265de9b000017ec12e,2023-06-16_10h13.03.099,phx_ver10,2022.2.5,Win32,59.21714929,,,,,,,,,,,,86,testing_3,j2x,e,j2x_e,j2x_8_exe.wav,j2x_8_exe.wav,,TRUE,FALSE,,,,,,,,,,,,,,f,1.3842,space,1.7206,,,,,,,,0,3,3,85,1,,
59de02265de9b000017ec12e,2023-06-16_10h13.03.099,phx_ver10,2022.2.5,Win32,59.21714929,,,,,,,,,,,,65,testing_3,zh2j,ei,zh2j_ei,zh2j_1_eizhei.wav,zh2j_1_eizhei.wav,,TRUE,FALSE,,,,,,,,,,,,,,f,0.6532,space,1.0728,,,,,,,,0,4,4,64,1,,
59de02265de9b000017ec12e,2023-06-16_10h13.03.099,phx_ver10,2022.2.5,Win32,59.21714929,,,,,,,,,,,,29,testing_3,zh2sh,ai,zh2sh_ai,zh2sh_1_aizhai.wav,zh2sh_1_aizhai.wav,,TRUE,FALSE,,,,,,,,,,,,,,f,0.7498,space,1.2134,,,,,,,,0,5,5,28,1,,
59de02265de9b000017ec12e,2023-06-16_10h13.03.099,phx_ver10,2022.2.5,Win32,59.21714929,,,,,,,,,,,,138,testing_3,sh2j,ei,sh2j_ei,sh2j_8_eijei.wav,sh2j_8_eijei.wav,,TRUE,FALSE,,,,,,,,,,,,,,f,0.268,space,0.7202,,,,,,,,0,6,6,137,1,,
59de02265de9b000017ec12e,2023-06-16_10h13.03.099,phx_ver10,2022.2.5,Win32,59.21714929,,,,,,,,,,,,19,testing_2,zh2x,au,zh2x_au,zh2x_1_auzhau.wav,zh2x_8_auxau.wav,,FALSE,FALSE,,,,,,,,,,,,,,j,1.0183,space,1.5003,,,,,,,,0,7,7,18,1,,
59de02265de9b000017ec12e,2023-06-16_10h13.03.099,phx_ver10,2022.2.5,Win32,59.21714929,,,,,,,,,,,,52,testing_3,zh2j,a,zh2j_a,zh2j_8_aja.wav,zh2j_1_azha.wav,,FALSE,FALSE,,,,,,,,,,,,,,f,0.6061,space,1.0032,,,,,,,,0,8,8,51,1,,
59de02265de9b000017ec12e,2023-06-16_10h13.03.099,phx_ver10,2022.2.5,Win32,59.21714929,,,,,,,,,,,,75,testing_3,j2x,a,j2x_a,j2x_1_aja.wav,j2x_8_axa.wav,,FALSE,FALSE,,,,,,,,,,,,,,j,1.1535,space,1.6501,,,,,,,,0,9,9,74,1,,
59de02265de9b000017ec12e,2023-06-16_10h13.03.099,phx_ver10,2022.2.5,Win32,59.21714929,,,,,,,,,,,,103,testing_3,sh2x,ai,sh2x_ai,sh2x_1_aishai.wav,sh2x_8_aixai.wav,,FALSE,FALSE,,,,,,,,,,,,,,f,0.8959,space,1.184,,,,,,,,0,10,10,102,1,,
59de02265de9b000017ec12e,2023-06-16_10h13.03.099,phx_ver10,2022.2.5,Win32,59.21714929,,,,,,,,,,,,4,testing_1,zh2x,a,zh2x_a,zh2x_8_axa.wav,zh2x_1_azha.wav,,FALSE,TRUE,,,,,,,,,,,,,,f,0.3959,space,0.848,,,,,,,,0,11,11,3,1,,
59de02265de9b000017ec12e,2023-06-16_10h13.03.099,phx_ver10,2022.2.5,Win32,59.21714929,,,,,,,,,,,,81,testing_3,j2x,au,j2x_au,j2x_1_aujau.wav,j2x_1_aujau.wav,,TRUE,FALSE,,,,,,,,,,,,,,f,0.3915,space,0.7036,,,,,,,,0,12,12,80,1,,
59de02265de9b000017ec12e,2023-06-16_10h13.03.099,phx_ver10,2022.2.5,Win32,59.21714929,,,,,,,,,,,,111,testing_3,sh2x,e,sh2x_e,sh2x_1_eshe.wav,sh2x_8_exe.wav,,FALSE,FALSE,,,,,,,,,,,,,,f,0.2951,space,0.5981,,,,,,,,0,13,13,110,1,,
59de02265de9b000017ec12e,2023-06-16_10h13.03.099,phx_ver10,2022.2.5,Win32,59.21714929,,,,,,,,,,,,105,testing_3,sh2x,au,sh2x_au,sh2x_1_aushau.wav,sh2x_1_aushau.wav,,TRUE,FALSE,,,,,,,,,,,,,,f,0.2104,space,0.6254,,,,,,,,0,14,14,104,1,,
59de02265de9b000017ec12e,2023-06-16_10h13.03.099,phx_ver10,2022.2.5,Win32,59.21714929,,,,,,,,,,,,93,testing_3,j2x,i,j2x_i,j2x_1_iji.wav,j2x_1_iji.wav,,TRUE,FALSE,,,,,,,,,,,,,,f,0.0333,space,0.4436,,,,,,,,0,15,15,92,1,,
59de02265de9b000017ec12e,2023-06-16_10h13.03.099,phx_ver10,2022.2.5,Win32,59.21714929,,,,,,,,,,,,125,testing_3,sh2j,ai,sh2j_ai,sh2j_1_aishai.wav,sh2j_1_aishai.wav,,TRUE,FALSE,,,,,,,,,,,,,,f,0.2446,space,0.7372,,,,,,,,0,16,16,124,1,,
59de02265de9b000017ec12e,2023-06-16_10h13.03.099,phx_ver10,2022.2.5,Win32,59.21714929,,,,,,,,,,,,58,testing_3,zh2j,au,zh2j_au,zh2j_8_aujau.wav,zh2j_8_aujau.wav,,TRUE,FALSE,,,,,,,,,,,,,,f,0.4043,space,0.8188,,,,,,,,0,17,17,57,1,,
59de02265de9b000017ec12e,2023-06-16_10h13.03.099,phx_ver10,2022.2.5,Win32,59.21714929,,,,,,,,,,,,50,testing_3,zh2j,a,zh2j_a,zh2j_8_aja.wav,zh2j_8_aja.wav,,TRUE,FALSE,,,,,,,,,,,,,,f,0.6003,space,1.1295,,,,,,,,0,18,18,49,1,,
59de02265de9b000017ec12e,2023-06-16_10h13.03.099,phx_ver10,2022.2.5,Win32,59.21714929,,,,,,,,,,,,122,testing_3,sh2j,a,sh2j_a,sh2j_8_aja.wav,sh2j_8_aja.wav,,TRUE,FALSE,,,,,,,,,,,,,,f,0.334,space,0.6639,,,,,,,,0,19,19,121,1,,
59de02265de9b000017ec12e,2023-06-16_10h13.03.099,phx_ver10,2022.2.5,Win32,59.21714929,,,,,,,,,,,,84,testing_3,j2x,au,j2x_au,j2x_8_auxau.wav,j2x_1_aujau.wav,,FALSE,FALSE,,,,,,,,,,,,,,f,0.5941,space,0.9661,,,,,,,,0,20,20,83,1,,
59de02265de9b000017ec12e,2023-06-16_10h13.03.099,phx_ver10,2022.2.5,Win32,59.21714929,,,,,,,,,,,,89,testing_3,j2x,ei,j2x_ei,j2x_1_eijei.wav,j2x_1_eijei.wav,,TRUE,FALSE,,,,,,,,,,,,,,f,0.33,space,0.7142,,,,,,,,0,21,21,88,1,,
59de02265de9b000017ec12e,2023-06-16_10h13.03.099,phx_ver10,2022.2.5,Win32,59.21714929,,,,,,,,,,,,106,testing_3,sh2x,au,sh2x_au,sh2x_8_auxau.wav,sh2x_8_auxau.wav,,TRUE,FALSE,,,,,,,,,,,,,,f,0.481,space,0.8171,,,,,,,,0,22,22,105,1,,
59de02265de9b000017ec12e,2023-06-16_10h13.03.099,phx_ver10,2022.2.5,Win32,59.21714929,,,,,,,,,,,,40,testing_3,zh2sh,e,zh2sh_e,zh2sh_8_eshe.wav,zh2sh_1_ezhe.wav,,FALSE,FALSE,,,,,,,,,,,,,,f,0.2177,space,0.6613,,,,,,,,0,23,23,39,1,,
59de02265de9b000017ec12e,2023-06-16_10h13.03.099,phx_ver10,2022.2.5,Win32,59.21714929,,,,,,,,,,,,47,testing_3,zh2sh,i,zh2sh_i,zh2sh_1_izhi.wav,zh2sh_8_ishi.wav,,FALSE,FALSE,,,,,,,,,,,,,,j,0.8539,space,1.2317,,,,,,,,0,24,24,46,1,,
59de02265de9b000017ec12e,2023-06-16_10h13.03.099,phx_ver10,2022.2.5,Win32,59.21714929,,,,,,,,,,,,24,testing_2,zh2x,ei,zh2x_ei,zh2x_8_eixei.wav,zh2x_1_eizhei.wav,,FALSE,FALSE,,,,,,,,,,,,,,f,0.6351,space,1.0029,,,,,,,,0,25,25,23,1,,
59de02265de9b000017ec12e,2023-06-16_10h13.03.099,phx_ver10,2022.2.5,Win32,59.21714929,,,,,,,,,,,,64,testing_3,zh2j,e,zh2j_e,zh2j_8_eje.wav,zh2j_1_ezhe.wav,,FALSE,FALSE,,,,,,,,,,,,,,f,0.0608,space,0.4202,,,,,,,,0,26,26,63,1,,
59de02265de9b000017ec12e,2023-06-16_10h13.03.099,phx_ver10,2022.2.5,Win32,59.21714929,,,,,,,,,,,,49,testing_3,zh2j,a,zh2j_a,zh2j_1_azha.wav,zh2j_1_azha.wav,,TRUE,FALSE,,,,,,,,,,,,,,f,0.7599,space,1.284,,,,,,,,0,27,27,48,1,,
59de02265de9b000017ec12e,2023-06-16_10h13.03.099,phx_ver10,2022.2.5,Win32,59.21714929,,,,,,,,,,,,33,testing_3,zh2sh,au,zh2sh_au,zh2sh_1_auzhau.wav,zh2sh_1_auzhau.wav,,TRUE,FALSE,,,,,,,,,,,,,,f,0.2324,space,0.7495,,,,,,,,0,28,28,32,1,,
59de02265de9b000017ec12e,2023-06-16_10h13.03.099,phx_ver10,2022.2.5,Win32,59.21714929,,,,,,,,,,,,130,testing_3,sh2j,au,sh2j_au,sh2j_8_aujau.wav,sh2j_8_aujau.wav,,TRUE,FALSE,,,,,,,,,,,,,,f,0.1799,space,0.718,,,,,,,,0,29,29,129,1,,
59de02265de9b000017ec12e,2023-06-16_10h13.03.099,phx_ver10,2022.2.5,Win32,59.21714929,,,,,,,,,,,,133,testing_3,sh2j,e,sh2j_e,sh2j_1_eshe.wav,sh2j_1_eshe.wav,,TRUE,FALSE,,,,,,,,,,,,,,f,0.1038,space,0.6837,,,,,,,,0,30,30,132,1,,
59de02265de9b000017ec12e,2023-06-16_10h13.03.099,phx_ver10,2022.2.5,Win32,59.21714929,,,,,,,,,,,,97,testing_3,sh2x,a,sh2x_a,sh2x_1_asha.wav,sh2x_1_asha.wav,,TRUE,FALSE,,,,,,,,,,,,,,f,0.8912,space,1.4116,,,,,,,,0,31,31,96,1,,
59de02265de9b000017ec12e,2023-06-16_10h13.03.099,phx_ver10,2022.2.5,Win32,59.21714929,,,,,,,,,,,,38,testing_3,zh2sh,e,zh2sh_e,zh2sh_8_eshe.wav,zh2sh_8_eshe.wav,,TRUE,FALSE,,,,,,,,,,,,,,f,1.0884,space,1.5885,,,,,,,,0,32,32,37,1,,
59de02265de9b000017ec12e,2023-06-16_10h13.03.099,phx_ver10,2022.2.5,Win32,59.21714929,,,,,,,,,,,,12,testing_1,zh2x,i,zh2x_i,zh2x_8_ixi.wav,zh2x_1_izhi.wav,,FALSE,TRUE,,,,,,,,,,,,,,j,1.4668,space,1.8831,,,,,,,,0,33,33,11,1,,
59de02265de9b000017ec12e,2023-06-16_10h13.03.099,phx_ver10,2022.2.5,Win32,59.21714929,,,,,,,,,,,,25,testing_3,zh2sh,a,zh2sh_a,zh2sh_1_azha.wav,zh2sh_1_azha.wav,,TRUE,FALSE,,,,,,,,,,,,,,f,0.4681,space,1.1519,,,,,,,,0,34,34,24,1,,
59de02265de9b000017ec12e,2023-06-16_10h13.03.099,phx_ver10,2022.2.5,Win32,59.21714929,,,,,,,,,,,,77,testing_3,j2x,ai,j2x_ai,j2x_1_aijai.wav,j2x_1_aijai.wav,,TRUE,FALSE,,,,,,,,,,,,,,f,0.5789,space,0.7848,,,,,,,,0,35,35,76,1,,
59de02265de9b000017ec12e,2023-06-16_10h13.03.099,phx_ver10,2022.2.5,Win32,59.21714929,,,,,,,,,,,,136,testing_3,sh2j,e,sh2j_e,sh2j_8_eje.wav,sh2j_1_eshe.wav,,FALSE,FALSE,,,,,,,,,,,,,,j,3.1173,space,3.4852,,,,,,,,0,36,36,135,1,,
59de02265de9b000017ec12e,2023-06-16_10h13.03.099,phx_ver10,2022.2.5,Win32,59.21714929,,,,,,,,,,,,41,testing_3,zh2sh,ei,zh2sh_ei,zh2sh_1_eizhei.wav,zh2sh_1_eizhei.wav,,TRUE,FALSE,,,,,,,,,,,,,,f,0.3336,space,0.6693,,,,,,,,0,37,37,40,1,,
59de02265de9b000017ec12e,2023-06-16_10h13.03.099,phx_ver10,2022.2.5,Win32,59.21714929,,,,,,,,,,,,91,testing_3,j2x,ei,j2x_ei,j2x_1_eijei.wav,j2x_8_eixei.wav,,FALSE,FALSE,,,,,,,,,,,,,,j,1.3747,space,1.7871,,,,,,,,0,38,38,90,1,,
59de02265de9b000017ec12e,2023-06-16_10h13.03.099,phx_ver10,2022.2.5,Win32,59.21714929,,,,,,,,,,,,70,testing_3,zh2j,i,zh2j_i,zh2j_8_iji.wav,zh2j_8_iji.wav,,TRUE,FALSE,,,,,,,,,,,,,,f,0.0775,space,0.5113,,,,,,,,0,39,39,69,1,,
59de02265de9b000017ec12e,2023-06-16_10h13.03.099,phx_ver10,2022.2.5,Win32,59.21714929,,,,,,,,,,,,55,testing_3,zh2j,ai,zh2j_ai,zh2j_1_aizhai.wav,zh2j_8_aijai.wav,,FALSE,FALSE,,,,,,,,,,,,,,f,0.3701,space,0.8281,,,,,,,,0,40,40,54,1,,
59de02265de9b000017ec12e,2023-06-16_10h13.03.099,phx_ver10,2022.2.5,Win32,59.21714929,,,,,,,,,,,,96,testing_3,j2x,i,j2x_i,j2x_8_ixi.wav,j2x_1_iji.wav,,FALSE,FALSE,,,,,,,,,,,,,,f,0.664,space,1.1953,,,,,,,,0,41,41,95,1,,
59de02265de9b000017ec12e,2023-06-16_10h13.03.099,phx_ver10,2022.2.5,Win32,59.21714929,,,,,,,,,,,,85,testing_3,j2x,e,j2x_e,j2x_1_eje.wav,j2x_1_eje.wav,,TRUE,FALSE,,,,,,,,,,,,,,f,0.2356,space,0.7171,,,,,,,,0,42,42,84,1,,
59de02265de9b000017ec12e,2023-06-16_10h13.03.099,phx_ver10,2022.2.5,Win32,59.21714929,,,,,,,,,,,,94,testing_3,j2x,i,j2x_i,j2x_8_ixi.wav,j2x_8_ixi.wav,,TRUE,FALSE,,,,,,,,,,,,,,f,0.1227,space,0.5,,,,,,,,0,43,43,93,1,,
59de02265de9b000017ec12e,2023-06-16_10h13.03.099,phx_ver10,2022.2.5,Win32,59.21714929,,,,,,,,,,,,8,testing_1,zh2x,e,zh2x_e,zh2x_8_exe.wav,zh2x_1_ezhe.wav,,FALSE,TRUE,,,,,,,,,,,,,,j,1.5684,space,1.9581,,,,,,,,0,44,44,7,1,,
59de02265de9b000017ec12e,2023-06-16_10h13.03.099,phx_ver10,2022.2.5,Win32,59.21714929,,,,,,,,,,,,112,testing_3,sh2x,e,sh2x_e,sh2x_8_exe.wav,sh2x_1_eshe.wav,,FALSE,FALSE,,,,,,,,,,,,,,f,0.7493,space,1.1011,,,,,,,,0,45,45,111,1,,
59de02265de9b000017ec12e,2023-06-16_10h13.03.099,phx_ver10,2022.2.5,Win32,59.21714929,,,,,,,,,,,,107,testing_3,sh2x,au,sh2x_au,sh2x_1_aushau.wav,sh2x_8_auxau.wav,,FALSE,FALSE,,,,,,,,,,,,,,f,0.6209,space,1.1009,,,,,,,,0,46,46,106,1,,
59de02265de9b000017ec12e,2023-06-16_10h13.03.099,phx_ver10,2022.2.5,Win32,59.21714929,,,,,,,,,,,,141,testing_3,sh2j,i,sh2j_i,sh2j_1_ishi.wav,sh2j_1_ishi.wav,,TRUE,FALSE,,,,,,,,,,,,,,f,0.8331,space,1.2142,,,,,,,,0,47,47,140,1,,
59de02265de9b000017ec12e,2023-06-16_10h13.03.099,phx_ver10,2022.2.5,Win32,59.21714929,,,,,,,,,,,,17,testing_2,zh2x,au,zh2x_au,zh2x_1_auzhau.wav,zh2x_1_auzhau.wav,,TRUE,FALSE,,,,,,,,,,,,,,f,0.6453,space,1.1144,,,,,,,,0,48,48,16,1,,
59de02265de9b000017ec12e,2023-06-16_10h13.03.099,phx_ver10,2022.2.5,Win32,59.21714929,,,,,,,,,,,,31,testing_3,zh2sh,ai,zh2sh_ai,zh2sh_1_aizhai.wav,zh2sh_8_aishai.wav,,FALSE,FALSE,,,,,,,,,,,,,,j,0.8201,space,1.2633,,,,,,,,0,49,49,30,1,,
59de02265de9b000017ec12e,2023-06-16_10h13.03.099,phx_ver10,2022.2.5,Win32,59.21714929,,,,,,,,,,,,18,testing_2,zh2x,au,zh2x_au,zh2x_8_auxau.wav,zh2x_8_auxau.wav,,TRUE,FALSE,,,,,,,,,,,,,,f,0.4803,space,0.7789,,,,,,,,0,50,50,17,1,,
59de02265de9b000017ec12e,2023-06-16_10h13.03.099,phx_ver10,2022.2.5,Win32,59.21714929,,,,,,,,,,,,22,testing_2,zh2x,ei,zh2x_ei,zh2x_8_eixei.wav,zh2x_8_eixei.wav,,TRUE,FALSE,,,,,,,,,,,,,,f,0.0229,space,0.337,,,,,,,,0,51,51,21,1,,
59de02265de9b000017ec12e,2023-06-16_10h13.03.099,phx_ver10,2022.2.5,Win32,59.21714929,,,,,,,,,,,,120,testing_3,sh2x,i,sh2x_i,sh2x_8_ixi.wav,sh2x_1_ishi.wav,,FALSE,FALSE,,,,,,,,,,,,,,j,0.6365,space,0.9683,,,,,,,,0,52,52,119,1,,
59de02265de9b000017ec12e,2023-06-16_10h13.03.099,phx_ver10,2022.2.5,Win32,59.21714929,,,,,,,,,,,,90,testing_3,j2x,ei,j2x_ei,j2x_8_eixei.wav,j2x_8_eixei.wav,,TRUE,FALSE,,,,,,,,,,,,,,f,1.8612,space,2.3984,,,,,,,,0,53,53,89,1,,
59de02265de9b000017ec12e,2023-06-16_10h13.03.099,phx_ver10,2022.2.5,Win32,59.21714929,,,,,,,,,,,,119,testing_3,sh2x,i,sh2x_i,sh2x_1_ishi.wav,sh2x_8_ixi.wav,,FALSE,FALSE,,,,,,,,,,,,,,j,1.0698,space,1.5147,,,,,,,,0,54,54,118,1,,
59de02265de9b000017ec12e,2023-06-16_10h13.03.099,phx_ver10,2022.2.5,Win32,59.21714929,,,,,,,,,,,,28,testing_3,zh2sh,a,zh2sh_a,zh2sh_8_asha.wav,zh2sh_1_azha.wav,,FALSE,FALSE,,,,,,,,,,,,,,f,0.6185,space,0.9799,,,,,,,,0,55,55,27,1,,
59de02265de9b000017ec12e,2023-06-16_10h13.03.099,phx_ver10,2022.2.5,Win32,59.21714929,,,,,,,,,,,,128,testing_3,sh2j,ai,sh2j_ai,sh2j_8_aijai.wav,sh2j_1_aishai.wav,,FALSE,FALSE,,,,,,,,,,,,,,j,0.5027,space,0.8127,,,,,,,,0,56,56,127,1,,
59de02265de9b000017ec12e,2023-06-16_10h13.03.099,phx_ver10,2022.2.5,Win32,59.21714929,,,,,,,,,,,,87,testing_3,j2x,e,j2x_e,j2x_1_eje.wav,j2x_8_exe.wav,,FALSE,FALSE,,,,,,,,,,,,,,j,0.2804,space,0.5829,,,,,,,,0,57,57,86,1,,
59de02265de9b000017ec12e,2023-06-16_10h13.03.099,phx_ver10,2022.2.5,Win32,59.21714929,,,,,,,,,,,,42,testing_3,zh2sh,ei,zh2sh_ei,zh2sh_8_eishei.wav,zh2sh_8_eishei.wav,,TRUE,FALSE,,,,,,,,,,,,,,f,0.3706,space,0.6395,,,,,,,,0,58,58,41,1,,
59de02265de9b000017ec12e,2023-06-16_10h13.03.099,phx_ver10,2022.2.5,Win32,59.21714929,,,,,,,,,,,,10,testing_1,zh2x,i,zh2x_i,zh2x_8_ixi.wav,zh2x_8_ixi_copy.wav,,TRUE,TRUE,,,,,,,,,,,,,,f,0.4307,space,0.7816,,,,,,,,0,59,59,9,1,,
59de02265de9b000017ec12e,2023-06-16_10h13.03.099,phx_ver10,2022.2.5,Win32,59.21714929,,,,,,,,,,,,23,testing_2,zh2x,ei,zh2x_ei,zh2x_1_eizhei.wav,zh2x_8_eixei.wav,,FALSE,FALSE,,,,,,,,,,,,,,j,0.4991,space,0.8501,,,,,,,,0,60,60,22,1,,
59de02265de9b000017ec12e,2023-06-16_10h13.03.099,phx_ver10,2022.2.5,Win32,59.21714929,,,,,,,,,,,,142,testing_3,sh2j,i,sh2j_i,sh2j_8_iji.wav,sh2j_8_iji.wav,,TRUE,FALSE,,,,,,,,,,,,,,f,0.3549,space,0.6187,,,,,,,,0,61,61,141,1,,
59de02265de9b000017ec12e,2023-06-16_10h13.03.099,phx_ver10,2022.2.5,Win32,59.21714929,,,,,,,,,,,,88,testing_3,j2x,e,j2x_e,j2x_8_exe.wav,j2x_1_eje.wav,,FALSE,FALSE,,,,,,,,,,,,,,f,0.2526,space,0.7001,,,,,,,,0,62,62,87,1,,
59de02265de9b000017ec12e,2023-06-16_10h13.03.099,phx_ver10,2022.2.5,Win32,59.21714929,,,,,,,,,,,,27,testing_3,zh2sh,a,zh2sh_a,zh2sh_1_azha.wav,zh2sh_8_asha.wav,,FALSE,FALSE,,,,,,,,,,,,,,f,1.6223,space,2.0543,,,,,,,,0,63,63,26,1,,
59de02265de9b000017ec12e,2023-06-16_10h13.03.099,phx_ver10,2022.2.5,Win32,59.21714929,,,,,,,,,,,,1,testing_1,zh2x,a,zh2x_a,zh2x_1_azha.wav,zh2x_1_azha_copy.wav,,TRUE,TRUE,,,,,,,,,,,,,,f,0.0639,space,0.5784,,,,,,,,0,64,64,0,1,,
59de02265de9b000017ec12e,2023-06-16_10h13.03.099,phx_ver10,2022.2.5,Win32,59.21714929,,,,,,,,,,,,74,testing_3,j2x,a,j2x_a,j2x_8_axa.wav,j2x_8_axa.wav,,TRUE,FALSE,,,,,,,,,,,,,,f,0.1868,space,0.5537,,,,,,,,0,65,65,73,1,,
59de02265de9b000017ec12e,2023-06-16_10h13.03.099,phx_ver10,2022.2.5,Win32,59.21714929,,,,,,,,,,,,21,testing_2,zh2x,ei,zh2x_ei,zh2x_1_eizhei.wav,zh2x_1_eizhei.wav,,TRUE,FALSE,,,,,,,,,,,,,,f,0.301,space,0.6866,,,,,,,,0,66,66,20,1,,
59de02265de9b000017ec12e,2023-06-16_10h13.03.099,phx_ver10,2022.2.5,Win32,59.21714929,,,,,,,,,,,,46,testing_3,zh2sh,i,zh2sh_i,zh2sh_8_ishi.wav,zh2sh_8_ishi.wav,,TRUE,FALSE,,,,,,,,,,,,,,f,0.2803,space,0.8661,,,,,,,,0,67,67,45,1,,
59de02265de9b000017ec12e,2023-06-16_10h13.03.099,phx_ver10,2022.2.5,Win32,59.21714929,,,,,,,,,,,,44,testing_3,zh2sh,ei,zh2sh_ei,zh2sh_8_eishei.wav,zh2sh_1_eizhei.wav,,FALSE,FALSE,,,,,,,,,,,,,,j,0.6165,space,0.9538,,,,,,,,0,68,68,43,1,,
59de02265de9b000017ec12e,2023-06-16_10h13.03.099,phx_ver10,2022.2.5,Win32,59.21714929,,,,,,,,,,,,137,testing_3,sh2j,ei,sh2j_ei,sh2j_1_eishei.wav,sh2j_1_eishei.wav,,TRUE,FALSE,,,,,,,,,,,,,,f,0.2876,space,0.5573,,,,,,,,0,69,69,136,1,,
59de02265de9b000017ec12e,2023-06-16_10h13.03.099,phx_ver10,2022.2.5,Win32,59.21714929,,,,,,,,,,,,59,testing_3,zh2j,au,zh2j_au,zh2j_1_auzhau.wav,zh2j_8_aujau.wav,,FALSE,FALSE,,,,,,,,,,,,,,f,0.0485,space,0.4708,,,,,,,,0,70,70,58,1,,
59de02265de9b000017ec12e,2023-06-16_10h13.03.099,phx_ver10,2022.2.5,Win32,59.21714929,,,,,,,,,,,,76,testing_3,j2x,a,j2x_a,j2x_8_axa.wav,j2x_1_aja.wav,,FALSE,FALSE,,,,,,,,,,,,,,f,0.1152,space,0.7348,,,,,,,,0,71,71,75,1,,
59de02265de9b000017ec12e,2023-06-16_10h13.03.099,phx_ver10,2022.2.5,Win32,59.21714929,,,,,,,,,,,,110,testing_3,sh2x,e,sh2x_e,sh2x_8_exe.wav,sh2x_8_exe.wav,,TRUE,FALSE,,,,,,,,,,,,,,f,0.8537,space,1.3014,,,,,,,,0,72,72,109,1,,
59de02265de9b000017ec12e,2023-06-16_10h13.03.099,phx_ver10,2022.2.5,Win32,59.21714929,,,,,,,,,,,,16,testing_2,zh2x,ai,zh2x_ai,zh2x_8_aixai.wav,zh2x_1_aizhai.wav,,FALSE,FALSE,,,,,,,,,,,,,,f,0.1051,space,0.7065,,,,,,,,0,73,73,15,1,,
59de02265de9b000017ec12e,2023-06-16_10h13.03.099,phx_ver10,2022.2.5,Win32,59.21714929,,,,,,,,,,,,6,testing_1,zh2x,e,zh2x_e,zh2x_8_exe.wav,zh2x_8_exe_copy.wav,,TRUE,TRUE,,,,,,,,,,,,,,f,0.3853,space,0.9051,,,,,,,,0,74,74,5,1,,
59de02265de9b000017ec12e,2023-06-16_10h13.03.099,phx_ver10,2022.2.5,Win32,59.21714929,,,,,,,,,,,,104,testing_3,sh2x,ai,sh2x_ai,sh2x_8_aixai.wav,sh2x_1_aishai.wav,,FALSE,FALSE,,,,,,,,,,,,,,f,0.2359,space,1.0934,,,,,,,,0,75,75,103,1,,
59de02265de9b000017ec12e,2023-06-16_10h13.03.099,phx_ver10,2022.2.5,Win32,59.21714929,,,,,,,,,,,,134,testing_3,sh2j,e,sh2j_e,sh2j_8_eje.wav,sh2j_8_eje.wav,,TRUE,FALSE,,,,,,,,,,,,,,f,0.6492,space,1.1842,,,,,,,,0,76,76,133,1,,
59de02265de9b000017ec12e,2023-06-16_10h13.03.099,phx_ver10,2022.2.5,Win32,59.21714929,,,,,,,,,,,,99,testing_3,sh2x,a,sh2x_a,sh2x_1_asha.wav,sh2x_8_axa.wav,,FALSE,FALSE,,,,,,,,,,,,,,j,0.2778,space,0.7677,,,,,,,,0,77,77,98,1,,
59de02265de9b000017ec12e,2023-06-16_10h13.03.099,phx_ver10,2022.2.5,Win32,59.21714929,,,,,,,,,,,,78,testing_3,j2x,ai,j2x_ai,j2x_8_aixai.wav,j2x_8_aixai.wav,,TRUE,FALSE,,,,,,,,,,,,,,f,0.4421,space,1.0224,,,,,,,,0,78,78,77,1,,
59de02265de9b000017ec12e,2023-06-16_10h13.03.099,phx_ver10,2022.2.5,Win32,59.21714929,,,,,,,,,,,,54,testing_3,zh2j,ai,zh2j_ai,zh2j_8_aijai.wav,zh2j_8_aijai.wav,,TRUE,FALSE,,,,,,,,,,,,,,f,0.4219,space,0.8385,,,,,,,,0,79,79,53,1,,
59de02265de9b000017ec12e,2023-06-16_10h13.03.099,phx_ver10,2022.2.5,Win32,59.21714929,,,,,,,,,,,,39,testing_3,zh2sh,e,zh2sh_e,zh2sh_1_ezhe.wav,zh2sh_8_eshe.wav,,FALSE,FALSE,,,,,,,,,,,,,,f,0.9387,space,1.4372,,,,,,,,0,80,80,38,1,,
59de02265de9b000017ec12e,2023-06-16_10h13.03.099,phx_ver10,2022.2.5,Win32,59.21714929,,,,,,,,,,,,95,testing_3,j2x,i,j2x_i,j2x_1_iji.wav,j2x_8_ixi.wav,,FALSE,FALSE,,,,,,,,,,,,,,j,0.3962,space,0.8802,,,,,,,,0,81,81,94,1,,
59de02265de9b000017ec12e,2023-06-16_10h13.03.099,phx_ver10,2022.2.5,Win32,59.21714929,,,,,,,,,,,,3,testing_1,zh2x,a,zh2x_a,zh2x_1_azha.wav,zh2x_8_axa.wav,,FALSE,TRUE,,,,,,,,,,,,,,j,0.416,space,0.7686,,,,,,,,0,82,82,2,1,,
59de02265de9b000017ec12e,2023-06-16_10h13.03.099,phx_ver10,2022.2.5,Win32,59.21714929,,,,,,,,,,,,83,testing_3,j2x,au,j2x_au,j2x_1_aujau.wav,j2x_8_auxau.wav,,FALSE,FALSE,,,,,,,,,,,,,,j,0.3988,space,0.782,,,,,,,,0,83,83,82,1,,
59de02265de9b000017ec12e,2023-06-16_10h13.03.099,phx_ver10,2022.2.5,Win32,59.21714929,,,,,,,,,,,,63,testing_3,zh2j,e,zh2j_e,zh2j_1_ezhe.wav,zh2j_8_eje.wav,,FALSE,FALSE,,,,,,,,,,,,,,f,0.0831,space,0.4791,,,,,,,,0,84,84,62,1,,
59de02265de9b000017ec12e,2023-06-16_10h13.03.099,phx_ver10,2022.2.5,Win32,59.21714929,,,,,,,,,,,,118,testing_3,sh2x,i,sh2x_i,sh2x_8_ixi.wav,sh2x_8_ixi.wav,,TRUE,FALSE,,,,,,,,,,,,,,f,0.1299,space,0.6155,,,,,,,,0,85,85,117,1,,
59de02265de9b000017ec12e,2023-06-16_10h13.03.099,phx_ver10,2022.2.5,Win32,59.21714929,,,,,,,,,,,,37,testing_3,zh2sh,e,zh2sh_e,zh2sh_1_ezhe.wav,zh2sh_1_ezhe.wav,,TRUE,FALSE,,,,,,,,,,,,,,f,0.4798,space,0.9408,,,,,,,,0,86,86,36,1,,
59de02265de9b000017ec12e,2023-06-16_10h13.03.099,phx_ver10,2022.2.5,Win32,59.21714929,,,,,,,,,,,,26,testing_3,zh2sh,a,zh2sh_a,zh2sh_8_asha.wav,zh2sh_8_asha.wav,,TRUE,FALSE,,,,,,,,,,,,,,f,0.4012,space,0.9788,,,,,,,,0,87,87,25,1,,
59de02265de9b000017ec12e,2023-06-16_10h13.03.099,phx_ver10,2022.2.5,Win32,59.21714929,,,,,,,,,,,,143,testing_3,sh2j,i,sh2j_i,sh2j_1_ishi.wav,sh2j_8_iji.wav,,FALSE,FALSE,,,,,,,,,,,,,,f,0.71,space,1.4203,,,,,,,,0,88,88,142,1,,
59de02265de9b000017ec12e,2023-06-16_10h13.03.099,phx_ver10,2022.2.5,Win32,59.21714929,,,,,,,,,,,,30,testing_3,zh2sh,ai,zh2sh_ai,zh2sh_8_aishai.wav,zh2sh_8_aishai.wav,,TRUE,FALSE,,,,,,,,,,,,,,f,0.0006,space,0.6821,,,,,,,,0,89,89,29,1,,
59de02265de9b000017ec12e,2023-06-16_10h13.03.099,phx_ver10,2022.2.5,Win32,59.21714929,,,,,,,,,,,,34,testing_3,zh2sh,au,zh2sh_au,zh2sh_8_aushau.wav,zh2sh_8_aushau.wav,,TRUE,FALSE,,,,,,,,,,,,,,f,0.0722,space,0.7385,,,,,,,,0,90,90,33,1,,
59de02265de9b000017ec12e,2023-06-16_10h13.03.099,phx_ver10,2022.2.5,Win32,59.21714929,,,,,,,,,,,,79,testing_3,j2x,ai,j2x_ai,j2x_1_aijai.wav,j2x_8_aixai.wav,,FALSE,FALSE,,,,,,,,,,,,,,j,0.5452,space,0.995,,,,,,,,0,91,91,78,1,,
59de02265de9b000017ec12e,2023-06-16_10h13.03.099,phx_ver10,2022.2.5,Win32,59.21714929,,,,,,,,,,,,92,testing_3,j2x,ei,j2x_ei,j2x_8_eixei.wav,j2x_1_eijei.wav,,FALSE,FALSE,,,,,,,,,,,,,,f,2.7462,space,3.4176,,,,,,,,0,92,92,91,1,,
59de02265de9b000017ec12e,2023-06-16_10h13.03.099,phx_ver10,2022.2.5,Win32,59.21714929,,,,,,,,,,,,53,testing_3,zh2j,ai,zh2j_ai,zh2j_1_aizhai.wav,zh2j_1_aizhai.wav,,TRUE,FALSE,,,,,,,,,,,,,,f,0.8042,space,1.234,,,,,,,,0,93,93,52,1,,
59de02265de9b000017ec12e,2023-06-16_10h13.03.099,phx_ver10,2022.2.5,Win32,59.21714929,,,,,,,,,,,,82,testing_3,j2x,au,j2x_au,j2x_8_auxau.wav,j2x_8_auxau.wav,,TRUE,FALSE,,,,,,,,,,,,,,f,0.149,space,0.8158,,,,,,,,0,94,94,81,1,,
59de02265de9b000017ec12e,2023-06-16_10h13.03.099,phx_ver10,2022.2.5,Win32,59.21714929,,,,,,,,,,,,129,testing_3,sh2j,au,sh2j_au,sh2j_1_aushau.wav,sh2j_1_aushau.wav,,TRUE,FALSE,,,,,,,,,,,,,,f,0.6855,space,1.1822,,,,,,,,0,95,95,128,1,,
59de02265de9b000017ec12e,2023-06-16_10h13.03.099,phx_ver10,2022.2.5,Win32,59.21714929,,,,,,,,,,,,20,testing_2,zh2x,au,zh2x_au,zh2x_8_auxau.wav,zh2x_1_auzhau.wav,,FALSE,FALSE,,,,,,,,,,,,,,j,0.8819,space,1.5328,,,,,,,,0,96,96,19,1,,
59de02265de9b000017ec12e,2023-06-16_10h13.03.099,phx_ver10,2022.2.5,Win32,59.21714929,,,,,,,,,,,,73,testing_3,j2x,a,j2x_a,j2x_1_aja.wav,j2x_1_aja.wav,,TRUE,FALSE,,,,,,,,,,,,,,f,0.3013,space,1.1137,,,,,,,,0,97,97,72,1,,
59de02265de9b000017ec12e,2023-06-16_10h13.03.099,phx_ver10,2022.2.5,Win32,59.21714929,,,,,,,,,,,,68,testing_3,zh2j,ei,zh2j_ei,zh2j_8_eijei.wav,zh2j_1_eizhei.wav,,FALSE,FALSE,,,,,,,,,,,,,,f,0.6343,space,1.1171,,,,,,,,0,98,98,67,1,,
59de02265de9b000017ec12e,2023-06-16_10h13.03.099,phx_ver10,2022.2.5,Win32,59.21714929,,,,,,,,,,,,36,testing_3,zh2sh,au,zh2sh_au,zh2sh_8_aushau.wav,zh2sh_1_auzhau.wav,,FALSE,FALSE,,,,,,,,,,,,,,f,20.8857,space,21.5388,,,,,,,,0,99,99,35,1,,
59de02265de9b000017ec12e,2023-06-16_10h13.03.099,phx_ver10,2022.2.5,Win32,59.21714929,,,,,,,,,,,,113,testing_3,sh2x,ei,sh2x_ei,sh2x_1_eishei.wav,sh2x_1_eishei.wav,,TRUE,FALSE,,,,,,,,,,,,,,f,0.1009,space,0.5329,,,,,,,,0,100,100,112,1,,
59de02265de9b000017ec12e,2023-06-16_10h13.03.099,phx_ver10,2022.2.5,Win32,59.21714929,,,,,,,,,,,,67,testing_3,zh2j,ei,zh2j_ei,zh2j_1_eizhei.wav,zh2j_8_eijei.wav,,FALSE,FALSE,,,,,,,,,,,,,,f,0.7007,space,1.1325,,,,,,,,0,101,101,66,1,,
59de02265de9b000017ec12e,2023-06-16_10h13.03.099,phx_ver10,2022.2.5,Win32,59.21714929,,,,,,,,,,,,11,testing_1,zh2x,i,zh2x_i,zh2x_1_izhi.wav,zh2x_8_ixi.wav,,FALSE,TRUE,,,,,,,,,,,,,,j,0.8654,space,1.4958,,,,,,,,0,102,102,10,1,,
59de02265de9b000017ec12e,2023-06-16_10h13.03.099,phx_ver10,2022.2.5,Win32,59.21714929,,,,,,,,,,,,56,testing_3,zh2j,ai,zh2j_ai,zh2j_8_aijai.wav,zh2j_1_aizhai.wav,,FALSE,FALSE,,,,,,,,,,,,,,f,0.1292,space,0.6494,,,,,,,,0,103,103,55,1,,
59de02265de9b000017ec12e,2023-06-16_10h13.03.099,phx_ver10,2022.2.5,Win32,59.21714929,,,,,,,,,,,,15,testing_2,zh2x,ai,zh2x_ai,zh2x_1_aizhai.wav,zh2x_8_aixai.wav,,FALSE,FALSE,,,,,,,,,,,,,,f,0.2327,space,0.8319,,,,,,,,0,104,104,14,1,,
59de02265de9b000017ec12e,2023-06-16_10h13.03.099,phx_ver10,2022.2.5,Win32,59.21714929,,,,,,,,,,,,45,testing_3,zh2sh,i,zh2sh_i,zh2sh_1_izhi.wav,zh2sh_1_izhi.wav,,TRUE,FALSE,,,,,,,,,,,,,,f,0.5787,space,1.0779,,,,,,,,0,105,105,44,1,,
59de02265de9b000017ec12e,2023-06-16_10h13.03.099,phx_ver10,2022.2.5,Win32,59.21714929,,,,,,,,,,,,140,testing_3,sh2j,ei,sh2j_ei,sh2j_8_eijei.wav,sh2j_1_eishei.wav,,FALSE,FALSE,,,,,,,,,,,,,,f,0.0616,space,0.6674,,,,,,,,0,106,106,139,1,,
59de02265de9b000017ec12e,2023-06-16_10h13.03.099,phx_ver10,2022.2.5,Win32,59.21714929,,,,,,,,,,,,62,testing_3,zh2j,e,zh2j_e,zh2j_8_eje.wav,zh2j_8_eje.wav,,TRUE,FALSE,,,,,,,,,,,,,,f,0.0994,space,0.7339,,,,,,,,0,107,107,61,1,,
59de02265de9b000017ec12e,2023-06-16_10h13.03.099,phx_ver10,2022.2.5,Win32,59.21714929,,,,,,,,,,,,61,testing_3,zh2j,e,zh2j_e,zh2j_1_ezhe.wav,zh2j_1_ezhe.wav,,TRUE,FALSE,,,,,,,,,,,,,,f,0.2354,space,0.7713,,,,,,,,0,108,108,60,1,,
59de02265de9b000017ec12e,2023-06-16_10h13.03.099,phx_ver10,2022.2.5,Win32,59.21714929,,,,,,,,,,,,2,testing_1,zh2x,a,zh2x_a,zh2x_8_axa.wav,zh2x_8_axa_copy.wav,,TRUE,TRUE,,,,,,,,,,,,,,f,0.0422,space,0.6505,,,,,,,,0,109,109,1,1,,
59de02265de9b000017ec12e,2023-06-16_10h13.03.099,phx_ver10,2022.2.5,Win32,59.21714929,,,,,,,,,,,,66,testing_3,zh2j,ei,zh2j_ei,zh2j_8_eijei.wav,zh2j_8_eijei.wav,,TRUE,FALSE,,,,,,,,,,,,,,f,0.4613,space,1.0839,,,,,,,,0,110,110,65,1,,
59de02265de9b000017ec12e,2023-06-16_10h13.03.099,phx_ver10,2022.2.5,Win32,59.21714929,,,,,,,,,,,,72,testing_3,zh2j,i,zh2j_i,zh2j_8_iji.wav,zh2j_1_izhi.wav,,FALSE,FALSE,,,,,,,,,,,,,,f,7.7309,space,8.3836,,,,,,,,0,111,111,71,1,,
59de02265de9b000017ec12e,2023-06-16_10h13.03.099,phx_ver10,2022.2.5,Win32,59.21714929,,,,,,,,,,,,108,testing_3,sh2x,au,sh2x_au,sh2x_8_auxau.wav,sh2x_1_aushau.wav,,FALSE,FALSE,,,,,,,,,,,,,,f,0.0166,space,0.6513,,,,,,,,0,112,112,107,1,,
59de02265de9b000017ec12e,2023-06-16_10h13.03.099,phx_ver10,2022.2.5,Win32,59.21714929,,,,,,,,,,,,9,testing_1,zh2x,i,zh2x_i,zh2x_1_izhi.wav,zh2x_1_izhi_copy.wav,,TRUE,TRUE,,,,,,,,,,,,,,f,0.4153,space,0.9508,,,,,,,,0,113,113,8,1,,
59de02265de9b000017ec12e,2023-06-16_10h13.03.099,phx_ver10,2022.2.5,Win32,59.21714929,,,,,,,,,,,,127,testing_3,sh2j,ai,sh2j_ai,sh2j_1_aishai.wav,sh2j_8_aijai.wav,,FALSE,FALSE,,,,,,,,,,,,,,f,0.2028,space,0.9904,,,,,,,,0,114,114,126,1,,
59de02265de9b000017ec12e,2023-06-16_10h13.03.099,phx_ver10,2022.2.5,Win32,59.21714929,,,,,,,,,,,,14,testing_2,zh2x,ai,zh2x_ai,zh2x_8_aixai.wav,zh2x_8_aixai.wav,,TRUE,FALSE,,,,,,,,,,,,,,f,0.4297,space,0.9352,,,,,,,,0,115,115,13,1,,
59de02265de9b000017ec12e,2023-06-16_10h13.03.099,phx_ver10,2022.2.5,Win32,59.21714929,,,,,,,,,,,,35,testing_3,zh2sh,au,zh2sh_au,zh2sh_1_auzhau.wav,zh2sh_8_aushau.wav,,FALSE,FALSE,,,,,,,,,,,,,,f,0.8532,space,1.684,,,,,,,,0,116,116,34,1,,
59de02265de9b000017ec12e,2023-06-16_10h13.03.099,phx_ver10,2022.2.5,Win32,59.21714929,,,,,,,,,,,,123,testing_3,sh2j,a,sh2j_a,sh2j_1_asha.wav,sh2j_8_aja.wav,,FALSE,FALSE,,,,,,,,,,,,,,j,1.0038,space,1.4775,,,,,,,,0,117,117,122,1,,
59de02265de9b000017ec12e,2023-06-16_10h13.03.099,phx_ver10,2022.2.5,Win32,59.21714929,,,,,,,,,,,,102,testing_3,sh2x,ai,sh2x_ai,sh2x_8_aixai.wav,sh2x_8_aixai.wav,,TRUE,FALSE,,,,,,,,,,,,,,f,0.2089,space,0.8855,,,,,,,,0,118,118,101,1,,
59de02265de9b000017ec12e,2023-06-16_10h13.03.099,phx_ver10,2022.2.5,Win32,59.21714929,,,,,,,,,,,,139,testing_3,sh2j,ei,sh2j_ei,sh2j_1_eishei.wav,sh2j_8_eijei.wav,,FALSE,FALSE,,,,,,,,,,,,,,f,0.2841,space,0.9708,,,,,,,,0,119,119,138,1,,
59de02265de9b000017ec12e,2023-06-16_10h13.03.099,phx_ver10,2022.2.5,Win32,59.21714929,,,,,,,,,,,,132,testing_3,sh2j,au,sh2j_au,sh2j_8_aujau.wav,sh2j_1_aushau.wav,,FALSE,FALSE,,,,,,,,,,,,,,f,0.3179,space,0.9678,,,,,,,,0,120,120,131,1,,
59de02265de9b000017ec12e,2023-06-16_10h13.03.099,phx_ver10,2022.2.5,Win32,59.21714929,,,,,,,,,,,,71,testing_3,zh2j,i,zh2j_i,zh2j_1_izhi.wav,zh2j_8_iji.wav,,FALSE,FALSE,,,,,,,,,,,,,,f,0.7712,space,1.3185,,,,,,,,0,121,121,70,1,,
59de02265de9b000017ec12e,2023-06-16_10h13.03.099,phx_ver10,2022.2.5,Win32,59.21714929,,,,,,,,,,,,144,testing_3,sh2j,i,sh2j_i,sh2j_8_iji.wav,sh2j_1_ishi.wav,,FALSE,FALSE,,,,,,,,,,,,,,j,0.9417,space,1.3718,,,,,,,,0,122,122,143,1,,
59de02265de9b000017ec12e,2023-06-16_10h13.03.099,phx_ver10,2022.2.5,Win32,59.21714929,,,,,,,,,,,,32,testing_3,zh2sh,ai,zh2sh_ai,zh2sh_8_aishai.wav,zh2sh_1_aizhai.wav,,FALSE,FALSE,,,,,,,,,,,,,,f,0.8191,space,1.1904,,,,,,,,0,123,123,31,1,,
59de02265de9b000017ec12e,2023-06-16_10h13.03.099,phx_ver10,2022.2.5,Win32,59.21714929,,,,,,,,,,,,101,testing_3,sh2x,ai,sh2x_ai,sh2x_1_aishai.wav,sh2x_1_aishai.wav,,TRUE,FALSE,,,,,,,,,,,,,,f,0.1528,space,0.6637,,,,,,,,0,124,124,100,1,,
59de02265de9b000017ec12e,2023-06-16_10h13.03.099,phx_ver10,2022.2.5,Win32,59.21714929,,,,,,,,,,,,116,testing_3,sh2x,ei,sh2x_ei,sh2x_8_eixei.wav,sh2x_1_eishei.wav,,FALSE,FALSE,,,,,,,,,,,,,,f,0.0765,space,0.6623,,,,,,,,0,125,125,115,1,,
59de02265de9b000017ec12e,2023-06-16_10h13.03.099,phx_ver10,2022.2.5,Win32,59.21714929,,,,,,,,,,,,100,testing_3,sh2x,a,sh2x_a,sh2x_8_axa.wav,sh2x_1_asha.wav,,FALSE,FALSE,,,,,,,,,,,,,,f,8.2668,space,8.8359,,,,,,,,0,126,126,99,1,,
59de02265de9b000017ec12e,2023-06-16_10h13.03.099,phx_ver10,2022.2.5,Win32,59.21714929,,,,,,,,,,,,51,testing_3,zh2j,a,zh2j_a,zh2j_1_azha.wav,zh2j_8_aja.wav,,FALSE,FALSE,,,,,,,,,,,,,,f,0.3602,space,0.9407,,,,,,,,0,127,127,50,1,,
59de02265de9b000017ec12e,2023-06-16_10h13.03.099,phx_ver10,2022.2.5,Win32,59.21714929,,,,,,,,,,,,43,testing_3,zh2sh,ei,zh2sh_ei,zh2sh_1_eizhei.wav,zh2sh_8_eishei.wav,,FALSE,FALSE,,,,,,,,,,,,,,j,1.02,space,1.5073,,,,,,,,0,128,128,42,1,,
59de02265de9b000017ec12e,2023-06-16_10h13.03.099,phx_ver10,2022.2.5,Win32,59.21714929,,,,,,,,,,,,13,testing_2,zh2x,ai,zh2x_ai,zh2x_1_aizhai.wav,zh2x_1_aizhai.wav,,TRUE,FALSE,,,,,,,,,,,,,,f,0.0501,space,0.4656,,,,,,,,0,129,129,12,1,,
59de02265de9b000017ec12e,2023-06-16_10h13.03.099,phx_ver10,2022.2.5,Win32,59.21714929,,,,,,,,,,,,115,testing_3,sh2x,ei,sh2x_ei,sh2x_1_eishei.wav,sh2x_8_eixei.wav,,FALSE,FALSE,,,,,,,,,,,,,,f,0.9806,space,1.4855,,,,,,,,0,130,130,114,1,,
59de02265de9b000017ec12e,2023-06-16_10h13.03.099,phx_ver10,2022.2.5,Win32,59.21714929,,,,,,,,,,,,117,testing_3,sh2x,i,sh2x_i,sh2x_1_ishi.wav,sh2x_1_ishi.wav,,TRUE,FALSE,,,,,,,,,,,,,,f,0.4016,space,0.9009,,,,,,,,0,131,131,116,1,,
59de02265de9b000017ec12e,2023-06-16_10h13.03.099,phx_ver10,2022.2.5,Win32,59.21714929,,,,,,,,,,,,69,testing_3,zh2j,i,zh2j_i,zh2j_1_izhi.wav,zh2j_1_izhi.wav,,TRUE,FALSE,,,,,,,,,,,,,,f,1.9682,space,2.5321,,,,,,,,0,132,132,68,1,,
59de02265de9b000017ec12e,2023-06-16_10h13.03.099,phx_ver10,2022.2.5,Win32,59.21714929,,,,,,,,,,,,48,testing_3,zh2sh,i,zh2sh_i,zh2sh_8_ishi.wav,zh2sh_1_izhi.wav,,FALSE,FALSE,,,,,,,,,,,,,,j,0.9617,space,1.3042,,,,,,,,0,133,133,47,1,,
59de02265de9b000017ec12e,2023-06-16_10h13.03.099,phx_ver10,2022.2.5,Win32,59.21714929,,,,,,,,,,,,124,testing_3,sh2j,a,sh2j_a,sh2j_8_aja.wav,sh2j_1_asha.wav,,FALSE,FALSE,,,,,,,,,,,,,,j,2.6665,space,3.0669,,,,,,,,0,134,134,123,1,,
59de02265de9b000017ec12e,2023-06-16_10h13.03.099,phx_ver10,2022.2.5,Win32,59.21714929,,,,,,,,,,,,98,testing_3,sh2x,a,sh2x_a,sh2x_8_axa.wav,sh2x_8_axa.wav,,TRUE,FALSE,,,,,,,,,,,,,,f,0.3678,space,0.7524,,,,,,,,0,135,135,97,1,,
59de02265de9b000017ec12e,2023-06-16_10h13.03.099,phx_ver10,2022.2.5,Win32,59.21714929,,,,,,,,,,,,7,testing_1,zh2x,e,zh2x_e,zh2x_1_ezhe.wav,zh2x_8_exe.wav,,FALSE,TRUE,,,,,,,,,,,,,,f,0.8476,space,1.5996,,,,,,,,0,136,136,6,1,,
59de02265de9b000017ec12e,2023-06-16_10h13.03.099,phx_ver10,2022.2.5,Win32,59.21714929,,,,,,,,,,,,126,testing_3,sh2j,ai,sh2j_ai,sh2j_8_aijai.wav,sh2j_8_aijai.wav,,TRUE,FALSE,,,,,,,,,,,,,,f,0.8295,space,1.5112,,,,,,,,0,137,137,125,1,,
59de02265de9b000017ec12e,2023-06-16_10h13.03.099,phx_ver10,2022.2.5,Win32,59.21714929,,,,,,,,,,,,5,testing_1,zh2x,e,zh2x_e,zh2x_1_ezhe.wav,zh2x_1_ezhe_copy.wav,,TRUE,TRUE,,,,,,,,,,,,,,f,0.5161,space,1.1635,,,,,,,,0,138,138,4,1,,
59de02265de9b000017ec12e,2023-06-16_10h13.03.099,phx_ver10,2022.2.5,Win32,59.21714929,,,,,,,,,,,,135,testing_3,sh2j,e,sh2j_e,sh2j_1_eshe.wav,sh2j_8_eje.wav,,FALSE,FALSE,,,,,,,,,,,,,,j,0.7518,space,1.2129,,,,,,,,0,139,139,134,1,,
59de02265de9b000017ec12e,2023-06-16_10h13.03.099,phx_ver10,2022.2.5,Win32,59.21714929,,,,,,,,,,,,60,testing_3,zh2j,au,zh2j_au,zh2j_8_aujau.wav,zh2j_1_auzhau.wav,,FALSE,FALSE,,,,,,,,,,,,,,f,0.4185,space,0.986,,,,,,,,0,140,140,59,1,,
59de02265de9b000017ec12e,2023-06-16_10h13.03.099,phx_ver10,2022.2.5,Win32,59.21714929,,,,,,,,,,,,131,testing_3,sh2j,au,sh2j_au,sh2j_1_aushau.wav,sh2j_8_aujau.wav,,FALSE,FALSE,,,,,,,,,,,,,,f,0.7147,space,1.1886,,,,,,,,0,141,141,130,1,,
59de02265de9b000017ec12e,2023-06-16_10h13.03.099,phx_ver10,2022.2.5,Win32,59.21714929,,,,,,,,,,,,80,testing_3,j2x,ai,j2x_ai,j2x_8_aixai.wav,j2x_1_aijai.wav,,FALSE,FALSE,,,,,,,,,,,,,,f,0.234,space,1.0011,,,,,,,,0,142,142,79,1,,
59de02265de9b000017ec12e,2023-06-16_10h13.03.099,phx_ver10,2022.2.5,Win32,59.21714929,,,,,,,,,,,,121,testing_3,sh2j,a,sh2j_a,sh2j_1_asha.wav,sh2j_1_asha.wav,,TRUE,FALSE,,,,,,,,,,,,,,f,0.5224,space,1.1226,,,,,,,,0,143,143,120,1,,
59de02265de9b000017ec12e,2023-06-16_10h13.03.099,phx_ver10,2022.2.5,Win32,59.21714929,,,,,,,,,,,,,,,,,,,,,,,,,,,,,,,,,,,,,,,,,,,,,,,,,,,space,2.3595
