participant,date,expName,psychopyVersion,OS,frameRate,space_1.keys,space_1.rt,space_2.keys,space_2.rt,space_train.keys,space_train.rt,training.thisRepN,training.thisTrialN,training.thisN,training.thisIndex,training.ran,token_id,task,continuum,vowel,series,sound_1,sound_2,img,same,trained,FJ_attn.keys,FJ_attn.rt,space_attn.keys,space_attn.rt,if_attn_test.thisRepN,if_attn_test.thisTrialN,if_attn_test.thisN,if_attn_test.thisIndex,if_attn_test.ran,space_trans_1.keys,space_trans_1.rt,space_trans_11.keys,space_trans_11.rt,FJ_test.keys,FJ_test.rt,space_test.keys,space_test.rt,testing_pre.thisRepN,testing_pre.thisTrialN,testing_pre.thisN,testing_pre.thisIndex,testing_pre.ran,space_trans_2.keys,space_trans_2.rt,testing_all.thisRepN,testing_all.thisTrialN,testing_all.thisN,testing_all.thisIndex,testing_all.ran,space_ending.keys,space_ending.rt
59e675a6c0d35a00012951ce,2023-06-16_10h30.48.571,phx_ver10,2022.2.5,Linux x86_64,60.06006006,,,,,,,,,,,,,,,,,,,,,,,,,,,,,,,,,,,,,,,,,,,,,,,,,,,,
59e675a6c0d35a00012951ce,2023-06-16_10h30.48.571,phx_ver10,2022.2.5,Linux x86_64,60.06006006,space,6.1176,,,,,,,,,,,,,,,,,,,,,,,,,,,,,,,,,,,,,,,,,,,,,,,,,,
59e675a6c0d35a00012951ce,2023-06-16_10h30.48.571,phx_ver10,2022.2.5,Linux x86_64,60.06006006,,,space,1.0938,,,,,,,,,,,,,,,,,,,,,,,,,,,,,,,,,,,,,,,,,,,,,,,,
59e675a6c0d35a00012951ce,2023-06-16_10h30.48.571,phx_ver10,2022.2.5,Linux x86_64,60.06006006,,,,,space,1.2521,0,0,0,12,1,13,training,zh2x,a,zh2x_a,zh2x_7_axa.wav,,axa.jpg,,,,,,,,,,,,,,,,,,,,,,,,,,,,,,,,,
59e675a6c0d35a00012951ce,2023-06-16_10h30.48.571,phx_ver10,2022.2.5,Linux x86_64,60.06006006,,,,,space,1.1352,0,1,1,8,1,9,training,zh2x,a,zh2x_a,zh2x_5_axa.wav,,axa.jpg,,,,,,,,,,,,,,,,,,,,,,,,,,,,,,,,,
59e675a6c0d35a00012951ce,2023-06-16_10h30.48.571,phx_ver10,2022.2.5,Linux x86_64,60.06006006,,,,,space,1.1368,0,2,2,9,1,10,training,zh2x,a,zh2x_a,zh2x_6_axa.wav,,axa.jpg,,,,,,,,,,,,,,,,,,,,,,,,,,,,,,,,,
59e675a6c0d35a00012951ce,2023-06-16_10h30.48.571,phx_ver10,2022.2.5,Linux x86_64,60.06006006,,,,,space,1.9163,0,3,3,22,1,23,training,zh2x,e,zh2x_e,zh2x_3_ezhe.wav,,ezhe.jpg,,,,,,,,,,,,,,,,,,,,,,,,,,,,,,,,,
59e675a6c0d35a00012951ce,2023-06-16_10h30.48.571,phx_ver10,2022.2.5,Linux x86_64,60.06006006,,,,,space,2.0827,0,4,4,42,1,43,training,zh2x,i,zh2x_i,zh2x_6_ixi.wav,,ixi.jpg,,,,,,,,,,,,,,,,,,,,,,,,,,,,,,,,,
59e675a6c0d35a00012951ce,2023-06-16_10h30.48.571,phx_ver10,2022.2.5,Linux x86_64,60.06006006,,,,,space,1.0852,0,5,5,17,1,18,training,zh2x,e,zh2x_e,zh2x_2_ezhe.wav,,ezhe.jpg,,,,,,,,,,,,,,,,,,,,,,,,,,,,,,,,,
59e675a6c0d35a00012951ce,2023-06-16_10h30.48.571,phx_ver10,2022.2.5,Linux x86_64,60.06006006,,,,,,,,,,,,,attn_test,,,,zh2x_8_axa.wav,zh2x_8_ixi.wav,axa.jpg,LEFT,,f,0.861,space,2.6767,0,0,0,0,1,,,,,,,,,,,,,,,,,,,,,,
59e675a6c0d35a00012951ce,2023-06-16_10h30.48.571,phx_ver10,2022.2.5,Linux x86_64,60.06006006,,,,,space,1.6108,0,6,6,11,1,12,training,zh2x,a,zh2x_a,zh2x_7_axa.wav,,axa.jpg,,,,,,,,,,,,,,,,,,,,,,,,,,,,,,,,,
59e675a6c0d35a00012951ce,2023-06-16_10h30.48.571,phx_ver10,2022.2.5,Linux x86_64,60.06006006,,,,,space,1.2037,0,7,7,21,1,22,training,zh2x,e,zh2x_e,zh2x_3_ezhe.wav,,ezhe.jpg,,,,,,,,,,,,,,,,,,,,,,,,,,,,,,,,,
59e675a6c0d35a00012951ce,2023-06-16_10h30.48.571,phx_ver10,2022.2.5,Linux x86_64,60.06006006,,,,,space,0.9762,0,8,8,7,1,8,training,zh2x,a,zh2x_a,zh2x_4_azha.wav,,azha.jpg,,,,,,,,,,,,,,,,,,,,,,,,,,,,,,,,,
59e675a6c0d35a00012951ce,2023-06-16_10h30.48.571,phx_ver10,2022.2.5,Linux x86_64,60.06006006,,,,,space,0.1047,0,9,9,5,1,6,training,zh2x,a,zh2x_a,zh2x_3_azha.wav,,azha.jpg,,,,,,,,,,,,,,,,,,,,,,,,,,,,,,,,,
59e675a6c0d35a00012951ce,2023-06-16_10h30.48.571,phx_ver10,2022.2.5,Linux x86_64,60.06006006,,,,,space,0.6655,0,10,10,41,1,42,training,zh2x,i,zh2x_i,zh2x_6_ixi.wav,,ixi.jpg,,,,,,,,,,,,,,,,,,,,,,,,,,,,,,,,,
59e675a6c0d35a00012951ce,2023-06-16_10h30.48.571,phx_ver10,2022.2.5,Linux x86_64,60.06006006,,,,,space,0.7968,0,11,11,39,1,40,training,zh2x,i,zh2x_i,zh2x_4_izhi.wav,,izhi.jpg,,,,,,,,,,,,,,,,,,,,,,,,,,,,,,,,,
59e675a6c0d35a00012951ce,2023-06-16_10h30.48.571,phx_ver10,2022.2.5,Linux x86_64,60.06006006,,,,,,,,,,,,,attn_test,,,,zh2x_1_ezhe.wav,zh2x_8_exe.wav,ezhe.jpg,LEFT,,j,1.1493,space,2.617,0,0,0,0,1,,,,,,,,,,,,,,,,,,,,,,
59e675a6c0d35a00012951ce,2023-06-16_10h30.48.571,phx_ver10,2022.2.5,Linux x86_64,60.06006006,,,,,space,1.2825,0,12,12,34,1,35,training,zh2x,i,zh2x_i,zh2x_2_izhi.wav,,izhi.jpg,,,,,,,,,,,,,,,,,,,,,,,,,,,,,,,,,
59e675a6c0d35a00012951ce,2023-06-16_10h30.48.571,phx_ver10,2022.2.5,Linux x86_64,60.06006006,,,,,space,0.9696,0,13,13,18,1,19,training,zh2x,e,zh2x_e,zh2x_2_ezhe.wav,,ezhe.jpg,,,,,,,,,,,,,,,,,,,,,,,,,,,,,,,,,
59e675a6c0d35a00012951ce,2023-06-16_10h30.48.571,phx_ver10,2022.2.5,Linux x86_64,60.06006006,,,,,space,0.3273,0,14,14,36,1,37,training,zh2x,i,zh2x_i,zh2x_2_izhi.wav,,izhi.jpg,,,,,,,,,,,,,,,,,,,,,,,,,,,,,,,,,
59e675a6c0d35a00012951ce,2023-06-16_10h30.48.571,phx_ver10,2022.2.5,Linux x86_64,60.06006006,,,,,space,1.5674,0,15,15,33,1,34,training,zh2x,i,zh2x_i,zh2x_2_izhi.wav,,izhi.jpg,,,,,,,,,,,,,,,,,,,,,,,,,,,,,,,,,
59e675a6c0d35a00012951ce,2023-06-16_10h30.48.571,phx_ver10,2022.2.5,Linux x86_64,60.06006006,,,,,space,0.4211,0,16,16,13,1,14,training,zh2x,a,zh2x_a,zh2x_7_axa.wav,,axa.jpg,,,,,,,,,,,,,,,,,,,,,,,,,,,,,,,,,
59e675a6c0d35a00012951ce,2023-06-16_10h30.48.571,phx_ver10,2022.2.5,Linux x86_64,60.06006006,,,,,space,0.1133,0,17,17,10,1,11,training,zh2x,a,zh2x_a,zh2x_6_axa.wav,,axa.jpg,,,,,,,,,,,,,,,,,,,,,,,,,,,,,,,,,
59e675a6c0d35a00012951ce,2023-06-16_10h30.48.571,phx_ver10,2022.2.5,Linux x86_64,60.06006006,,,,,,,,,,,,,attn_test,,,,zh2x_8_axa.wav,zh2x_1_ezhe.wav,axa.jpg,LEFT,,f,1.7947,space,2.4902,0,0,0,0,1,,,,,,,,,,,,,,,,,,,,,,
59e675a6c0d35a00012951ce,2023-06-16_10h30.48.571,phx_ver10,2022.2.5,Linux x86_64,60.06006006,,,,,space,0.9788,0,18,18,23,1,24,training,zh2x,e,zh2x_e,zh2x_4_ezhe.wav,,ezhe.jpg,,,,,,,,,,,,,,,,,,,,,,,,,,,,,,,,,
59e675a6c0d35a00012951ce,2023-06-16_10h30.48.571,phx_ver10,2022.2.5,Linux x86_64,60.06006006,,,,,space,0.8319,0,19,19,4,1,5,training,zh2x,a,zh2x_a,zh2x_2_azha.wav,,azha.jpg,,,,,,,,,,,,,,,,,,,,,,,,,,,,,,,,,
59e675a6c0d35a00012951ce,2023-06-16_10h30.48.571,phx_ver10,2022.2.5,Linux x86_64,60.06006006,,,,,space,0.6155,0,20,20,14,1,15,training,zh2x,a,zh2x_a,zh2x_7_axa.wav,,axa.jpg,,,,,,,,,,,,,,,,,,,,,,,,,,,,,,,,,
59e675a6c0d35a00012951ce,2023-06-16_10h30.48.571,phx_ver10,2022.2.5,Linux x86_64,60.06006006,,,,,space,1.114,0,21,21,2,1,3,training,zh2x,a,zh2x_a,zh2x_2_azha.wav,,azha.jpg,,,,,,,,,,,,,,,,,,,,,,,,,,,,,,,,,
59e675a6c0d35a00012951ce,2023-06-16_10h30.48.571,phx_ver10,2022.2.5,Linux x86_64,60.06006006,,,,,space,0.989,0,22,22,25,1,26,training,zh2x,e,zh2x_e,zh2x_6_exe.wav,,exe.jpg,,,,,,,,,,,,,,,,,,,,,,,,,,,,,,,,,
59e675a6c0d35a00012951ce,2023-06-16_10h30.48.571,phx_ver10,2022.2.5,Linux x86_64,60.06006006,,,,,space,0.2603,0,23,23,27,1,28,training,zh2x,e,zh2x_e,zh2x_7_exe.wav,,exe.jpg,,,,,,,,,,,,,,,,,,,,,,,,,,,,,,,,,
59e675a6c0d35a00012951ce,2023-06-16_10h30.48.571,phx_ver10,2022.2.5,Linux x86_64,60.06006006,,,,,,,,,,,,,attn_test,,,,zh2x_8_exe.wav,zh2x_8_axa.wav,axa.jpg,RIGHT,,j,0.197,space,1.1379,0,0,0,0,1,,,,,,,,,,,,,,,,,,,,,,
59e675a6c0d35a00012951ce,2023-06-16_10h30.48.571,phx_ver10,2022.2.5,Linux x86_64,60.06006006,,,,,space,1.0062,0,24,24,31,1,32,training,zh2x,e,zh2x_e,zh2x_8_exe.wav,,exe.jpg,,,,,,,,,,,,,,,,,,,,,,,,,,,,,,,,,
59e675a6c0d35a00012951ce,2023-06-16_10h30.48.571,phx_ver10,2022.2.5,Linux x86_64,60.06006006,,,,,space,0.7507,0,25,25,47,1,48,training,zh2x,i,zh2x_i,zh2x_8_ixi.wav,,ixi.jpg,,,,,,,,,,,,,,,,,,,,,,,,,,,,,,,,,
59e675a6c0d35a00012951ce,2023-06-16_10h30.48.571,phx_ver10,2022.2.5,Linux x86_64,60.06006006,,,,,space,0.2948,0,26,26,26,1,27,training,zh2x,e,zh2x_e,zh2x_6_exe.wav,,exe.jpg,,,,,,,,,,,,,,,,,,,,,,,,,,,,,,,,,
59e675a6c0d35a00012951ce,2023-06-16_10h30.48.571,phx_ver10,2022.2.5,Linux x86_64,60.06006006,,,,,space,0.425,0,27,27,37,1,38,training,zh2x,i,zh2x_i,zh2x_3_izhi.wav,,izhi.jpg,,,,,,,,,,,,,,,,,,,,,,,,,,,,,,,,,
59e675a6c0d35a00012951ce,2023-06-16_10h30.48.571,phx_ver10,2022.2.5,Linux x86_64,60.06006006,,,,,space,0.7913,0,28,28,16,1,17,training,zh2x,e,zh2x_e,zh2x_1_ezhe.wav,,ezhe.jpg,,,,,,,,,,,,,,,,,,,,,,,,,,,,,,,,,
59e675a6c0d35a00012951ce,2023-06-16_10h30.48.571,phx_ver10,2022.2.5,Linux x86_64,60.06006006,,,,,space,0.0442,0,29,29,19,1,20,training,zh2x,e,zh2x_e,zh2x_2_ezhe.wav,,ezhe.jpg,,,,,,,,,,,,,,,,,,,,,,,,,,,,,,,,,
59e675a6c0d35a00012951ce,2023-06-16_10h30.48.571,phx_ver10,2022.2.5,Linux x86_64,60.06006006,,,,,,,,,,,,,attn_test,,,,zh2x_1_ezhe.wav,zh2x_1_izhi.wav,ezhe.jpg,LEFT,,f,0.069,space,1.0527,0,0,0,0,1,,,,,,,,,,,,,,,,,,,,,,
59e675a6c0d35a00012951ce,2023-06-16_10h30.48.571,phx_ver10,2022.2.5,Linux x86_64,60.06006006,,,,,space,3.9021,0,30,30,28,1,29,training,zh2x,e,zh2x_e,zh2x_7_exe.wav,,exe.jpg,,,,,,,,,,,,,,,,,,,,,,,,,,,,,,,,,
59e675a6c0d35a00012951ce,2023-06-16_10h30.48.571,phx_ver10,2022.2.5,Linux x86_64,60.06006006,,,,,space,0.9031,0,31,31,1,1,2,training,zh2x,a,zh2x_a,zh2x_2_azha.wav,,azha.jpg,,,,,,,,,,,,,,,,,,,,,,,,,,,,,,,,,
59e675a6c0d35a00012951ce,2023-06-16_10h30.48.571,phx_ver10,2022.2.5,Linux x86_64,60.06006006,,,,,space,0.2468,0,32,32,38,1,39,training,zh2x,i,zh2x_i,zh2x_3_izhi.wav,,izhi.jpg,,,,,,,,,,,,,,,,,,,,,,,,,,,,,,,,,
59e675a6c0d35a00012951ce,2023-06-16_10h30.48.571,phx_ver10,2022.2.5,Linux x86_64,60.06006006,,,,,space,1.1685,0,33,33,35,1,36,training,zh2x,i,zh2x_i,zh2x_2_izhi.wav,,izhi.jpg,,,,,,,,,,,,,,,,,,,,,,,,,,,,,,,,,
59e675a6c0d35a00012951ce,2023-06-16_10h30.48.571,phx_ver10,2022.2.5,Linux x86_64,60.06006006,,,,,space,0.3892,0,34,34,45,1,46,training,zh2x,i,zh2x_i,zh2x_7_ixi.wav,,ixi.jpg,,,,,,,,,,,,,,,,,,,,,,,,,,,,,,,,,
59e675a6c0d35a00012951ce,2023-06-16_10h30.48.571,phx_ver10,2022.2.5,Linux x86_64,60.06006006,,,,,space,0.8016,0,35,35,15,1,16,training,zh2x,a,zh2x_a,zh2x_8_axa.wav,,axa.jpg,,,,,,,,,,,,,,,,,,,,,,,,,,,,,,,,,
59e675a6c0d35a00012951ce,2023-06-16_10h30.48.571,phx_ver10,2022.2.5,Linux x86_64,60.06006006,,,,,,,,,,,,,attn_test,,,,zh2x_1_izhi.wav,zh2x_1_ezhe.wav,izhi.jpg,LEFT,,f,0.0562,space,0.772,0,0,0,0,1,,,,,,,,,,,,,,,,,,,,,,
59e675a6c0d35a00012951ce,2023-06-16_10h30.48.571,phx_ver10,2022.2.5,Linux x86_64,60.06006006,,,,,space,1.0517,0,36,36,43,1,44,training,zh2x,i,zh2x_i,zh2x_7_ixi.wav,,ixi.jpg,,,,,,,,,,,,,,,,,,,,,,,,,,,,,,,,,
59e675a6c0d35a00012951ce,2023-06-16_10h30.48.571,phx_ver10,2022.2.5,Linux x86_64,60.06006006,,,,,space,0.4329,0,37,37,29,1,30,training,zh2x,e,zh2x_e,zh2x_7_exe.wav,,exe.jpg,,,,,,,,,,,,,,,,,,,,,,,,,,,,,,,,,
59e675a6c0d35a00012951ce,2023-06-16_10h30.48.571,phx_ver10,2022.2.5,Linux x86_64,60.06006006,,,,,space,0.3091,0,38,38,32,1,33,training,zh2x,i,zh2x_i,zh2x_1_izhi.wav,,izhi.jpg,,,,,,,,,,,,,,,,,,,,,,,,,,,,,,,,,
59e675a6c0d35a00012951ce,2023-06-16_10h30.48.571,phx_ver10,2022.2.5,Linux x86_64,60.06006006,,,,,space,0.0014,0,39,39,46,1,47,training,zh2x,i,zh2x_i,zh2x_7_ixi.wav,,ixi.jpg,,,,,,,,,,,,,,,,,,,,,,,,,,,,,,,,,
59e675a6c0d35a00012951ce,2023-06-16_10h30.48.571,phx_ver10,2022.2.5,Linux x86_64,60.06006006,,,,,space,0.1941,0,40,40,30,1,31,training,zh2x,e,zh2x_e,zh2x_7_exe.wav,,exe.jpg,,,,,,,,,,,,,,,,,,,,,,,,,,,,,,,,,
59e675a6c0d35a00012951ce,2023-06-16_10h30.48.571,phx_ver10,2022.2.5,Linux x86_64,60.06006006,,,,,space,0.2163,0,41,41,20,1,21,training,zh2x,e,zh2x_e,zh2x_2_ezhe.wav,,ezhe.jpg,,,,,,,,,,,,,,,,,,,,,,,,,,,,,,,,,
59e675a6c0d35a00012951ce,2023-06-16_10h30.48.571,phx_ver10,2022.2.5,Linux x86_64,60.06006006,,,,,,,,,,,,,attn_test,,,,zh2x_8_axa.wav,zh2x_8_ixi.wav,ixi.jpg,RIGHT,,j,0.1246,space,1.0235,0,0,0,0,1,,,,,,,,,,,,,,,,,,,,,,
59e675a6c0d35a00012951ce,2023-06-16_10h30.48.571,phx_ver10,2022.2.5,Linux x86_64,60.06006006,,,,,space,1.0067,0,42,42,3,1,4,training,zh2x,a,zh2x_a,zh2x_2_azha.wav,,azha.jpg,,,,,,,,,,,,,,,,,,,,,,,,,,,,,,,,,
59e675a6c0d35a00012951ce,2023-06-16_10h30.48.571,phx_ver10,2022.2.5,Linux x86_64,60.06006006,,,,,space,0.9617,0,43,43,0,1,1,training,zh2x,a,zh2x_a,zh2x_1_azha.wav,,azha.jpg,,,,,,,,,,,,,,,,,,,,,,,,,,,,,,,,,
59e675a6c0d35a00012951ce,2023-06-16_10h30.48.571,phx_ver10,2022.2.5,Linux x86_64,60.06006006,,,,,space,0.4522,0,44,44,40,1,41,training,zh2x,i,zh2x_i,zh2x_5_ixi.wav,,ixi.jpg,,,,,,,,,,,,,,,,,,,,,,,,,,,,,,,,,
59e675a6c0d35a00012951ce,2023-06-16_10h30.48.571,phx_ver10,2022.2.5,Linux x86_64,60.06006006,,,,,space,0.5958,0,45,45,6,1,7,training,zh2x,a,zh2x_a,zh2x_3_azha.wav,,azha.jpg,,,,,,,,,,,,,,,,,,,,,,,,,,,,,,,,,
59e675a6c0d35a00012951ce,2023-06-16_10h30.48.571,phx_ver10,2022.2.5,Linux x86_64,60.06006006,,,,,space,0.3688,0,46,46,24,1,25,training,zh2x,e,zh2x_e,zh2x_5_exe.wav,,exe.jpg,,,,,,,,,,,,,,,,,,,,,,,,,,,,,,,,,
59e675a6c0d35a00012951ce,2023-06-16_10h30.48.571,phx_ver10,2022.2.5,Linux x86_64,60.06006006,,,,,space,0.0223,0,47,47,44,1,45,training,zh2x,i,zh2x_i,zh2x_7_ixi.wav,,ixi.jpg,,,,,,,,,,,,,,,,,,,,,,,,,,,,,,,,,
59e675a6c0d35a00012951ce,2023-06-16_10h30.48.571,phx_ver10,2022.2.5,Linux x86_64,60.06006006,,,,,,,,,,,,,attn_test,,,,zh2x_8_exe.wav,zh2x_8_ixi.wav,ixi.jpg,RIGHT,,j,1.3131,space,1.6865,,,,,,,,,,,,,,,,,,,,,,,,,,,
59e675a6c0d35a00012951ce,2023-06-16_10h30.48.571,phx_ver10,2022.2.5,Linux x86_64,60.06006006,,,,,,,,,,,,,,,,,,,,,,,,,,,,,,,space,3.2329,,,,,,,,,,,,,,,,,,,,
59e675a6c0d35a00012951ce,2023-06-16_10h30.48.571,phx_ver10,2022.2.5,Linux x86_64,60.06006006,,,,,,,,,,,,,,,,,,,,,,,,,,,,,,,,,space,51.7444,,,,,,,,,,,,,,,,,,
59e675a6c0d35a00012951ce,2023-06-16_10h30.48.571,phx_ver10,2022.2.5,Linux x86_64,60.06006006,,,,,,,,,,,,1,testing_pre,,,,ifi.wav,ifi.wav,,TRUE,,,,,,,,,,,,,,,f,2.562,space,4.2065,0,0,0,0,1,,,,,,,,,
59e675a6c0d35a00012951ce,2023-06-16_10h30.48.571,phx_ver10,2022.2.5,Linux x86_64,60.06006006,,,,,,,,,,,,2,testing_pre,,,,auhau.wav,aufau.wav,,FALSE,,,,,,,,,,,,,,,j,0.7876,space,1.5142,0,1,1,1,1,,,,,,,,,
59e675a6c0d35a00012951ce,2023-06-16_10h30.48.571,phx_ver10,2022.2.5,Linux x86_64,60.06006006,,,,,,,,,,,,5,testing_pre,,,,ihi.wav,ifi.wav,,FALSE,,,,,,,,,,,,,,,f,0.9777,space,1.975,0,2,2,4,1,,,,,,,,,
59e675a6c0d35a00012951ce,2023-06-16_10h30.48.571,phx_ver10,2022.2.5,Linux x86_64,60.06006006,,,,,,,,,,,,4,testing_pre,,,,eihei.wav,eihei.wav,,TRUE,,,,,,,,,,,,,,,j,0.4507,space,0.9671,0,3,3,3,1,,,,,,,,,
59e675a6c0d35a00012951ce,2023-06-16_10h30.48.571,phx_ver10,2022.2.5,Linux x86_64,60.06006006,,,,,,,,,,,,3,testing_pre,,,,afa.wav,aha.wav,,FALSE,,,,,,,,,,,,,,,f,0.2627,space,0.7347,0,4,4,2,1,,,,,,,,,
59e675a6c0d35a00012951ce,2023-06-16_10h30.48.571,phx_ver10,2022.2.5,Linux x86_64,60.06006006,,,,,,,,,,,,,,,,,,,,,,,,,,,,,,,,,,,,,,,,,,,,space,0.7943,,,,,,,
59e675a6c0d35a00012951ce,2023-06-16_10h30.48.571,phx_ver10,2022.2.5,Linux x86_64,60.06006006,,,,,,,,,,,,44,testing_3,zh2sh,ei,zh2sh_ei,zh2sh_8_eishei.wav,zh2sh_1_eizhei.wav,,FALSE,FALSE,,,,,,,,,,,,,,f,0.6521,space,1.339,,,,,,,,0,0,0,43,1,,
59e675a6c0d35a00012951ce,2023-06-16_10h30.48.571,phx_ver10,2022.2.5,Linux x86_64,60.06006006,,,,,,,,,,,,27,testing_3,zh2sh,a,zh2sh_a,zh2sh_1_azha.wav,zh2sh_8_asha.wav,,FALSE,FALSE,,,,,,,,,,,,,,f,0.6835,space,1.2641,,,,,,,,0,1,1,26,1,,
59e675a6c0d35a00012951ce,2023-06-16_10h30.48.571,phx_ver10,2022.2.5,Linux x86_64,60.06006006,,,,,,,,,,,,50,testing_3,zh2j,a,zh2j_a,zh2j_8_aja.wav,zh2j_8_aja.wav,,TRUE,FALSE,,,,,,,,,,,,,,f,0.1032,space,0.4394,,,,,,,,0,2,2,49,1,,
59e675a6c0d35a00012951ce,2023-06-16_10h30.48.571,phx_ver10,2022.2.5,Linux x86_64,60.06006006,,,,,,,,,,,,17,testing_2,zh2x,au,zh2x_au,zh2x_1_auzhau.wav,zh2x_1_auzhau.wav,,TRUE,FALSE,,,,,,,,,,,,,,f,0.0385,space,0.426,,,,,,,,0,3,3,16,1,,
59e675a6c0d35a00012951ce,2023-06-16_10h30.48.571,phx_ver10,2022.2.5,Linux x86_64,60.06006006,,,,,,,,,,,,102,testing_3,sh2x,ai,sh2x_ai,sh2x_8_aixai.wav,sh2x_8_aixai.wav,,TRUE,FALSE,,,,,,,,,,,,,,f,1.373,space,1.9537,,,,,,,,0,4,4,101,1,,
59e675a6c0d35a00012951ce,2023-06-16_10h30.48.571,phx_ver10,2022.2.5,Linux x86_64,60.06006006,,,,,,,,,,,,69,testing_3,zh2j,i,zh2j_i,zh2j_1_izhi.wav,zh2j_1_izhi.wav,,TRUE,FALSE,,,,,,,,,,,,,,f,0.1223,space,0.4992,,,,,,,,0,5,5,68,1,,
59e675a6c0d35a00012951ce,2023-06-16_10h30.48.571,phx_ver10,2022.2.5,Linux x86_64,60.06006006,,,,,,,,,,,,70,testing_3,zh2j,i,zh2j_i,zh2j_8_iji.wav,zh2j_8_iji.wav,,TRUE,FALSE,,,,,,,,,,,,,,f,0.0242,space,0.326,,,,,,,,0,6,6,69,1,,
59e675a6c0d35a00012951ce,2023-06-16_10h30.48.571,phx_ver10,2022.2.5,Linux x86_64,60.06006006,,,,,,,,,,,,29,testing_3,zh2sh,ai,zh2sh_ai,zh2sh_1_aizhai.wav,zh2sh_1_aizhai.wav,,TRUE,FALSE,,,,,,,,,,,,,,f,0.4522,space,0.7746,,,,,,,,0,7,7,28,1,,
59e675a6c0d35a00012951ce,2023-06-16_10h30.48.571,phx_ver10,2022.2.5,Linux x86_64,60.06006006,,,,,,,,,,,,73,testing_3,j2x,a,j2x_a,j2x_1_aja.wav,j2x_1_aja.wav,,TRUE,FALSE,,,,,,,,,,,,,,f,0.3392,space,0.6998,,,,,,,,0,8,8,72,1,,
59e675a6c0d35a00012951ce,2023-06-16_10h30.48.571,phx_ver10,2022.2.5,Linux x86_64,60.06006006,,,,,,,,,,,,47,testing_3,zh2sh,i,zh2sh_i,zh2sh_1_izhi.wav,zh2sh_8_ishi.wav,,FALSE,FALSE,,,,,,,,,,,,,,f,0.1877,space,0.6182,,,,,,,,0,9,9,46,1,,
59e675a6c0d35a00012951ce,2023-06-16_10h30.48.571,phx_ver10,2022.2.5,Linux x86_64,60.06006006,,,,,,,,,,,,60,testing_3,zh2j,au,zh2j_au,zh2j_8_aujau.wav,zh2j_1_auzhau.wav,,FALSE,FALSE,,,,,,,,,,,,,,f,0.2377,space,0.8039,,,,,,,,0,10,10,59,1,,
59e675a6c0d35a00012951ce,2023-06-16_10h30.48.571,phx_ver10,2022.2.5,Linux x86_64,60.06006006,,,,,,,,,,,,15,testing_2,zh2x,ai,zh2x_ai,zh2x_1_aizhai.wav,zh2x_8_aixai.wav,,FALSE,FALSE,,,,,,,,,,,,,,j,1.5763,space,1.9268,,,,,,,,0,11,11,14,1,,
59e675a6c0d35a00012951ce,2023-06-16_10h30.48.571,phx_ver10,2022.2.5,Linux x86_64,60.06006006,,,,,,,,,,,,86,testing_3,j2x,e,j2x_e,j2x_8_exe.wav,j2x_8_exe.wav,,TRUE,FALSE,,,,,,,,,,,,,,f,0.4338,space,1.5457,,,,,,,,0,12,12,85,1,,
59e675a6c0d35a00012951ce,2023-06-16_10h30.48.571,phx_ver10,2022.2.5,Linux x86_64,60.06006006,,,,,,,,,,,,38,testing_3,zh2sh,e,zh2sh_e,zh2sh_8_eshe.wav,zh2sh_8_eshe.wav,,TRUE,FALSE,,,,,,,,,,,,,,f,1.3745,space,1.7349,,,,,,,,0,13,13,37,1,,
59e675a6c0d35a00012951ce,2023-06-16_10h30.48.571,phx_ver10,2022.2.5,Linux x86_64,60.06006006,,,,,,,,,,,,13,testing_2,zh2x,ai,zh2x_ai,zh2x_1_aizhai.wav,zh2x_1_aizhai.wav,,TRUE,FALSE,,,,,,,,,,,,,,f,0.2497,space,0.5686,,,,,,,,0,14,14,12,1,,
59e675a6c0d35a00012951ce,2023-06-16_10h30.48.571,phx_ver10,2022.2.5,Linux x86_64,60.06006006,,,,,,,,,,,,130,testing_3,sh2j,au,sh2j_au,sh2j_8_aujau.wav,sh2j_8_aujau.wav,,TRUE,FALSE,,,,,,,,,,,,,,f,0.2048,space,0.4811,,,,,,,,0,15,15,129,1,,
59e675a6c0d35a00012951ce,2023-06-16_10h30.48.571,phx_ver10,2022.2.5,Linux x86_64,60.06006006,,,,,,,,,,,,16,testing_2,zh2x,ai,zh2x_ai,zh2x_8_aixai.wav,zh2x_1_aizhai.wav,,FALSE,FALSE,,,,,,,,,,,,,,j,0.8491,space,1.1529,,,,,,,,0,16,16,15,1,,
59e675a6c0d35a00012951ce,2023-06-16_10h30.48.571,phx_ver10,2022.2.5,Linux x86_64,60.06006006,,,,,,,,,,,,3,testing_1,zh2x,a,zh2x_a,zh2x_1_azha.wav,zh2x_8_axa.wav,,FALSE,TRUE,,,,,,,,,,,,,,j,0.4998,space,0.7749,,,,,,,,0,17,17,2,1,,
59e675a6c0d35a00012951ce,2023-06-16_10h30.48.571,phx_ver10,2022.2.5,Linux x86_64,60.06006006,,,,,,,,,,,,100,testing_3,sh2x,a,sh2x_a,sh2x_8_axa.wav,sh2x_1_asha.wav,,FALSE,FALSE,,,,,,,,,,,,,,f,0.8719,space,1.2918,,,,,,,,0,18,18,99,1,,
59e675a6c0d35a00012951ce,2023-06-16_10h30.48.571,phx_ver10,2022.2.5,Linux x86_64,60.06006006,,,,,,,,,,,,32,testing_3,zh2sh,ai,zh2sh_ai,zh2sh_8_aishai.wav,zh2sh_1_aizhai.wav,,FALSE,FALSE,,,,,,,,,,,,,,j,0.1732,space,0.483,,,,,,,,0,19,19,31,1,,
59e675a6c0d35a00012951ce,2023-06-16_10h30.48.571,phx_ver10,2022.2.5,Linux x86_64,60.06006006,,,,,,,,,,,,24,testing_2,zh2x,ei,zh2x_ei,zh2x_8_eixei.wav,zh2x_1_eizhei.wav,,FALSE,FALSE,,,,,,,,,,,,,,f,0.3754,space,0.6837,,,,,,,,0,20,20,23,1,,
59e675a6c0d35a00012951ce,2023-06-16_10h30.48.571,phx_ver10,2022.2.5,Linux x86_64,60.06006006,,,,,,,,,,,,131,testing_3,sh2j,au,sh2j_au,sh2j_1_aushau.wav,sh2j_8_aujau.wav,,FALSE,FALSE,,,,,,,,,,,,,,j,0.2041,space,0.4419,,,,,,,,0,21,21,130,1,,
59e675a6c0d35a00012951ce,2023-06-16_10h30.48.571,phx_ver10,2022.2.5,Linux x86_64,60.06006006,,,,,,,,,,,,62,testing_3,zh2j,e,zh2j_e,zh2j_8_eje.wav,zh2j_8_eje.wav,,TRUE,FALSE,,,,,,,,,,,,,,f,0.3836,space,0.7322,,,,,,,,0,22,22,61,1,,
59e675a6c0d35a00012951ce,2023-06-16_10h30.48.571,phx_ver10,2022.2.5,Linux x86_64,60.06006006,,,,,,,,,,,,112,testing_3,sh2x,e,sh2x_e,sh2x_8_exe.wav,sh2x_1_eshe.wav,,FALSE,FALSE,,,,,,,,,,,,,,f,0.9844,space,1.3162,,,,,,,,0,23,23,111,1,,
59e675a6c0d35a00012951ce,2023-06-16_10h30.48.571,phx_ver10,2022.2.5,Linux x86_64,60.06006006,,,,,,,,,,,,57,testing_3,zh2j,au,zh2j_au,zh2j_1_auzhau.wav,zh2j_1_auzhau.wav,,TRUE,FALSE,,,,,,,,,,,,,,f,0.1621,space,0.5507,,,,,,,,0,24,24,56,1,,
59e675a6c0d35a00012951ce,2023-06-16_10h30.48.571,phx_ver10,2022.2.5,Linux x86_64,60.06006006,,,,,,,,,,,,97,testing_3,sh2x,a,sh2x_a,sh2x_1_asha.wav,sh2x_1_asha.wav,,TRUE,FALSE,,,,,,,,,,,,,,f,0.3576,space,0.6506,,,,,,,,0,25,25,96,1,,
59e675a6c0d35a00012951ce,2023-06-16_10h30.48.571,phx_ver10,2022.2.5,Linux x86_64,60.06006006,,,,,,,,,,,,85,testing_3,j2x,e,j2x_e,j2x_1_eje.wav,j2x_1_eje.wav,,TRUE,FALSE,,,,,,,,,,,,,,f,0.0929,space,0.3964,,,,,,,,0,26,26,84,1,,
59e675a6c0d35a00012951ce,2023-06-16_10h30.48.571,phx_ver10,2022.2.5,Linux x86_64,60.06006006,,,,,,,,,,,,66,testing_3,zh2j,ei,zh2j_ei,zh2j_8_eijei.wav,zh2j_8_eijei.wav,,TRUE,FALSE,,,,,,,,,,,,,,f,0.2074,space,0.4897,,,,,,,,0,27,27,65,1,,
59e675a6c0d35a00012951ce,2023-06-16_10h30.48.571,phx_ver10,2022.2.5,Linux x86_64,60.06006006,,,,,,,,,,,,31,testing_3,zh2sh,ai,zh2sh_ai,zh2sh_1_aizhai.wav,zh2sh_8_aishai.wav,,FALSE,FALSE,,,,,,,,,,,,,,j,0.152,space,0.5036,,,,,,,,0,28,28,30,1,,
59e675a6c0d35a00012951ce,2023-06-16_10h30.48.571,phx_ver10,2022.2.5,Linux x86_64,60.06006006,,,,,,,,,,,,132,testing_3,sh2j,au,sh2j_au,sh2j_8_aujau.wav,sh2j_1_aushau.wav,,FALSE,FALSE,,,,,,,,,,,,,,f,1.2533,space,1.5059,,,,,,,,0,29,29,131,1,,
59e675a6c0d35a00012951ce,2023-06-16_10h30.48.571,phx_ver10,2022.2.5,Linux x86_64,60.06006006,,,,,,,,,,,,54,testing_3,zh2j,ai,zh2j_ai,zh2j_8_aijai.wav,zh2j_8_aijai.wav,,TRUE,FALSE,,,,,,,,,,,,,,f,0.0017,space,0.32,,,,,,,,0,30,30,53,1,,
59e675a6c0d35a00012951ce,2023-06-16_10h30.48.571,phx_ver10,2022.2.5,Linux x86_64,60.06006006,,,,,,,,,,,,106,testing_3,sh2x,au,sh2x_au,sh2x_8_auxau.wav,sh2x_8_auxau.wav,,TRUE,FALSE,,,,,,,,,,,,,,f,0.1672,space,0.3866,,,,,,,,0,31,31,105,1,,
59e675a6c0d35a00012951ce,2023-06-16_10h30.48.571,phx_ver10,2022.2.5,Linux x86_64,60.06006006,,,,,,,,,,,,43,testing_3,zh2sh,ei,zh2sh_ei,zh2sh_1_eizhei.wav,zh2sh_8_eishei.wav,,FALSE,FALSE,,,,,,,,,,,,,,j,0.2277,space,0.5612,,,,,,,,0,32,32,42,1,,
59e675a6c0d35a00012951ce,2023-06-16_10h30.48.571,phx_ver10,2022.2.5,Linux x86_64,60.06006006,,,,,,,,,,,,40,testing_3,zh2sh,e,zh2sh_e,zh2sh_8_eshe.wav,zh2sh_1_ezhe.wav,,FALSE,FALSE,,,,,,,,,,,,,,f,0.4757,space,0.7876,,,,,,,,0,33,33,39,1,,
59e675a6c0d35a00012951ce,2023-06-16_10h30.48.571,phx_ver10,2022.2.5,Linux x86_64,60.06006006,,,,,,,,,,,,59,testing_3,zh2j,au,zh2j_au,zh2j_1_auzhau.wav,zh2j_8_aujau.wav,,FALSE,FALSE,,,,,,,,,,,,,,f,2.5103,space,6.3088,,,,,,,,0,34,34,58,1,,
59e675a6c0d35a00012951ce,2023-06-16_10h30.48.571,phx_ver10,2022.2.5,Linux x86_64,60.06006006,,,,,,,,,,,,9,testing_1,zh2x,i,zh2x_i,zh2x_1_izhi.wav,zh2x_1_izhi_copy.wav,,TRUE,TRUE,,,,,,,,,,,,,,f,2.2874,space,2.7179,,,,,,,,0,35,35,8,1,,
59e675a6c0d35a00012951ce,2023-06-16_10h30.48.571,phx_ver10,2022.2.5,Linux x86_64,60.06006006,,,,,,,,,,,,90,testing_3,j2x,ei,j2x_ei,j2x_8_eixei.wav,j2x_8_eixei.wav,,TRUE,FALSE,,,,,,,,,,,,,,f,1.0708,space,1.3601,,,,,,,,0,36,36,89,1,,
59e675a6c0d35a00012951ce,2023-06-16_10h30.48.571,phx_ver10,2022.2.5,Linux x86_64,60.06006006,,,,,,,,,,,,135,testing_3,sh2j,e,sh2j_e,sh2j_1_eshe.wav,sh2j_8_eje.wav,,FALSE,FALSE,,,,,,,,,,,,,,j,1.032,space,1.3069,,,,,,,,0,37,37,134,1,,
59e675a6c0d35a00012951ce,2023-06-16_10h30.48.571,phx_ver10,2022.2.5,Linux x86_64,60.06006006,,,,,,,,,,,,1,testing_1,zh2x,a,zh2x_a,zh2x_1_azha.wav,zh2x_1_azha_copy.wav,,TRUE,TRUE,,,,,,,,,,,,,,f,0.0997,space,0.3857,,,,,,,,0,38,38,0,1,,
59e675a6c0d35a00012951ce,2023-06-16_10h30.48.571,phx_ver10,2022.2.5,Linux x86_64,60.06006006,,,,,,,,,,,,104,testing_3,sh2x,ai,sh2x_ai,sh2x_8_aixai.wav,sh2x_1_aishai.wav,,FALSE,FALSE,,,,,,,,,,,,,,f,0.0345,space,0.3059,,,,,,,,0,39,39,103,1,,
59e675a6c0d35a00012951ce,2023-06-16_10h30.48.571,phx_ver10,2022.2.5,Linux x86_64,60.06006006,,,,,,,,,,,,45,testing_3,zh2sh,i,zh2sh_i,zh2sh_1_izhi.wav,zh2sh_1_izhi.wav,,TRUE,FALSE,,,,,,,,,,,,,,f,0.2534,space,0.6666,,,,,,,,0,40,40,44,1,,
59e675a6c0d35a00012951ce,2023-06-16_10h30.48.571,phx_ver10,2022.2.5,Linux x86_64,60.06006006,,,,,,,,,,,,20,testing_2,zh2x,au,zh2x_au,zh2x_8_auxau.wav,zh2x_1_auzhau.wav,,FALSE,FALSE,,,,,,,,,,,,,,j,0.2517,space,0.6007,,,,,,,,0,41,41,19,1,,
59e675a6c0d35a00012951ce,2023-06-16_10h30.48.571,phx_ver10,2022.2.5,Linux x86_64,60.06006006,,,,,,,,,,,,36,testing_3,zh2sh,au,zh2sh_au,zh2sh_8_aushau.wav,zh2sh_1_auzhau.wav,,FALSE,FALSE,,,,,,,,,,,,,,j,0.102,space,0.3552,,,,,,,,0,42,42,35,1,,
59e675a6c0d35a00012951ce,2023-06-16_10h30.48.571,phx_ver10,2022.2.5,Linux x86_64,60.06006006,,,,,,,,,,,,26,testing_3,zh2sh,a,zh2sh_a,zh2sh_8_asha.wav,zh2sh_8_asha.wav,,TRUE,FALSE,,,,,,,,,,,,,,f,2.8226,space,3.0523,,,,,,,,0,43,43,25,1,,
59e675a6c0d35a00012951ce,2023-06-16_10h30.48.571,phx_ver10,2022.2.5,Linux x86_64,60.06006006,,,,,,,,,,,,63,testing_3,zh2j,e,zh2j_e,zh2j_1_ezhe.wav,zh2j_8_eje.wav,,FALSE,FALSE,,,,,,,,,,,,,,f,0.4528,space,0.6719,,,,,,,,0,44,44,62,1,,
59e675a6c0d35a00012951ce,2023-06-16_10h30.48.571,phx_ver10,2022.2.5,Linux x86_64,60.06006006,,,,,,,,,,,,103,testing_3,sh2x,ai,sh2x_ai,sh2x_1_aishai.wav,sh2x_8_aixai.wav,,FALSE,FALSE,,,,,,,,,,,,,,f,0.4338,space,0.7492,,,,,,,,0,45,45,102,1,,
59e675a6c0d35a00012951ce,2023-06-16_10h30.48.571,phx_ver10,2022.2.5,Linux x86_64,60.06006006,,,,,,,,,,,,19,testing_2,zh2x,au,zh2x_au,zh2x_1_auzhau.wav,zh2x_8_auxau.wav,,FALSE,FALSE,,,,,,,,,,,,,,j,0.3854,space,0.705,,,,,,,,0,46,46,18,1,,
59e675a6c0d35a00012951ce,2023-06-16_10h30.48.571,phx_ver10,2022.2.5,Linux x86_64,60.06006006,,,,,,,,,,,,48,testing_3,zh2sh,i,zh2sh_i,zh2sh_8_ishi.wav,zh2sh_1_izhi.wav,,FALSE,FALSE,,,,,,,,,,,,,,j,0.5178,space,0.8847,,,,,,,,0,47,47,47,1,,
59e675a6c0d35a00012951ce,2023-06-16_10h30.48.571,phx_ver10,2022.2.5,Linux x86_64,60.06006006,,,,,,,,,,,,42,testing_3,zh2sh,ei,zh2sh_ei,zh2sh_8_eishei.wav,zh2sh_8_eishei.wav,,TRUE,FALSE,,,,,,,,,,,,,,f,0.0025,space,0.2764,,,,,,,,0,48,48,41,1,,
59e675a6c0d35a00012951ce,2023-06-16_10h30.48.571,phx_ver10,2022.2.5,Linux x86_64,60.06006006,,,,,,,,,,,,67,testing_3,zh2j,ei,zh2j_ei,zh2j_1_eizhei.wav,zh2j_8_eijei.wav,,FALSE,FALSE,,,,,,,,,,,,,,f,0.1733,space,0.4553,,,,,,,,0,49,49,66,1,,
59e675a6c0d35a00012951ce,2023-06-16_10h30.48.571,phx_ver10,2022.2.5,Linux x86_64,60.06006006,,,,,,,,,,,,2,testing_1,zh2x,a,zh2x_a,zh2x_8_axa.wav,zh2x_8_axa_copy.wav,,TRUE,TRUE,,,,,,,,,,,,,,f,0.1601,space,0.4595,,,,,,,,0,50,50,1,1,,
59e675a6c0d35a00012951ce,2023-06-16_10h30.48.571,phx_ver10,2022.2.5,Linux x86_64,60.06006006,,,,,,,,,,,,129,testing_3,sh2j,au,sh2j_au,sh2j_1_aushau.wav,sh2j_1_aushau.wav,,TRUE,FALSE,,,,,,,,,,,,,,f,0.7973,space,1.0581,,,,,,,,0,51,51,128,1,,
59e675a6c0d35a00012951ce,2023-06-16_10h30.48.571,phx_ver10,2022.2.5,Linux x86_64,60.06006006,,,,,,,,,,,,101,testing_3,sh2x,ai,sh2x_ai,sh2x_1_aishai.wav,sh2x_1_aishai.wav,,TRUE,FALSE,,,,,,,,,,,,,,f,0.5506,space,0.8391,,,,,,,,0,52,52,100,1,,
59e675a6c0d35a00012951ce,2023-06-16_10h30.48.571,phx_ver10,2022.2.5,Linux x86_64,60.06006006,,,,,,,,,,,,133,testing_3,sh2j,e,sh2j_e,sh2j_1_eshe.wav,sh2j_1_eshe.wav,,TRUE,FALSE,,,,,,,,,,,,,,f,0.3524,space,1.0726,,,,,,,,0,53,53,132,1,,
59e675a6c0d35a00012951ce,2023-06-16_10h30.48.571,phx_ver10,2022.2.5,Linux x86_64,60.06006006,,,,,,,,,,,,4,testing_1,zh2x,a,zh2x_a,zh2x_8_axa.wav,zh2x_1_azha.wav,,FALSE,TRUE,,,,,,,,,,,,,,j,0.2169,space,0.6182,,,,,,,,0,54,54,3,1,,
59e675a6c0d35a00012951ce,2023-06-16_10h30.48.571,phx_ver10,2022.2.5,Linux x86_64,60.06006006,,,,,,,,,,,,80,testing_3,j2x,ai,j2x_ai,j2x_8_aixai.wav,j2x_1_aijai.wav,,FALSE,FALSE,,,,,,,,,,,,,,j,0.0399,space,0.3235,,,,,,,,0,55,55,79,1,,
59e675a6c0d35a00012951ce,2023-06-16_10h30.48.571,phx_ver10,2022.2.5,Linux x86_64,60.06006006,,,,,,,,,,,,64,testing_3,zh2j,e,zh2j_e,zh2j_8_eje.wav,zh2j_1_ezhe.wav,,FALSE,FALSE,,,,,,,,,,,,,,f,0.5861,space,0.9172,,,,,,,,0,56,56,63,1,,
59e675a6c0d35a00012951ce,2023-06-16_10h30.48.571,phx_ver10,2022.2.5,Linux x86_64,60.06006006,,,,,,,,,,,,108,testing_3,sh2x,au,sh2x_au,sh2x_8_auxau.wav,sh2x_1_aushau.wav,,FALSE,FALSE,,,,,,,,,,,,,,f,0.0048,space,0.9607,,,,,,,,0,57,57,107,1,,
59e675a6c0d35a00012951ce,2023-06-16_10h30.48.571,phx_ver10,2022.2.5,Linux x86_64,60.06006006,,,,,,,,,,,,137,testing_3,sh2j,ei,sh2j_ei,sh2j_1_eishei.wav,sh2j_1_eishei.wav,,TRUE,FALSE,,,,,,,,,,,,,,f,0.7344,space,1.159,,,,,,,,0,58,58,136,1,,
59e675a6c0d35a00012951ce,2023-06-16_10h30.48.571,phx_ver10,2022.2.5,Linux x86_64,60.06006006,,,,,,,,,,,,79,testing_3,j2x,ai,j2x_ai,j2x_1_aijai.wav,j2x_8_aixai.wav,,FALSE,FALSE,,,,,,,,,,,,,,j,0.1515,space,0.6064,,,,,,,,0,59,59,78,1,,
59e675a6c0d35a00012951ce,2023-06-16_10h30.48.571,phx_ver10,2022.2.5,Linux x86_64,60.06006006,,,,,,,,,,,,7,testing_1,zh2x,e,zh2x_e,zh2x_1_ezhe.wav,zh2x_8_exe.wav,,FALSE,TRUE,,,,,,,,,,,,,,j,0.399,space,0.6983,,,,,,,,0,60,60,6,1,,
59e675a6c0d35a00012951ce,2023-06-16_10h30.48.571,phx_ver10,2022.2.5,Linux x86_64,60.06006006,,,,,,,,,,,,82,testing_3,j2x,au,j2x_au,j2x_8_auxau.wav,j2x_8_auxau.wav,,TRUE,FALSE,,,,,,,,,,,,,,f,0.5695,space,0.8648,,,,,,,,0,61,61,81,1,,
59e675a6c0d35a00012951ce,2023-06-16_10h30.48.571,phx_ver10,2022.2.5,Linux x86_64,60.06006006,,,,,,,,,,,,89,testing_3,j2x,ei,j2x_ei,j2x_1_eijei.wav,j2x_1_eijei.wav,,TRUE,FALSE,,,,,,,,,,,,,,f,0.3555,space,0.9585,,,,,,,,0,62,62,88,1,,
59e675a6c0d35a00012951ce,2023-06-16_10h30.48.571,phx_ver10,2022.2.5,Linux x86_64,60.06006006,,,,,,,,,,,,115,testing_3,sh2x,ei,sh2x_ei,sh2x_1_eishei.wav,sh2x_8_eixei.wav,,FALSE,FALSE,,,,,,,,,,,,,,f,0.2539,space,0.6066,,,,,,,,0,63,63,114,1,,
59e675a6c0d35a00012951ce,2023-06-16_10h30.48.571,phx_ver10,2022.2.5,Linux x86_64,60.06006006,,,,,,,,,,,,99,testing_3,sh2x,a,sh2x_a,sh2x_1_asha.wav,sh2x_8_axa.wav,,FALSE,FALSE,,,,,,,,,,,,,,f,0.3353,space,0.8547,,,,,,,,0,64,64,98,1,,
59e675a6c0d35a00012951ce,2023-06-16_10h30.48.571,phx_ver10,2022.2.5,Linux x86_64,60.06006006,,,,,,,,,,,,127,testing_3,sh2j,ai,sh2j_ai,sh2j_1_aishai.wav,sh2j_8_aijai.wav,,FALSE,FALSE,,,,,,,,,,,,,,j,0.3038,space,0.7037,,,,,,,,0,65,65,126,1,,
59e675a6c0d35a00012951ce,2023-06-16_10h30.48.571,phx_ver10,2022.2.5,Linux x86_64,60.06006006,,,,,,,,,,,,35,testing_3,zh2sh,au,zh2sh_au,zh2sh_1_auzhau.wav,zh2sh_8_aushau.wav,,FALSE,FALSE,,,,,,,,,,,,,,j,0.1179,space,0.4543,,,,,,,,0,66,66,34,1,,
59e675a6c0d35a00012951ce,2023-06-16_10h30.48.571,phx_ver10,2022.2.5,Linux x86_64,60.06006006,,,,,,,,,,,,33,testing_3,zh2sh,au,zh2sh_au,zh2sh_1_auzhau.wav,zh2sh_1_auzhau.wav,,TRUE,FALSE,,,,,,,,,,,,,,f,0.69,space,1.2439,,,,,,,,0,67,67,32,1,,
59e675a6c0d35a00012951ce,2023-06-16_10h30.48.571,phx_ver10,2022.2.5,Linux x86_64,60.06006006,,,,,,,,,,,,28,testing_3,zh2sh,a,zh2sh_a,zh2sh_8_asha.wav,zh2sh_1_azha.wav,,FALSE,FALSE,,,,,,,,,,,,,,j,0.5684,space,0.8474,,,,,,,,0,68,68,27,1,,
59e675a6c0d35a00012951ce,2023-06-16_10h30.48.571,phx_ver10,2022.2.5,Linux x86_64,60.06006006,,,,,,,,,,,,58,testing_3,zh2j,au,zh2j_au,zh2j_8_aujau.wav,zh2j_8_aujau.wav,,TRUE,FALSE,,,,,,,,,,,,,,f,0.5013,space,0.9146,,,,,,,,0,69,69,57,1,,
59e675a6c0d35a00012951ce,2023-06-16_10h30.48.571,phx_ver10,2022.2.5,Linux x86_64,60.06006006,,,,,,,,,,,,49,testing_3,zh2j,a,zh2j_a,zh2j_1_azha.wav,zh2j_1_azha.wav,,TRUE,FALSE,,,,,,,,,,,,,,f,1.0353,space,1.4069,,,,,,,,0,70,70,48,1,,
59e675a6c0d35a00012951ce,2023-06-16_10h30.48.571,phx_ver10,2022.2.5,Linux x86_64,60.06006006,,,,,,,,,,,,11,testing_1,zh2x,i,zh2x_i,zh2x_1_izhi.wav,zh2x_8_ixi.wav,,FALSE,TRUE,,,,,,,,,,,,,,j,0.1227,space,0.8166,,,,,,,,0,71,71,10,1,,
59e675a6c0d35a00012951ce,2023-06-16_10h30.48.571,phx_ver10,2022.2.5,Linux x86_64,60.06006006,,,,,,,,,,,,144,testing_3,sh2j,i,sh2j_i,sh2j_8_iji.wav,sh2j_1_ishi.wav,,FALSE,FALSE,,,,,,,,,,,,,,j,0.6215,space,0.8843,,,,,,,,0,72,72,143,1,,
59e675a6c0d35a00012951ce,2023-06-16_10h30.48.571,phx_ver10,2022.2.5,Linux x86_64,60.06006006,,,,,,,,,,,,84,testing_3,j2x,au,j2x_au,j2x_8_auxau.wav,j2x_1_aujau.wav,,FALSE,FALSE,,,,,,,,,,,,,,f,0.8008,space,1.233,,,,,,,,0,73,73,83,1,,
59e675a6c0d35a00012951ce,2023-06-16_10h30.48.571,phx_ver10,2022.2.5,Linux x86_64,60.06006006,,,,,,,,,,,,30,testing_3,zh2sh,ai,zh2sh_ai,zh2sh_8_aishai.wav,zh2sh_8_aishai.wav,,TRUE,FALSE,,,,,,,,,,,,,,f,0.0254,space,0.4235,,,,,,,,0,74,74,29,1,,
59e675a6c0d35a00012951ce,2023-06-16_10h30.48.571,phx_ver10,2022.2.5,Linux x86_64,60.06006006,,,,,,,,,,,,113,testing_3,sh2x,ei,sh2x_ei,sh2x_1_eishei.wav,sh2x_1_eishei.wav,,TRUE,FALSE,,,,,,,,,,,,,,f,0.2499,space,0.567,,,,,,,,0,75,75,112,1,,
59e675a6c0d35a00012951ce,2023-06-16_10h30.48.571,phx_ver10,2022.2.5,Linux x86_64,60.06006006,,,,,,,,,,,,91,testing_3,j2x,ei,j2x_ei,j2x_1_eijei.wav,j2x_8_eixei.wav,,FALSE,FALSE,,,,,,,,,,,,,,f,1.4895,space,2.0087,,,,,,,,0,76,76,90,1,,
59e675a6c0d35a00012951ce,2023-06-16_10h30.48.571,phx_ver10,2022.2.5,Linux x86_64,60.06006006,,,,,,,,,,,,124,testing_3,sh2j,a,sh2j_a,sh2j_8_aja.wav,sh2j_1_asha.wav,,FALSE,FALSE,,,,,,,,,,,,,,f,0.2337,space,0.5704,,,,,,,,0,77,77,123,1,,
59e675a6c0d35a00012951ce,2023-06-16_10h30.48.571,phx_ver10,2022.2.5,Linux x86_64,60.06006006,,,,,,,,,,,,120,testing_3,sh2x,i,sh2x_i,sh2x_8_ixi.wav,sh2x_1_ishi.wav,,FALSE,FALSE,,,,,,,,,,,,,,f,0.3847,space,0.7676,,,,,,,,0,78,78,119,1,,
59e675a6c0d35a00012951ce,2023-06-16_10h30.48.571,phx_ver10,2022.2.5,Linux x86_64,60.06006006,,,,,,,,,,,,23,testing_2,zh2x,ei,zh2x_ei,zh2x_1_eizhei.wav,zh2x_8_eixei.wav,,FALSE,FALSE,,,,,,,,,,,,,,f,0.7374,space,1.1033,,,,,,,,0,79,79,22,1,,
59e675a6c0d35a00012951ce,2023-06-16_10h30.48.571,phx_ver10,2022.2.5,Linux x86_64,60.06006006,,,,,,,,,,,,5,testing_1,zh2x,e,zh2x_e,zh2x_1_ezhe.wav,zh2x_1_ezhe_copy.wav,,TRUE,TRUE,,,,,,,,,,,,,,f,0.0856,space,0.422,,,,,,,,0,80,80,4,1,,
59e675a6c0d35a00012951ce,2023-06-16_10h30.48.571,phx_ver10,2022.2.5,Linux x86_64,60.06006006,,,,,,,,,,,,14,testing_2,zh2x,ai,zh2x_ai,zh2x_8_aixai.wav,zh2x_8_aixai.wav,,TRUE,FALSE,,,,,,,,,,,,,,j,1.5031,space,2.1287,,,,,,,,0,81,81,13,1,,
59e675a6c0d35a00012951ce,2023-06-16_10h30.48.571,phx_ver10,2022.2.5,Linux x86_64,60.06006006,,,,,,,,,,,,118,testing_3,sh2x,i,sh2x_i,sh2x_8_ixi.wav,sh2x_8_ixi.wav,,TRUE,FALSE,,,,,,,,,,,,,,f,0.5348,space,0.9379,,,,,,,,0,82,82,117,1,,
59e675a6c0d35a00012951ce,2023-06-16_10h30.48.571,phx_ver10,2022.2.5,Linux x86_64,60.06006006,,,,,,,,,,,,18,testing_2,zh2x,au,zh2x_au,zh2x_8_auxau.wav,zh2x_8_auxau.wav,,TRUE,FALSE,,,,,,,,,,,,,,f,0.1697,space,0.4683,,,,,,,,0,83,83,17,1,,
59e675a6c0d35a00012951ce,2023-06-16_10h30.48.571,phx_ver10,2022.2.5,Linux x86_64,60.06006006,,,,,,,,,,,,10,testing_1,zh2x,i,zh2x_i,zh2x_8_ixi.wav,zh2x_8_ixi_copy.wav,,TRUE,TRUE,,,,,,,,,,,,,,f,0.0717,space,0.4033,,,,,,,,0,84,84,9,1,,
59e675a6c0d35a00012951ce,2023-06-16_10h30.48.571,phx_ver10,2022.2.5,Linux x86_64,60.06006006,,,,,,,,,,,,72,testing_3,zh2j,i,zh2j_i,zh2j_8_iji.wav,zh2j_1_izhi.wav,,FALSE,FALSE,,,,,,,,,,,,,,f,0.7539,space,1.168,,,,,,,,0,85,85,71,1,,
59e675a6c0d35a00012951ce,2023-06-16_10h30.48.571,phx_ver10,2022.2.5,Linux x86_64,60.06006006,,,,,,,,,,,,22,testing_2,zh2x,ei,zh2x_ei,zh2x_8_eixei.wav,zh2x_8_eixei.wav,,TRUE,FALSE,,,,,,,,,,,,,,f,0.4724,space,0.9377,,,,,,,,0,86,86,21,1,,
59e675a6c0d35a00012951ce,2023-06-16_10h30.48.571,phx_ver10,2022.2.5,Linux x86_64,60.06006006,,,,,,,,,,,,142,testing_3,sh2j,i,sh2j_i,sh2j_8_iji.wav,sh2j_8_iji.wav,,TRUE,FALSE,,,,,,,,,,,,,,f,0.0987,space,0.6064,,,,,,,,0,87,87,141,1,,
59e675a6c0d35a00012951ce,2023-06-16_10h30.48.571,phx_ver10,2022.2.5,Linux x86_64,60.06006006,,,,,,,,,,,,39,testing_3,zh2sh,e,zh2sh_e,zh2sh_1_ezhe.wav,zh2sh_8_eshe.wav,,FALSE,FALSE,,,,,,,,,,,,,,j,0.4668,space,0.851,,,,,,,,0,88,88,38,1,,
59e675a6c0d35a00012951ce,2023-06-16_10h30.48.571,phx_ver10,2022.2.5,Linux x86_64,60.06006006,,,,,,,,,,,,98,testing_3,sh2x,a,sh2x_a,sh2x_8_axa.wav,sh2x_8_axa.wav,,TRUE,FALSE,,,,,,,,,,,,,,f,0.1869,space,0.6526,,,,,,,,0,89,89,97,1,,
59e675a6c0d35a00012951ce,2023-06-16_10h30.48.571,phx_ver10,2022.2.5,Linux x86_64,60.06006006,,,,,,,,,,,,41,testing_3,zh2sh,ei,zh2sh_ei,zh2sh_1_eizhei.wav,zh2sh_1_eizhei.wav,,TRUE,FALSE,,,,,,,,,,,,,,f,0.3014,space,0.617,,,,,,,,0,90,90,40,1,,
59e675a6c0d35a00012951ce,2023-06-16_10h30.48.571,phx_ver10,2022.2.5,Linux x86_64,60.06006006,,,,,,,,,,,,75,testing_3,j2x,a,j2x_a,j2x_1_aja.wav,j2x_8_axa.wav,,FALSE,FALSE,,,,,,,,,,,,,,f,1.3752,space,1.7536,,,,,,,,0,91,91,74,1,,
59e675a6c0d35a00012951ce,2023-06-16_10h30.48.571,phx_ver10,2022.2.5,Linux x86_64,60.06006006,,,,,,,,,,,,116,testing_3,sh2x,ei,sh2x_ei,sh2x_8_eixei.wav,sh2x_1_eishei.wav,,FALSE,FALSE,,,,,,,,,,,,,,f,0.5003,space,0.8853,,,,,,,,0,92,92,115,1,,
59e675a6c0d35a00012951ce,2023-06-16_10h30.48.571,phx_ver10,2022.2.5,Linux x86_64,60.06006006,,,,,,,,,,,,6,testing_1,zh2x,e,zh2x_e,zh2x_8_exe.wav,zh2x_8_exe_copy.wav,,TRUE,TRUE,,,,,,,,,,,,,,f,0.4795,space,0.9625,,,,,,,,0,93,93,5,1,,
59e675a6c0d35a00012951ce,2023-06-16_10h30.48.571,phx_ver10,2022.2.5,Linux x86_64,60.06006006,,,,,,,,,,,,61,testing_3,zh2j,e,zh2j_e,zh2j_1_ezhe.wav,zh2j_1_ezhe.wav,,TRUE,FALSE,,,,,,,,,,,,,,f,1.0631,space,1.4514,,,,,,,,0,94,94,60,1,,
59e675a6c0d35a00012951ce,2023-06-16_10h30.48.571,phx_ver10,2022.2.5,Linux x86_64,60.06006006,,,,,,,,,,,,76,testing_3,j2x,a,j2x_a,j2x_8_axa.wav,j2x_1_aja.wav,,FALSE,FALSE,,,,,,,,,,,,,,j,0.3572,space,0.7568,,,,,,,,0,95,95,75,1,,
59e675a6c0d35a00012951ce,2023-06-16_10h30.48.571,phx_ver10,2022.2.5,Linux x86_64,60.06006006,,,,,,,,,,,,110,testing_3,sh2x,e,sh2x_e,sh2x_8_exe.wav,sh2x_8_exe.wav,,TRUE,FALSE,,,,,,,,,,,,,,f,0.3409,space,0.6716,,,,,,,,0,96,96,109,1,,
59e675a6c0d35a00012951ce,2023-06-16_10h30.48.571,phx_ver10,2022.2.5,Linux x86_64,60.06006006,,,,,,,,,,,,46,testing_3,zh2sh,i,zh2sh_i,zh2sh_8_ishi.wav,zh2sh_8_ishi.wav,,TRUE,FALSE,,,,,,,,,,,,,,f,0.3185,space,0.658,,,,,,,,0,97,97,45,1,,
59e675a6c0d35a00012951ce,2023-06-16_10h30.48.571,phx_ver10,2022.2.5,Linux x86_64,60.06006006,,,,,,,,,,,,139,testing_3,sh2j,ei,sh2j_ei,sh2j_1_eishei.wav,sh2j_8_eijei.wav,,FALSE,FALSE,,,,,,,,,,,,,,j,0.3762,space,0.6734,,,,,,,,0,98,98,138,1,,
59e675a6c0d35a00012951ce,2023-06-16_10h30.48.571,phx_ver10,2022.2.5,Linux x86_64,60.06006006,,,,,,,,,,,,25,testing_3,zh2sh,a,zh2sh_a,zh2sh_1_azha.wav,zh2sh_1_azha.wav,,TRUE,FALSE,,,,,,,,,,,,,,f,0.4371,space,0.8244,,,,,,,,0,99,99,24,1,,
59e675a6c0d35a00012951ce,2023-06-16_10h30.48.571,phx_ver10,2022.2.5,Linux x86_64,60.06006006,,,,,,,,,,,,92,testing_3,j2x,ei,j2x_ei,j2x_8_eixei.wav,j2x_1_eijei.wav,,FALSE,FALSE,,,,,,,,,,,,,,f,0.4677,space,0.803,,,,,,,,0,100,100,91,1,,
59e675a6c0d35a00012951ce,2023-06-16_10h30.48.571,phx_ver10,2022.2.5,Linux x86_64,60.06006006,,,,,,,,,,,,53,testing_3,zh2j,ai,zh2j_ai,zh2j_1_aizhai.wav,zh2j_1_aizhai.wav,,TRUE,FALSE,,,,,,,,,,,,,,f,0.4562,space,0.6777,,,,,,,,0,101,101,52,1,,
59e675a6c0d35a00012951ce,2023-06-16_10h30.48.571,phx_ver10,2022.2.5,Linux x86_64,60.06006006,,,,,,,,,,,,111,testing_3,sh2x,e,sh2x_e,sh2x_1_eshe.wav,sh2x_8_exe.wav,,FALSE,FALSE,,,,,,,,,,,,,,f,0.0053,space,0.3177,,,,,,,,0,102,102,110,1,,
59e675a6c0d35a00012951ce,2023-06-16_10h30.48.571,phx_ver10,2022.2.5,Linux x86_64,60.06006006,,,,,,,,,,,,117,testing_3,sh2x,i,sh2x_i,sh2x_1_ishi.wav,sh2x_1_ishi.wav,,TRUE,FALSE,,,,,,,,,,,,,,f,0.5592,space,0.9915,,,,,,,,0,103,103,116,1,,
59e675a6c0d35a00012951ce,2023-06-16_10h30.48.571,phx_ver10,2022.2.5,Linux x86_64,60.06006006,,,,,,,,,,,,74,testing_3,j2x,a,j2x_a,j2x_8_axa.wav,j2x_8_axa.wav,,TRUE,FALSE,,,,,,,,,,,,,,f,0.234,space,0.6516,,,,,,,,0,104,104,73,1,,
59e675a6c0d35a00012951ce,2023-06-16_10h30.48.571,phx_ver10,2022.2.5,Linux x86_64,60.06006006,,,,,,,,,,,,77,testing_3,j2x,ai,j2x_ai,j2x_1_aijai.wav,j2x_1_aijai.wav,,TRUE,FALSE,,,,,,,,,,,,,,f,0.369,space,0.7022,,,,,,,,0,105,105,76,1,,
59e675a6c0d35a00012951ce,2023-06-16_10h30.48.571,phx_ver10,2022.2.5,Linux x86_64,60.06006006,,,,,,,,,,,,107,testing_3,sh2x,au,sh2x_au,sh2x_1_aushau.wav,sh2x_8_auxau.wav,,FALSE,FALSE,,,,,,,,,,,,,,f,0.5838,space,0.8836,,,,,,,,0,106,106,106,1,,
59e675a6c0d35a00012951ce,2023-06-16_10h30.48.571,phx_ver10,2022.2.5,Linux x86_64,60.06006006,,,,,,,,,,,,126,testing_3,sh2j,ai,sh2j_ai,sh2j_8_aijai.wav,sh2j_8_aijai.wav,,TRUE,FALSE,,,,,,,,,,,,,,j,1.258,space,1.5057,,,,,,,,0,107,107,125,1,,
59e675a6c0d35a00012951ce,2023-06-16_10h30.48.571,phx_ver10,2022.2.5,Linux x86_64,60.06006006,,,,,,,,,,,,109,testing_3,sh2x,e,sh2x_e,sh2x_1_eshe.wav,sh2x_1_eshe.wav,,TRUE,FALSE,,,,,,,,,,,,,,f,0.1294,space,0.5684,,,,,,,,0,108,108,108,1,,
59e675a6c0d35a00012951ce,2023-06-16_10h30.48.571,phx_ver10,2022.2.5,Linux x86_64,60.06006006,,,,,,,,,,,,143,testing_3,sh2j,i,sh2j_i,sh2j_1_ishi.wav,sh2j_8_iji.wav,,FALSE,FALSE,,,,,,,,,,,,,,f,4.1978,space,5.1325,,,,,,,,0,109,109,142,1,,
59e675a6c0d35a00012951ce,2023-06-16_10h30.48.571,phx_ver10,2022.2.5,Linux x86_64,60.06006006,,,,,,,,,,,,138,testing_3,sh2j,ei,sh2j_ei,sh2j_8_eijei.wav,sh2j_8_eijei.wav,,TRUE,FALSE,,,,,,,,,,,,,,f,0.1925,space,0.5922,,,,,,,,0,110,110,137,1,,
59e675a6c0d35a00012951ce,2023-06-16_10h30.48.571,phx_ver10,2022.2.5,Linux x86_64,60.06006006,,,,,,,,,,,,140,testing_3,sh2j,ei,sh2j_ei,sh2j_8_eijei.wav,sh2j_1_eishei.wav,,FALSE,FALSE,,,,,,,,,,,,,,j,0.3695,space,0.7335,,,,,,,,0,111,111,139,1,,
59e675a6c0d35a00012951ce,2023-06-16_10h30.48.571,phx_ver10,2022.2.5,Linux x86_64,60.06006006,,,,,,,,,,,,56,testing_3,zh2j,ai,zh2j_ai,zh2j_8_aijai.wav,zh2j_1_aizhai.wav,,FALSE,FALSE,,,,,,,,,,,,,,f,0.2382,space,0.8364,,,,,,,,0,112,112,55,1,,
59e675a6c0d35a00012951ce,2023-06-16_10h30.48.571,phx_ver10,2022.2.5,Linux x86_64,60.06006006,,,,,,,,,,,,51,testing_3,zh2j,a,zh2j_a,zh2j_1_azha.wav,zh2j_8_aja.wav,,FALSE,FALSE,,,,,,,,,,,,,,f,0.2344,space,0.5812,,,,,,,,0,113,113,50,1,,
59e675a6c0d35a00012951ce,2023-06-16_10h30.48.571,phx_ver10,2022.2.5,Linux x86_64,60.06006006,,,,,,,,,,,,81,testing_3,j2x,au,j2x_au,j2x_1_aujau.wav,j2x_1_aujau.wav,,TRUE,FALSE,,,,,,,,,,,,,,f,0.7411,space,1.2073,,,,,,,,0,114,114,80,1,,
59e675a6c0d35a00012951ce,2023-06-16_10h30.48.571,phx_ver10,2022.2.5,Linux x86_64,60.06006006,,,,,,,,,,,,123,testing_3,sh2j,a,sh2j_a,sh2j_1_asha.wav,sh2j_8_aja.wav,,FALSE,FALSE,,,,,,,,,,,,,,f,0.0861,space,0.5355,,,,,,,,0,115,115,122,1,,
59e675a6c0d35a00012951ce,2023-06-16_10h30.48.571,phx_ver10,2022.2.5,Linux x86_64,60.06006006,,,,,,,,,,,,21,testing_2,zh2x,ei,zh2x_ei,zh2x_1_eizhei.wav,zh2x_1_eizhei.wav,,TRUE,FALSE,,,,,,,,,,,,,,f,0.0867,space,0.4504,,,,,,,,0,116,116,20,1,,
59e675a6c0d35a00012951ce,2023-06-16_10h30.48.571,phx_ver10,2022.2.5,Linux x86_64,60.06006006,,,,,,,,,,,,136,testing_3,sh2j,e,sh2j_e,sh2j_8_eje.wav,sh2j_1_eshe.wav,,FALSE,FALSE,,,,,,,,,,,,,,f,0.6041,space,0.9717,,,,,,,,0,117,117,135,1,,
59e675a6c0d35a00012951ce,2023-06-16_10h30.48.571,phx_ver10,2022.2.5,Linux x86_64,60.06006006,,,,,,,,,,,,141,testing_3,sh2j,i,sh2j_i,sh2j_1_ishi.wav,sh2j_1_ishi.wav,,TRUE,FALSE,,,,,,,,,,,,,,f,0.2891,space,0.6846,,,,,,,,0,118,118,140,1,,
59e675a6c0d35a00012951ce,2023-06-16_10h30.48.571,phx_ver10,2022.2.5,Linux x86_64,60.06006006,,,,,,,,,,,,114,testing_3,sh2x,ei,sh2x_ei,sh2x_8_eixei.wav,sh2x_8_eixei.wav,,TRUE,FALSE,,,,,,,,,,,,,,f,1.472,space,2.3529,,,,,,,,0,119,119,113,1,,
59e675a6c0d35a00012951ce,2023-06-16_10h30.48.571,phx_ver10,2022.2.5,Linux x86_64,60.06006006,,,,,,,,,,,,93,testing_3,j2x,i,j2x_i,j2x_1_iji.wav,j2x_1_iji.wav,,TRUE,FALSE,,,,,,,,,,,,,,f,1.3367,space,1.7364,,,,,,,,0,120,120,92,1,,
59e675a6c0d35a00012951ce,2023-06-16_10h30.48.571,phx_ver10,2022.2.5,Linux x86_64,60.06006006,,,,,,,,,,,,88,testing_3,j2x,e,j2x_e,j2x_8_exe.wav,j2x_1_eje.wav,,FALSE,FALSE,,,,,,,,,,,,,,f,0.6245,space,1.0078,,,,,,,,0,121,121,87,1,,
59e675a6c0d35a00012951ce,2023-06-16_10h30.48.571,phx_ver10,2022.2.5,Linux x86_64,60.06006006,,,,,,,,,,,,121,testing_3,sh2j,a,sh2j_a,sh2j_1_asha.wav,sh2j_1_asha.wav,,TRUE,FALSE,,,,,,,,,,,,,,f,0.8189,space,1.1968,,,,,,,,0,122,122,120,1,,
59e675a6c0d35a00012951ce,2023-06-16_10h30.48.571,phx_ver10,2022.2.5,Linux x86_64,60.06006006,,,,,,,,,,,,71,testing_3,zh2j,i,zh2j_i,zh2j_1_izhi.wav,zh2j_8_iji.wav,,FALSE,FALSE,,,,,,,,,,,,,,f,0.9122,space,1.2031,,,,,,,,0,123,123,70,1,,
59e675a6c0d35a00012951ce,2023-06-16_10h30.48.571,phx_ver10,2022.2.5,Linux x86_64,60.06006006,,,,,,,,,,,,96,testing_3,j2x,i,j2x_i,j2x_8_ixi.wav,j2x_1_iji.wav,,FALSE,FALSE,,,,,,,,,,,,,,f,0.1017,space,0.5887,,,,,,,,0,124,124,95,1,,
59e675a6c0d35a00012951ce,2023-06-16_10h30.48.571,phx_ver10,2022.2.5,Linux x86_64,60.06006006,,,,,,,,,,,,83,testing_3,j2x,au,j2x_au,j2x_1_aujau.wav,j2x_8_auxau.wav,,FALSE,FALSE,,,,,,,,,,,,,,j,0.3588,space,0.7946,,,,,,,,0,125,125,82,1,,
59e675a6c0d35a00012951ce,2023-06-16_10h30.48.571,phx_ver10,2022.2.5,Linux x86_64,60.06006006,,,,,,,,,,,,55,testing_3,zh2j,ai,zh2j_ai,zh2j_1_aizhai.wav,zh2j_8_aijai.wav,,FALSE,FALSE,,,,,,,,,,,,,,f,0.4846,space,0.9684,,,,,,,,0,126,126,54,1,,
59e675a6c0d35a00012951ce,2023-06-16_10h30.48.571,phx_ver10,2022.2.5,Linux x86_64,60.06006006,,,,,,,,,,,,134,testing_3,sh2j,e,sh2j_e,sh2j_8_eje.wav,sh2j_8_eje.wav,,TRUE,FALSE,,,,,,,,,,,,,,f,0.7114,space,1.0906,,,,,,,,0,127,127,133,1,,
59e675a6c0d35a00012951ce,2023-06-16_10h30.48.571,phx_ver10,2022.2.5,Linux x86_64,60.06006006,,,,,,,,,,,,68,testing_3,zh2j,ei,zh2j_ei,zh2j_8_eijei.wav,zh2j_1_eizhei.wav,,FALSE,FALSE,,,,,,,,,,,,,,f,0.7233,space,1.0447,,,,,,,,0,128,128,67,1,,
59e675a6c0d35a00012951ce,2023-06-16_10h30.48.571,phx_ver10,2022.2.5,Linux x86_64,60.06006006,,,,,,,,,,,,8,testing_1,zh2x,e,zh2x_e,zh2x_8_exe.wav,zh2x_1_ezhe.wav,,FALSE,TRUE,,,,,,,,,,,,,,f,0.2683,space,0.6675,,,,,,,,0,129,129,7,1,,
59e675a6c0d35a00012951ce,2023-06-16_10h30.48.571,phx_ver10,2022.2.5,Linux x86_64,60.06006006,,,,,,,,,,,,65,testing_3,zh2j,ei,zh2j_ei,zh2j_1_eizhei.wav,zh2j_1_eizhei.wav,,TRUE,FALSE,,,,,,,,,,,,,,f,0.2534,space,0.53,,,,,,,,0,130,130,64,1,,
59e675a6c0d35a00012951ce,2023-06-16_10h30.48.571,phx_ver10,2022.2.5,Linux x86_64,60.06006006,,,,,,,,,,,,95,testing_3,j2x,i,j2x_i,j2x_1_iji.wav,j2x_8_ixi.wav,,FALSE,FALSE,,,,,,,,,,,,,,j,0.1948,space,0.4536,,,,,,,,0,131,131,94,1,,
59e675a6c0d35a00012951ce,2023-06-16_10h30.48.571,phx_ver10,2022.2.5,Linux x86_64,60.06006006,,,,,,,,,,,,87,testing_3,j2x,e,j2x_e,j2x_1_eje.wav,j2x_8_exe.wav,,FALSE,FALSE,,,,,,,,,,,,,,j,0.4144,space,0.6819,,,,,,,,0,132,132,86,1,,
59e675a6c0d35a00012951ce,2023-06-16_10h30.48.571,phx_ver10,2022.2.5,Linux x86_64,60.06006006,,,,,,,,,,,,12,testing_1,zh2x,i,zh2x_i,zh2x_8_ixi.wav,zh2x_1_izhi.wav,,FALSE,TRUE,,,,,,,,,,,,,,f,0.3337,space,0.6652,,,,,,,,0,133,133,11,1,,
59e675a6c0d35a00012951ce,2023-06-16_10h30.48.571,phx_ver10,2022.2.5,Linux x86_64,60.06006006,,,,,,,,,,,,94,testing_3,j2x,i,j2x_i,j2x_8_ixi.wav,j2x_8_ixi.wav,,TRUE,FALSE,,,,,,,,,,,,,,f,0.0367,space,0.3232,,,,,,,,0,134,134,93,1,,
59e675a6c0d35a00012951ce,2023-06-16_10h30.48.571,phx_ver10,2022.2.5,Linux x86_64,60.06006006,,,,,,,,,,,,125,testing_3,sh2j,ai,sh2j_ai,sh2j_1_aishai.wav,sh2j_1_aishai.wav,,TRUE,FALSE,,,,,,,,,,,,,,f,0.4203,space,0.7389,,,,,,,,0,135,135,124,1,,
59e675a6c0d35a00012951ce,2023-06-16_10h30.48.571,phx_ver10,2022.2.5,Linux x86_64,60.06006006,,,,,,,,,,,,52,testing_3,zh2j,a,zh2j_a,zh2j_8_aja.wav,zh2j_1_azha.wav,,FALSE,FALSE,,,,,,,,,,,,,,f,0.1364,space,0.4006,,,,,,,,0,136,136,51,1,,
59e675a6c0d35a00012951ce,2023-06-16_10h30.48.571,phx_ver10,2022.2.5,Linux x86_64,60.06006006,,,,,,,,,,,,122,testing_3,sh2j,a,sh2j_a,sh2j_8_aja.wav,sh2j_8_aja.wav,,TRUE,FALSE,,,,,,,,,,,,,,f,0.3186,space,0.6025,,,,,,,,0,137,137,121,1,,
59e675a6c0d35a00012951ce,2023-06-16_10h30.48.571,phx_ver10,2022.2.5,Linux x86_64,60.06006006,,,,,,,,,,,,78,testing_3,j2x,ai,j2x_ai,j2x_8_aixai.wav,j2x_8_aixai.wav,,TRUE,FALSE,,,,,,,,,,,,,,f,0.0155,space,0.2892,,,,,,,,0,138,138,77,1,,
59e675a6c0d35a00012951ce,2023-06-16_10h30.48.571,phx_ver10,2022.2.5,Linux x86_64,60.06006006,,,,,,,,,,,,34,testing_3,zh2sh,au,zh2sh_au,zh2sh_8_aushau.wav,zh2sh_8_aushau.wav,,TRUE,FALSE,,,,,,,,,,,,,,f,0.1964,space,0.4317,,,,,,,,0,139,139,33,1,,
59e675a6c0d35a00012951ce,2023-06-16_10h30.48.571,phx_ver10,2022.2.5,Linux x86_64,60.06006006,,,,,,,,,,,,119,testing_3,sh2x,i,sh2x_i,sh2x_1_ishi.wav,sh2x_8_ixi.wav,,FALSE,FALSE,,,,,,,,,,,,,,f,0.1514,space,0.4041,,,,,,,,0,140,140,118,1,,
59e675a6c0d35a00012951ce,2023-06-16_10h30.48.571,phx_ver10,2022.2.5,Linux x86_64,60.06006006,,,,,,,,,,,,128,testing_3,sh2j,ai,sh2j_ai,sh2j_8_aijai.wav,sh2j_1_aishai.wav,,FALSE,FALSE,,,,,,,,,,,,,,j,0.7012,space,0.9829,,,,,,,,0,141,141,127,1,,
59e675a6c0d35a00012951ce,2023-06-16_10h30.48.571,phx_ver10,2022.2.5,Linux x86_64,60.06006006,,,,,,,,,,,,105,testing_3,sh2x,au,sh2x_au,sh2x_1_aushau.wav,sh2x_1_aushau.wav,,TRUE,FALSE,,,,,,,,,,,,,,f,0.1682,space,0.8602,,,,,,,,0,142,142,104,1,,
59e675a6c0d35a00012951ce,2023-06-16_10h30.48.571,phx_ver10,2022.2.5,Linux x86_64,60.06006006,,,,,,,,,,,,37,testing_3,zh2sh,e,zh2sh_e,zh2sh_1_ezhe.wav,zh2sh_1_ezhe.wav,,TRUE,FALSE,,,,,,,,,,,,,,f,0.1009,space,0.4014,,,,,,,,0,143,143,36,1,,
59e675a6c0d35a00012951ce,2023-06-16_10h30.48.571,phx_ver10,2022.2.5,Linux x86_64,60.06006006,,,,,,,,,,,,,,,,,,,,,,,,,,,,,,,,,,,,,,,,,,,,,,,,,,,space,3.6085
