participant,date,expName,psychopyVersion,OS,frameRate,space_1.keys,space_1.rt,space_2.keys,space_2.rt,space_train.keys,space_train.rt,training.thisRepN,training.thisTrialN,training.thisN,training.thisIndex,training.ran,token_id,task,continuum,vowel,series,sound_1,sound_2,img,same,trained,FJ_attn.keys,FJ_attn.rt,space_attn.keys,space_attn.rt,if_attn_test.thisRepN,if_attn_test.thisTrialN,if_attn_test.thisN,if_attn_test.thisIndex,if_attn_test.ran,space_trans_1.keys,space_trans_1.rt,space_trans_11.keys,space_trans_11.rt,FJ_test.keys,FJ_test.rt,space_test.keys,space_test.rt,testing_pre.thisRepN,testing_pre.thisTrialN,testing_pre.thisN,testing_pre.thisIndex,testing_pre.ran,space_trans_2.keys,space_trans_2.rt,testing_all.thisRepN,testing_all.thisTrialN,testing_all.thisN,testing_all.thisIndex,testing_all.ran,space_ending.keys,space_ending.rt
5a0c036857cee70001767a58,2023-06-16_10h19.28.157,phx_ver10,2022.2.5,Win32,59.78715772,,,,,,,,,,,,,,,,,,,,,,,,,,,,,,,,,,,,,,,,,,,,,,,,,,,,
5a0c036857cee70001767a58,2023-06-16_10h19.28.157,phx_ver10,2022.2.5,Win32,59.78715772,space,5.9164,,,,,,,,,,,,,,,,,,,,,,,,,,,,,,,,,,,,,,,,,,,,,,,,,,
5a0c036857cee70001767a58,2023-06-16_10h19.28.157,phx_ver10,2022.2.5,Win32,59.78715772,,,space,2.2559,,,,,,,,,,,,,,,,,,,,,,,,,,,,,,,,,,,,,,,,,,,,,,,,
5a0c036857cee70001767a58,2023-06-16_10h19.28.157,phx_ver10,2022.2.5,Win32,59.78715772,,,,,space,1.2892,0,0,0,0,1,1,training,zh2x,a,zh2x_a,zh2x_1_azha.wav,,azha.jpg,,,,,,,,,,,,,,,,,,,,,,,,,,,,,,,,,
5a0c036857cee70001767a58,2023-06-16_10h19.28.157,phx_ver10,2022.2.5,Win32,59.78715772,,,,,space,2.5872,0,1,1,18,1,19,training,zh2x,e,zh2x_e,zh2x_2_ezhe.wav,,ezhe.jpg,,,,,,,,,,,,,,,,,,,,,,,,,,,,,,,,,
5a0c036857cee70001767a58,2023-06-16_10h19.28.157,phx_ver10,2022.2.5,Win32,59.78715772,,,,,space,2.0894,0,2,2,3,1,4,training,zh2x,a,zh2x_a,zh2x_2_azha.wav,,azha.jpg,,,,,,,,,,,,,,,,,,,,,,,,,,,,,,,,,
5a0c036857cee70001767a58,2023-06-16_10h19.28.157,phx_ver10,2022.2.5,Win32,59.78715772,,,,,space,0.9659,0,3,3,7,1,8,training,zh2x,a,zh2x_a,zh2x_4_azha.wav,,azha.jpg,,,,,,,,,,,,,,,,,,,,,,,,,,,,,,,,,
5a0c036857cee70001767a58,2023-06-16_10h19.28.157,phx_ver10,2022.2.5,Win32,59.78715772,,,,,space,1.4761,0,4,4,27,1,28,training,zh2x,e,zh2x_e,zh2x_7_exe.wav,,exe.jpg,,,,,,,,,,,,,,,,,,,,,,,,,,,,,,,,,
5a0c036857cee70001767a58,2023-06-16_10h19.28.157,phx_ver10,2022.2.5,Win32,59.78715772,,,,,space,1.2523,0,5,5,45,1,46,training,zh2x,i,zh2x_i,zh2x_7_ixi.wav,,ixi.jpg,,,,,,,,,,,,,,,,,,,,,,,,,,,,,,,,,
5a0c036857cee70001767a58,2023-06-16_10h19.28.157,phx_ver10,2022.2.5,Win32,59.78715772,,,,,,,,,,,,,attn_test,,,,zh2x_1_ezhe.wav,zh2x_1_azha.wav,azha.jpg,RIGHT,,j,3.1527,space,6.6877,0,0,0,0,1,,,,,,,,,,,,,,,,,,,,,,
5a0c036857cee70001767a58,2023-06-16_10h19.28.157,phx_ver10,2022.2.5,Win32,59.78715772,,,,,space,2.1188,0,6,6,38,1,39,training,zh2x,i,zh2x_i,zh2x_3_izhi.wav,,izhi.jpg,,,,,,,,,,,,,,,,,,,,,,,,,,,,,,,,,
5a0c036857cee70001767a58,2023-06-16_10h19.28.157,phx_ver10,2022.2.5,Win32,59.78715772,,,,,space,0.7719,0,7,7,24,1,25,training,zh2x,e,zh2x_e,zh2x_5_exe.wav,,exe.jpg,,,,,,,,,,,,,,,,,,,,,,,,,,,,,,,,,
5a0c036857cee70001767a58,2023-06-16_10h19.28.157,phx_ver10,2022.2.5,Win32,59.78715772,,,,,space,0.6687,0,8,8,6,1,7,training,zh2x,a,zh2x_a,zh2x_3_azha.wav,,azha.jpg,,,,,,,,,,,,,,,,,,,,,,,,,,,,,,,,,
5a0c036857cee70001767a58,2023-06-16_10h19.28.157,phx_ver10,2022.2.5,Win32,59.78715772,,,,,space,0.5226,0,9,9,5,1,6,training,zh2x,a,zh2x_a,zh2x_3_azha.wav,,azha.jpg,,,,,,,,,,,,,,,,,,,,,,,,,,,,,,,,,
5a0c036857cee70001767a58,2023-06-16_10h19.28.157,phx_ver10,2022.2.5,Win32,59.78715772,,,,,space,1.5355,0,10,10,43,1,44,training,zh2x,i,zh2x_i,zh2x_7_ixi.wav,,ixi.jpg,,,,,,,,,,,,,,,,,,,,,,,,,,,,,,,,,
5a0c036857cee70001767a58,2023-06-16_10h19.28.157,phx_ver10,2022.2.5,Win32,59.78715772,,,,,space,0.9344,0,11,11,10,1,11,training,zh2x,a,zh2x_a,zh2x_6_axa.wav,,axa.jpg,,,,,,,,,,,,,,,,,,,,,,,,,,,,,,,,,
5a0c036857cee70001767a58,2023-06-16_10h19.28.157,phx_ver10,2022.2.5,Win32,59.78715772,,,,,,,,,,,,,attn_test,,,,zh2x_1_azha.wav,zh2x_1_ezhe.wav,azha.jpg,LEFT,,f,1.7368,space,3.6066,0,0,0,0,1,,,,,,,,,,,,,,,,,,,,,,
5a0c036857cee70001767a58,2023-06-16_10h19.28.157,phx_ver10,2022.2.5,Win32,59.78715772,,,,,space,0.9547,0,12,12,22,1,23,training,zh2x,e,zh2x_e,zh2x_3_ezhe.wav,,ezhe.jpg,,,,,,,,,,,,,,,,,,,,,,,,,,,,,,,,,
5a0c036857cee70001767a58,2023-06-16_10h19.28.157,phx_ver10,2022.2.5,Win32,59.78715772,,,,,space,0.7206,0,13,13,28,1,29,training,zh2x,e,zh2x_e,zh2x_7_exe.wav,,exe.jpg,,,,,,,,,,,,,,,,,,,,,,,,,,,,,,,,,
5a0c036857cee70001767a58,2023-06-16_10h19.28.157,phx_ver10,2022.2.5,Win32,59.78715772,,,,,space,0.4841,0,14,14,16,1,17,training,zh2x,e,zh2x_e,zh2x_1_ezhe.wav,,ezhe.jpg,,,,,,,,,,,,,,,,,,,,,,,,,,,,,,,,,
5a0c036857cee70001767a58,2023-06-16_10h19.28.157,phx_ver10,2022.2.5,Win32,59.78715772,,,,,space,0.401,0,15,15,20,1,21,training,zh2x,e,zh2x_e,zh2x_2_ezhe.wav,,ezhe.jpg,,,,,,,,,,,,,,,,,,,,,,,,,,,,,,,,,
5a0c036857cee70001767a58,2023-06-16_10h19.28.157,phx_ver10,2022.2.5,Win32,59.78715772,,,,,space,0.5847,0,16,16,2,1,3,training,zh2x,a,zh2x_a,zh2x_2_azha.wav,,azha.jpg,,,,,,,,,,,,,,,,,,,,,,,,,,,,,,,,,
5a0c036857cee70001767a58,2023-06-16_10h19.28.157,phx_ver10,2022.2.5,Win32,59.78715772,,,,,space,0.5869,0,17,17,42,1,43,training,zh2x,i,zh2x_i,zh2x_6_ixi.wav,,ixi.jpg,,,,,,,,,,,,,,,,,,,,,,,,,,,,,,,,,
5a0c036857cee70001767a58,2023-06-16_10h19.28.157,phx_ver10,2022.2.5,Win32,59.78715772,,,,,,,,,,,,,attn_test,,,,zh2x_1_izhi.wav,zh2x_1_ezhe.wav,ezhe.jpg,RIGHT,,j,0.9422,space,2.0058,0,0,0,0,1,,,,,,,,,,,,,,,,,,,,,,
5a0c036857cee70001767a58,2023-06-16_10h19.28.157,phx_ver10,2022.2.5,Win32,59.78715772,,,,,space,0.791,0,18,18,21,1,22,training,zh2x,e,zh2x_e,zh2x_3_ezhe.wav,,ezhe.jpg,,,,,,,,,,,,,,,,,,,,,,,,,,,,,,,,,
5a0c036857cee70001767a58,2023-06-16_10h19.28.157,phx_ver10,2022.2.5,Win32,59.78715772,,,,,space,1.5415,0,19,19,12,1,13,training,zh2x,a,zh2x_a,zh2x_7_axa.wav,,axa.jpg,,,,,,,,,,,,,,,,,,,,,,,,,,,,,,,,,
5a0c036857cee70001767a58,2023-06-16_10h19.28.157,phx_ver10,2022.2.5,Win32,59.78715772,,,,,space,1.9866,0,20,20,33,1,34,training,zh2x,i,zh2x_i,zh2x_2_izhi.wav,,izhi.jpg,,,,,,,,,,,,,,,,,,,,,,,,,,,,,,,,,
5a0c036857cee70001767a58,2023-06-16_10h19.28.157,phx_ver10,2022.2.5,Win32,59.78715772,,,,,space,2.2428,0,21,21,15,1,16,training,zh2x,a,zh2x_a,zh2x_8_axa.wav,,axa.jpg,,,,,,,,,,,,,,,,,,,,,,,,,,,,,,,,,
5a0c036857cee70001767a58,2023-06-16_10h19.28.157,phx_ver10,2022.2.5,Win32,59.78715772,,,,,space,0.5211,0,22,22,8,1,9,training,zh2x,a,zh2x_a,zh2x_5_axa.wav,,axa.jpg,,,,,,,,,,,,,,,,,,,,,,,,,,,,,,,,,
5a0c036857cee70001767a58,2023-06-16_10h19.28.157,phx_ver10,2022.2.5,Win32,59.78715772,,,,,space,0.7015,0,23,23,14,1,15,training,zh2x,a,zh2x_a,zh2x_7_axa.wav,,axa.jpg,,,,,,,,,,,,,,,,,,,,,,,,,,,,,,,,,
5a0c036857cee70001767a58,2023-06-16_10h19.28.157,phx_ver10,2022.2.5,Win32,59.78715772,,,,,,,,,,,,,attn_test,,,,zh2x_1_azha.wav,zh2x_1_ezhe.wav,ezhe.jpg,RIGHT,,j,0.3044,space,1.1211,0,0,0,0,1,,,,,,,,,,,,,,,,,,,,,,
5a0c036857cee70001767a58,2023-06-16_10h19.28.157,phx_ver10,2022.2.5,Win32,59.78715772,,,,,space,0.4535,0,24,24,4,1,5,training,zh2x,a,zh2x_a,zh2x_2_azha.wav,,azha.jpg,,,,,,,,,,,,,,,,,,,,,,,,,,,,,,,,,
5a0c036857cee70001767a58,2023-06-16_10h19.28.157,phx_ver10,2022.2.5,Win32,59.78715772,,,,,space,0.9494,0,25,25,25,1,26,training,zh2x,e,zh2x_e,zh2x_6_exe.wav,,exe.jpg,,,,,,,,,,,,,,,,,,,,,,,,,,,,,,,,,
5a0c036857cee70001767a58,2023-06-16_10h19.28.157,phx_ver10,2022.2.5,Win32,59.78715772,,,,,space,1.0494,0,26,26,47,1,48,training,zh2x,i,zh2x_i,zh2x_8_ixi.wav,,ixi.jpg,,,,,,,,,,,,,,,,,,,,,,,,,,,,,,,,,
5a0c036857cee70001767a58,2023-06-16_10h19.28.157,phx_ver10,2022.2.5,Win32,59.78715772,,,,,space,0.6936,0,27,27,31,1,32,training,zh2x,e,zh2x_e,zh2x_8_exe.wav,,exe.jpg,,,,,,,,,,,,,,,,,,,,,,,,,,,,,,,,,
5a0c036857cee70001767a58,2023-06-16_10h19.28.157,phx_ver10,2022.2.5,Win32,59.78715772,,,,,space,0.3177,0,28,28,29,1,30,training,zh2x,e,zh2x_e,zh2x_7_exe.wav,,exe.jpg,,,,,,,,,,,,,,,,,,,,,,,,,,,,,,,,,
5a0c036857cee70001767a58,2023-06-16_10h19.28.157,phx_ver10,2022.2.5,Win32,59.78715772,,,,,space,0.4855,0,29,29,11,1,12,training,zh2x,a,zh2x_a,zh2x_7_axa.wav,,axa.jpg,,,,,,,,,,,,,,,,,,,,,,,,,,,,,,,,,
5a0c036857cee70001767a58,2023-06-16_10h19.28.157,phx_ver10,2022.2.5,Win32,59.78715772,,,,,,,,,,,,,attn_test,,,,zh2x_8_exe.wav,zh2x_1_izhi.wav,exe.jpg,LEFT,,f,2.19,space,3.3727,0,0,0,0,1,,,,,,,,,,,,,,,,,,,,,,
5a0c036857cee70001767a58,2023-06-16_10h19.28.157,phx_ver10,2022.2.5,Win32,59.78715772,,,,,space,0.4608,0,30,30,46,1,47,training,zh2x,i,zh2x_i,zh2x_7_ixi.wav,,ixi.jpg,,,,,,,,,,,,,,,,,,,,,,,,,,,,,,,,,
5a0c036857cee70001767a58,2023-06-16_10h19.28.157,phx_ver10,2022.2.5,Win32,59.78715772,,,,,space,1.0181,0,31,31,35,1,36,training,zh2x,i,zh2x_i,zh2x_2_izhi.wav,,izhi.jpg,,,,,,,,,,,,,,,,,,,,,,,,,,,,,,,,,
5a0c036857cee70001767a58,2023-06-16_10h19.28.157,phx_ver10,2022.2.5,Win32,59.78715772,,,,,space,0.5843,0,32,32,34,1,35,training,zh2x,i,zh2x_i,zh2x_2_izhi.wav,,izhi.jpg,,,,,,,,,,,,,,,,,,,,,,,,,,,,,,,,,
5a0c036857cee70001767a58,2023-06-16_10h19.28.157,phx_ver10,2022.2.5,Win32,59.78715772,,,,,space,0.4871,0,33,33,1,1,2,training,zh2x,a,zh2x_a,zh2x_2_azha.wav,,azha.jpg,,,,,,,,,,,,,,,,,,,,,,,,,,,,,,,,,
5a0c036857cee70001767a58,2023-06-16_10h19.28.157,phx_ver10,2022.2.5,Win32,59.78715772,,,,,space,0.6352,0,34,34,37,1,38,training,zh2x,i,zh2x_i,zh2x_3_izhi.wav,,izhi.jpg,,,,,,,,,,,,,,,,,,,,,,,,,,,,,,,,,
5a0c036857cee70001767a58,2023-06-16_10h19.28.157,phx_ver10,2022.2.5,Win32,59.78715772,,,,,space,0.4848,0,35,35,26,1,27,training,zh2x,e,zh2x_e,zh2x_6_exe.wav,,exe.jpg,,,,,,,,,,,,,,,,,,,,,,,,,,,,,,,,,
5a0c036857cee70001767a58,2023-06-16_10h19.28.157,phx_ver10,2022.2.5,Win32,59.78715772,,,,,,,,,,,,,attn_test,,,,zh2x_1_izhi.wav,zh2x_1_ezhe.wav,izhi.jpg,LEFT,,f,1.2384,space,2.1105,0,0,0,0,1,,,,,,,,,,,,,,,,,,,,,,
5a0c036857cee70001767a58,2023-06-16_10h19.28.157,phx_ver10,2022.2.5,Win32,59.78715772,,,,,space,0.557,0,36,36,19,1,20,training,zh2x,e,zh2x_e,zh2x_2_ezhe.wav,,ezhe.jpg,,,,,,,,,,,,,,,,,,,,,,,,,,,,,,,,,
5a0c036857cee70001767a58,2023-06-16_10h19.28.157,phx_ver10,2022.2.5,Win32,59.78715772,,,,,space,0.6679,0,37,37,44,1,45,training,zh2x,i,zh2x_i,zh2x_7_ixi.wav,,ixi.jpg,,,,,,,,,,,,,,,,,,,,,,,,,,,,,,,,,
5a0c036857cee70001767a58,2023-06-16_10h19.28.157,phx_ver10,2022.2.5,Win32,59.78715772,,,,,space,0.4362,0,38,38,23,1,24,training,zh2x,e,zh2x_e,zh2x_4_ezhe.wav,,ezhe.jpg,,,,,,,,,,,,,,,,,,,,,,,,,,,,,,,,,
5a0c036857cee70001767a58,2023-06-16_10h19.28.157,phx_ver10,2022.2.5,Win32,59.78715772,,,,,space,0.278,0,39,39,41,1,42,training,zh2x,i,zh2x_i,zh2x_6_ixi.wav,,ixi.jpg,,,,,,,,,,,,,,,,,,,,,,,,,,,,,,,,,
5a0c036857cee70001767a58,2023-06-16_10h19.28.157,phx_ver10,2022.2.5,Win32,59.78715772,,,,,space,0.1174,0,40,40,13,1,14,training,zh2x,a,zh2x_a,zh2x_7_axa.wav,,axa.jpg,,,,,,,,,,,,,,,,,,,,,,,,,,,,,,,,,
5a0c036857cee70001767a58,2023-06-16_10h19.28.157,phx_ver10,2022.2.5,Win32,59.78715772,,,,,space,0.4257,0,41,41,39,1,40,training,zh2x,i,zh2x_i,zh2x_4_izhi.wav,,izhi.jpg,,,,,,,,,,,,,,,,,,,,,,,,,,,,,,,,,
5a0c036857cee70001767a58,2023-06-16_10h19.28.157,phx_ver10,2022.2.5,Win32,59.78715772,,,,,,,,,,,,,attn_test,,,,zh2x_8_ixi.wav,zh2x_1_azha.wav,ixi.jpg,LEFT,,f,0.8663,space,1.7532,0,0,0,0,1,,,,,,,,,,,,,,,,,,,,,,
5a0c036857cee70001767a58,2023-06-16_10h19.28.157,phx_ver10,2022.2.5,Win32,59.78715772,,,,,space,0.444,0,42,42,40,1,41,training,zh2x,i,zh2x_i,zh2x_5_ixi.wav,,ixi.jpg,,,,,,,,,,,,,,,,,,,,,,,,,,,,,,,,,
5a0c036857cee70001767a58,2023-06-16_10h19.28.157,phx_ver10,2022.2.5,Win32,59.78715772,,,,,space,0.388,0,43,43,9,1,10,training,zh2x,a,zh2x_a,zh2x_6_axa.wav,,axa.jpg,,,,,,,,,,,,,,,,,,,,,,,,,,,,,,,,,
5a0c036857cee70001767a58,2023-06-16_10h19.28.157,phx_ver10,2022.2.5,Win32,59.78715772,,,,,space,0.5486,0,44,44,32,1,33,training,zh2x,i,zh2x_i,zh2x_1_izhi.wav,,izhi.jpg,,,,,,,,,,,,,,,,,,,,,,,,,,,,,,,,,
5a0c036857cee70001767a58,2023-06-16_10h19.28.157,phx_ver10,2022.2.5,Win32,59.78715772,,,,,space,0.2715,0,45,45,30,1,31,training,zh2x,e,zh2x_e,zh2x_7_exe.wav,,exe.jpg,,,,,,,,,,,,,,,,,,,,,,,,,,,,,,,,,
5a0c036857cee70001767a58,2023-06-16_10h19.28.157,phx_ver10,2022.2.5,Win32,59.78715772,,,,,space,0.2172,0,46,46,17,1,18,training,zh2x,e,zh2x_e,zh2x_2_ezhe.wav,,ezhe.jpg,,,,,,,,,,,,,,,,,,,,,,,,,,,,,,,,,
5a0c036857cee70001767a58,2023-06-16_10h19.28.157,phx_ver10,2022.2.5,Win32,59.78715772,,,,,space,0.4554,0,47,47,36,1,37,training,zh2x,i,zh2x_i,zh2x_2_izhi.wav,,izhi.jpg,,,,,,,,,,,,,,,,,,,,,,,,,,,,,,,,,
5a0c036857cee70001767a58,2023-06-16_10h19.28.157,phx_ver10,2022.2.5,Win32,59.78715772,,,,,,,,,,,,,attn_test,,,,zh2x_1_azha.wav,zh2x_8_ixi.wav,ixi.jpg,RIGHT,,j,0.4526,space,1.1357,,,,,,,,,,,,,,,,,,,,,,,,,,,
5a0c036857cee70001767a58,2023-06-16_10h19.28.157,phx_ver10,2022.2.5,Win32,59.78715772,,,,,,,,,,,,,,,,,,,,,,,,,,,,,,,space,2.5607,,,,,,,,,,,,,,,,,,,,
5a0c036857cee70001767a58,2023-06-16_10h19.28.157,phx_ver10,2022.2.5,Win32,59.78715772,,,,,,,,,,,,,,,,,,,,,,,,,,,,,,,,,space,8.5281,,,,,,,,,,,,,,,,,,
5a0c036857cee70001767a58,2023-06-16_10h19.28.157,phx_ver10,2022.2.5,Win32,59.78715772,,,,,,,,,,,,3,testing_pre,,,,afa.wav,aha.wav,,FALSE,,,,,,,,,,,,,,,j,6.5616,space,7.6582,0,0,0,2,1,,,,,,,,,
5a0c036857cee70001767a58,2023-06-16_10h19.28.157,phx_ver10,2022.2.5,Win32,59.78715772,,,,,,,,,,,,2,testing_pre,,,,auhau.wav,aufau.wav,,FALSE,,,,,,,,,,,,,,,j,2.0569,space,2.9693,0,1,1,1,1,,,,,,,,,
5a0c036857cee70001767a58,2023-06-16_10h19.28.157,phx_ver10,2022.2.5,Win32,59.78715772,,,,,,,,,,,,4,testing_pre,,,,eihei.wav,eihei.wav,,TRUE,,,,,,,,,,,,,,,f,0.9917,space,1.8238,0,2,2,3,1,,,,,,,,,
5a0c036857cee70001767a58,2023-06-16_10h19.28.157,phx_ver10,2022.2.5,Win32,59.78715772,,,,,,,,,,,,5,testing_pre,,,,ihi.wav,ifi.wav,,FALSE,,,,,,,,,,,,,,,f,3.0032,space,3.6212,0,3,3,4,1,,,,,,,,,
5a0c036857cee70001767a58,2023-06-16_10h19.28.157,phx_ver10,2022.2.5,Win32,59.78715772,,,,,,,,,,,,1,testing_pre,,,,ifi.wav,ifi.wav,,TRUE,,,,,,,,,,,,,,,f,0.8256,space,1.5354,0,4,4,0,1,,,,,,,,,
5a0c036857cee70001767a58,2023-06-16_10h19.28.157,phx_ver10,2022.2.5,Win32,59.78715772,,,,,,,,,,,,,,,,,,,,,,,,,,,,,,,,,,,,,,,,,,,,space,1.0237,,,,,,,
5a0c036857cee70001767a58,2023-06-16_10h19.28.157,phx_ver10,2022.2.5,Win32,59.78715772,,,,,,,,,,,,94,testing_3,j2x,i,j2x_i,j2x_8_ixi.wav,j2x_8_ixi.wav,,TRUE,FALSE,,,,,,,,,,,,,,f,0.8055,space,1.6374,,,,,,,,0,0,0,93,1,,
5a0c036857cee70001767a58,2023-06-16_10h19.28.157,phx_ver10,2022.2.5,Win32,59.78715772,,,,,,,,,,,,14,testing_2,zh2x,ai,zh2x_ai,zh2x_8_aixai.wav,zh2x_8_aixai.wav,,TRUE,FALSE,,,,,,,,,,,,,,f,0.5547,space,1.3683,,,,,,,,0,1,1,13,1,,
5a0c036857cee70001767a58,2023-06-16_10h19.28.157,phx_ver10,2022.2.5,Win32,59.78715772,,,,,,,,,,,,67,testing_3,zh2j,ei,zh2j_ei,zh2j_1_eizhei.wav,zh2j_8_eijei.wav,,FALSE,FALSE,,,,,,,,,,,,,,f,0.627,space,1.4429,,,,,,,,0,2,2,66,1,,
5a0c036857cee70001767a58,2023-06-16_10h19.28.157,phx_ver10,2022.2.5,Win32,59.78715772,,,,,,,,,,,,99,testing_3,sh2x,a,sh2x_a,sh2x_1_asha.wav,sh2x_8_axa.wav,,FALSE,FALSE,,,,,,,,,,,,,,j,0.7019,space,1.3926,,,,,,,,0,3,3,98,1,,
5a0c036857cee70001767a58,2023-06-16_10h19.28.157,phx_ver10,2022.2.5,Win32,59.78715772,,,,,,,,,,,,37,testing_3,zh2sh,e,zh2sh_e,zh2sh_1_ezhe.wav,zh2sh_1_ezhe.wav,,TRUE,FALSE,,,,,,,,,,,,,,f,0.5203,space,1.1136,,,,,,,,0,4,4,36,1,,
5a0c036857cee70001767a58,2023-06-16_10h19.28.157,phx_ver10,2022.2.5,Win32,59.78715772,,,,,,,,,,,,63,testing_3,zh2j,e,zh2j_e,zh2j_1_ezhe.wav,zh2j_8_eje.wav,,FALSE,FALSE,,,,,,,,,,,,,,j,0.7861,space,1.226,,,,,,,,0,5,5,62,1,,
5a0c036857cee70001767a58,2023-06-16_10h19.28.157,phx_ver10,2022.2.5,Win32,59.78715772,,,,,,,,,,,,113,testing_3,sh2x,ei,sh2x_ei,sh2x_1_eishei.wav,sh2x_1_eishei.wav,,TRUE,FALSE,,,,,,,,,,,,,,f,0.3768,space,1.0517,,,,,,,,0,6,6,112,1,,
5a0c036857cee70001767a58,2023-06-16_10h19.28.157,phx_ver10,2022.2.5,Win32,59.78715772,,,,,,,,,,,,20,testing_2,zh2x,au,zh2x_au,zh2x_8_auxau.wav,zh2x_1_auzhau.wav,,FALSE,FALSE,,,,,,,,,,,,,,j,0.5507,space,1.1249,,,,,,,,0,7,7,19,1,,
5a0c036857cee70001767a58,2023-06-16_10h19.28.157,phx_ver10,2022.2.5,Win32,59.78715772,,,,,,,,,,,,125,testing_3,sh2j,ai,sh2j_ai,sh2j_1_aishai.wav,sh2j_1_aishai.wav,,TRUE,FALSE,,,,,,,,,,,,,,f,0.4241,space,1.0881,,,,,,,,0,8,8,124,1,,
5a0c036857cee70001767a58,2023-06-16_10h19.28.157,phx_ver10,2022.2.5,Win32,59.78715772,,,,,,,,,,,,4,testing_1,zh2x,a,zh2x_a,zh2x_8_axa.wav,zh2x_1_azha.wav,,FALSE,TRUE,,,,,,,,,,,,,,j,0.5406,space,1.0844,,,,,,,,0,9,9,3,1,,
5a0c036857cee70001767a58,2023-06-16_10h19.28.157,phx_ver10,2022.2.5,Win32,59.78715772,,,,,,,,,,,,46,testing_3,zh2sh,i,zh2sh_i,zh2sh_8_ishi.wav,zh2sh_8_ishi.wav,,TRUE,FALSE,,,,,,,,,,,,,,f,0.5516,space,1.1757,,,,,,,,0,10,10,45,1,,
5a0c036857cee70001767a58,2023-06-16_10h19.28.157,phx_ver10,2022.2.5,Win32,59.78715772,,,,,,,,,,,,62,testing_3,zh2j,e,zh2j_e,zh2j_8_eje.wav,zh2j_8_eje.wav,,TRUE,FALSE,,,,,,,,,,,,,,f,0.1844,space,0.8564,,,,,,,,0,11,11,61,1,,
5a0c036857cee70001767a58,2023-06-16_10h19.28.157,phx_ver10,2022.2.5,Win32,59.78715772,,,,,,,,,,,,50,testing_3,zh2j,a,zh2j_a,zh2j_8_aja.wav,zh2j_8_aja.wav,,TRUE,FALSE,,,,,,,,,,,,,,f,0.3193,space,0.9269,,,,,,,,0,12,12,49,1,,
5a0c036857cee70001767a58,2023-06-16_10h19.28.157,phx_ver10,2022.2.5,Win32,59.78715772,,,,,,,,,,,,28,testing_3,zh2sh,a,zh2sh_a,zh2sh_8_asha.wav,zh2sh_1_azha.wav,,FALSE,FALSE,,,,,,,,,,,,,,j,0.1771,space,0.7771,,,,,,,,0,13,13,27,1,,
5a0c036857cee70001767a58,2023-06-16_10h19.28.157,phx_ver10,2022.2.5,Win32,59.78715772,,,,,,,,,,,,11,testing_1,zh2x,i,zh2x_i,zh2x_1_izhi.wav,zh2x_8_ixi.wav,,FALSE,TRUE,,,,,,,,,,,,,,j,0.2745,space,0.9224,,,,,,,,0,14,14,10,1,,
5a0c036857cee70001767a58,2023-06-16_10h19.28.157,phx_ver10,2022.2.5,Win32,59.78715772,,,,,,,,,,,,135,testing_3,sh2j,e,sh2j_e,sh2j_1_eshe.wav,sh2j_8_eje.wav,,FALSE,FALSE,,,,,,,,,,,,,,j,0.4688,space,1.2281,,,,,,,,0,15,15,134,1,,
5a0c036857cee70001767a58,2023-06-16_10h19.28.157,phx_ver10,2022.2.5,Win32,59.78715772,,,,,,,,,,,,31,testing_3,zh2sh,ai,zh2sh_ai,zh2sh_1_aizhai.wav,zh2sh_8_aishai.wav,,FALSE,FALSE,,,,,,,,,,,,,,j,0.4274,space,1.0433,,,,,,,,0,16,16,30,1,,
5a0c036857cee70001767a58,2023-06-16_10h19.28.157,phx_ver10,2022.2.5,Win32,59.78715772,,,,,,,,,,,,86,testing_3,j2x,e,j2x_e,j2x_8_exe.wav,j2x_8_exe.wav,,TRUE,FALSE,,,,,,,,,,,,,,f,0.4573,space,1.1451,,,,,,,,0,17,17,85,1,,
5a0c036857cee70001767a58,2023-06-16_10h19.28.157,phx_ver10,2022.2.5,Win32,59.78715772,,,,,,,,,,,,118,testing_3,sh2x,i,sh2x_i,sh2x_8_ixi.wav,sh2x_8_ixi.wav,,TRUE,FALSE,,,,,,,,,,,,,,f,0.2193,space,0.9349,,,,,,,,0,18,18,117,1,,
5a0c036857cee70001767a58,2023-06-16_10h19.28.157,phx_ver10,2022.2.5,Win32,59.78715772,,,,,,,,,,,,39,testing_3,zh2sh,e,zh2sh_e,zh2sh_1_ezhe.wav,zh2sh_8_eshe.wav,,FALSE,FALSE,,,,,,,,,,,,,,j,0.4844,space,1.0601,,,,,,,,0,19,19,38,1,,
5a0c036857cee70001767a58,2023-06-16_10h19.28.157,phx_ver10,2022.2.5,Win32,59.78715772,,,,,,,,,,,,107,testing_3,sh2x,au,sh2x_au,sh2x_1_aushau.wav,sh2x_8_auxau.wav,,FALSE,FALSE,,,,,,,,,,,,,,j,0.2681,space,0.8856,,,,,,,,0,20,20,106,1,,
5a0c036857cee70001767a58,2023-06-16_10h19.28.157,phx_ver10,2022.2.5,Win32,59.78715772,,,,,,,,,,,,21,testing_2,zh2x,ei,zh2x_ei,zh2x_1_eizhei.wav,zh2x_1_eizhei.wav,,TRUE,FALSE,,,,,,,,,,,,,,f,0.1514,space,0.8726,,,,,,,,0,21,21,20,1,,
5a0c036857cee70001767a58,2023-06-16_10h19.28.157,phx_ver10,2022.2.5,Win32,59.78715772,,,,,,,,,,,,108,testing_3,sh2x,au,sh2x_au,sh2x_8_auxau.wav,sh2x_1_aushau.wav,,FALSE,FALSE,,,,,,,,,,,,,,j,0.3708,space,1.0028,,,,,,,,0,22,22,107,1,,
5a0c036857cee70001767a58,2023-06-16_10h19.28.157,phx_ver10,2022.2.5,Win32,59.78715772,,,,,,,,,,,,10,testing_1,zh2x,i,zh2x_i,zh2x_8_ixi.wav,zh2x_8_ixi_copy.wav,,TRUE,TRUE,,,,,,,,,,,,,,f,0.3508,space,1.0018,,,,,,,,0,23,23,9,1,,
5a0c036857cee70001767a58,2023-06-16_10h19.28.157,phx_ver10,2022.2.5,Win32,59.78715772,,,,,,,,,,,,91,testing_3,j2x,ei,j2x_ei,j2x_1_eijei.wav,j2x_8_eixei.wav,,FALSE,FALSE,,,,,,,,,,,,,,j,0.4508,space,0.9524,,,,,,,,0,24,24,90,1,,
5a0c036857cee70001767a58,2023-06-16_10h19.28.157,phx_ver10,2022.2.5,Win32,59.78715772,,,,,,,,,,,,100,testing_3,sh2x,a,sh2x_a,sh2x_8_axa.wav,sh2x_1_asha.wav,,FALSE,FALSE,,,,,,,,,,,,,,j,0.6348,space,1.1389,,,,,,,,0,25,25,99,1,,
5a0c036857cee70001767a58,2023-06-16_10h19.28.157,phx_ver10,2022.2.5,Win32,59.78715772,,,,,,,,,,,,25,testing_3,zh2sh,a,zh2sh_a,zh2sh_1_azha.wav,zh2sh_1_azha.wav,,TRUE,FALSE,,,,,,,,,,,,,,f,0.1402,space,0.7565,,,,,,,,0,26,26,24,1,,
5a0c036857cee70001767a58,2023-06-16_10h19.28.157,phx_ver10,2022.2.5,Win32,59.78715772,,,,,,,,,,,,35,testing_3,zh2sh,au,zh2sh_au,zh2sh_1_auzhau.wav,zh2sh_8_aushau.wav,,FALSE,FALSE,,,,,,,,,,,,,,j,0.1511,space,0.694,,,,,,,,0,27,27,34,1,,
5a0c036857cee70001767a58,2023-06-16_10h19.28.157,phx_ver10,2022.2.5,Win32,59.78715772,,,,,,,,,,,,138,testing_3,sh2j,ei,sh2j_ei,sh2j_8_eijei.wav,sh2j_8_eijei.wav,,TRUE,FALSE,,,,,,,,,,,,,,f,0.1173,space,0.8104,,,,,,,,0,28,28,137,1,,
5a0c036857cee70001767a58,2023-06-16_10h19.28.157,phx_ver10,2022.2.5,Win32,59.78715772,,,,,,,,,,,,36,testing_3,zh2sh,au,zh2sh_au,zh2sh_8_aushau.wav,zh2sh_1_auzhau.wav,,FALSE,FALSE,,,,,,,,,,,,,,j,0.0838,space,0.6348,,,,,,,,0,29,29,35,1,,
5a0c036857cee70001767a58,2023-06-16_10h19.28.157,phx_ver10,2022.2.5,Win32,59.78715772,,,,,,,,,,,,42,testing_3,zh2sh,ei,zh2sh_ei,zh2sh_8_eishei.wav,zh2sh_8_eishei.wav,,TRUE,FALSE,,,,,,,,,,,,,,f,0.1003,space,0.7213,,,,,,,,0,30,30,41,1,,
5a0c036857cee70001767a58,2023-06-16_10h19.28.157,phx_ver10,2022.2.5,Win32,59.78715772,,,,,,,,,,,,123,testing_3,sh2j,a,sh2j_a,sh2j_1_asha.wav,sh2j_8_aja.wav,,FALSE,FALSE,,,,,,,,,,,,,,j,0.234,space,0.7682,,,,,,,,0,31,31,122,1,,
5a0c036857cee70001767a58,2023-06-16_10h19.28.157,phx_ver10,2022.2.5,Win32,59.78715772,,,,,,,,,,,,105,testing_3,sh2x,au,sh2x_au,sh2x_1_aushau.wav,sh2x_1_aushau.wav,,TRUE,FALSE,,,,,,,,,,,,,,f,0.06,space,0.6361,,,,,,,,0,32,32,104,1,,
5a0c036857cee70001767a58,2023-06-16_10h19.28.157,phx_ver10,2022.2.5,Win32,59.78715772,,,,,,,,,,,,33,testing_3,zh2sh,au,zh2sh_au,zh2sh_1_auzhau.wav,zh2sh_1_auzhau.wav,,TRUE,FALSE,,,,,,,,,,,,,,f,0.084,space,0.6845,,,,,,,,0,33,33,32,1,,
5a0c036857cee70001767a58,2023-06-16_10h19.28.157,phx_ver10,2022.2.5,Win32,59.78715772,,,,,,,,,,,,69,testing_3,zh2j,i,zh2j_i,zh2j_1_izhi.wav,zh2j_1_izhi.wav,,TRUE,FALSE,,,,,,,,,,,,,,f,0.314,space,0.8393,,,,,,,,0,34,34,68,1,,
5a0c036857cee70001767a58,2023-06-16_10h19.28.157,phx_ver10,2022.2.5,Win32,59.78715772,,,,,,,,,,,,32,testing_3,zh2sh,ai,zh2sh_ai,zh2sh_8_aishai.wav,zh2sh_1_aizhai.wav,,FALSE,FALSE,,,,,,,,,,,,,,j,0.1675,space,0.7514,,,,,,,,0,35,35,31,1,,
5a0c036857cee70001767a58,2023-06-16_10h19.28.157,phx_ver10,2022.2.5,Win32,59.78715772,,,,,,,,,,,,59,testing_3,zh2j,au,zh2j_au,zh2j_1_auzhau.wav,zh2j_8_aujau.wav,,FALSE,FALSE,,,,,,,,,,,,,,j,0.423,space,0.9429,,,,,,,,0,36,36,58,1,,
5a0c036857cee70001767a58,2023-06-16_10h19.28.157,phx_ver10,2022.2.5,Win32,59.78715772,,,,,,,,,,,,128,testing_3,sh2j,ai,sh2j_ai,sh2j_8_aijai.wav,sh2j_1_aishai.wav,,FALSE,FALSE,,,,,,,,,,,,,,j,0.2577,space,0.7676,,,,,,,,0,37,37,127,1,,
5a0c036857cee70001767a58,2023-06-16_10h19.28.157,phx_ver10,2022.2.5,Win32,59.78715772,,,,,,,,,,,,117,testing_3,sh2x,i,sh2x_i,sh2x_1_ishi.wav,sh2x_1_ishi.wav,,TRUE,FALSE,,,,,,,,,,,,,,f,0.2512,space,0.9067,,,,,,,,0,38,38,116,1,,
5a0c036857cee70001767a58,2023-06-16_10h19.28.157,phx_ver10,2022.2.5,Win32,59.78715772,,,,,,,,,,,,2,testing_1,zh2x,a,zh2x_a,zh2x_8_axa.wav,zh2x_8_axa_copy.wav,,TRUE,TRUE,,,,,,,,,,,,,,f,0.2177,space,0.8947,,,,,,,,0,39,39,1,1,,
5a0c036857cee70001767a58,2023-06-16_10h19.28.157,phx_ver10,2022.2.5,Win32,59.78715772,,,,,,,,,,,,27,testing_3,zh2sh,a,zh2sh_a,zh2sh_1_azha.wav,zh2sh_8_asha.wav,,FALSE,FALSE,,,,,,,,,,,,,,j,0.0906,space,0.6356,,,,,,,,0,40,40,26,1,,
5a0c036857cee70001767a58,2023-06-16_10h19.28.157,phx_ver10,2022.2.5,Win32,59.78715772,,,,,,,,,,,,90,testing_3,j2x,ei,j2x_ei,j2x_8_eixei.wav,j2x_8_eixei.wav,,TRUE,FALSE,,,,,,,,,,,,,,f,0.1927,space,0.8346,,,,,,,,0,41,41,89,1,,
5a0c036857cee70001767a58,2023-06-16_10h19.28.157,phx_ver10,2022.2.5,Win32,59.78715772,,,,,,,,,,,,82,testing_3,j2x,au,j2x_au,j2x_8_auxau.wav,j2x_8_auxau.wav,,TRUE,FALSE,,,,,,,,,,,,,,f,0.2837,space,0.9032,,,,,,,,0,42,42,81,1,,
5a0c036857cee70001767a58,2023-06-16_10h19.28.157,phx_ver10,2022.2.5,Win32,59.78715772,,,,,,,,,,,,61,testing_3,zh2j,e,zh2j_e,zh2j_1_ezhe.wav,zh2j_1_ezhe.wav,,TRUE,FALSE,,,,,,,,,,,,,,f,0.4103,space,1.059,,,,,,,,0,43,43,60,1,,
5a0c036857cee70001767a58,2023-06-16_10h19.28.157,phx_ver10,2022.2.5,Win32,59.78715772,,,,,,,,,,,,137,testing_3,sh2j,ei,sh2j_ei,sh2j_1_eishei.wav,sh2j_1_eishei.wav,,TRUE,FALSE,,,,,,,,,,,,,,f,0.133,space,0.8345,,,,,,,,0,44,44,136,1,,
5a0c036857cee70001767a58,2023-06-16_10h19.28.157,phx_ver10,2022.2.5,Win32,59.78715772,,,,,,,,,,,,41,testing_3,zh2sh,ei,zh2sh_ei,zh2sh_1_eizhei.wav,zh2sh_1_eizhei.wav,,TRUE,FALSE,,,,,,,,,,,,,,f,0.1738,space,0.8516,,,,,,,,0,45,45,40,1,,
5a0c036857cee70001767a58,2023-06-16_10h19.28.157,phx_ver10,2022.2.5,Win32,59.78715772,,,,,,,,,,,,55,testing_3,zh2j,ai,zh2j_ai,zh2j_1_aizhai.wav,zh2j_8_aijai.wav,,FALSE,FALSE,,,,,,,,,,,,,,j,0.1676,space,0.7724,,,,,,,,0,46,46,54,1,,
5a0c036857cee70001767a58,2023-06-16_10h19.28.157,phx_ver10,2022.2.5,Win32,59.78715772,,,,,,,,,,,,131,testing_3,sh2j,au,sh2j_au,sh2j_1_aushau.wav,sh2j_8_aujau.wav,,FALSE,FALSE,,,,,,,,,,,,,,j,0.5675,space,1.1346,,,,,,,,0,47,47,130,1,,
5a0c036857cee70001767a58,2023-06-16_10h19.28.157,phx_ver10,2022.2.5,Win32,59.78715772,,,,,,,,,,,,109,testing_3,sh2x,e,sh2x_e,sh2x_1_eshe.wav,sh2x_1_eshe.wav,,TRUE,FALSE,,,,,,,,,,,,,,f,0.358,space,1.0702,,,,,,,,0,48,48,108,1,,
5a0c036857cee70001767a58,2023-06-16_10h19.28.157,phx_ver10,2022.2.5,Win32,59.78715772,,,,,,,,,,,,95,testing_3,j2x,i,j2x_i,j2x_1_iji.wav,j2x_8_ixi.wav,,FALSE,FALSE,,,,,,,,,,,,,,j,0.1383,space,0.7229,,,,,,,,0,49,49,94,1,,
5a0c036857cee70001767a58,2023-06-16_10h19.28.157,phx_ver10,2022.2.5,Win32,59.78715772,,,,,,,,,,,,38,testing_3,zh2sh,e,zh2sh_e,zh2sh_8_eshe.wav,zh2sh_8_eshe.wav,,TRUE,FALSE,,,,,,,,,,,,,,f,0.1418,space,0.7844,,,,,,,,0,50,50,37,1,,
5a0c036857cee70001767a58,2023-06-16_10h19.28.157,phx_ver10,2022.2.5,Win32,59.78715772,,,,,,,,,,,,13,testing_2,zh2x,ai,zh2x_ai,zh2x_1_aizhai.wav,zh2x_1_aizhai.wav,,TRUE,FALSE,,,,,,,,,,,,,,f,0.3424,space,0.9746,,,,,,,,0,51,51,12,1,,
5a0c036857cee70001767a58,2023-06-16_10h19.28.157,phx_ver10,2022.2.5,Win32,59.78715772,,,,,,,,,,,,96,testing_3,j2x,i,j2x_i,j2x_8_ixi.wav,j2x_1_iji.wav,,FALSE,FALSE,,,,,,,,,,,,,,j,1.1013,space,1.6708,,,,,,,,0,52,52,95,1,,
5a0c036857cee70001767a58,2023-06-16_10h19.28.157,phx_ver10,2022.2.5,Win32,59.78715772,,,,,,,,,,,,116,testing_3,sh2x,ei,sh2x_ei,sh2x_8_eixei.wav,sh2x_1_eishei.wav,,FALSE,FALSE,,,,,,,,,,,,,,j,0.1174,space,0.7345,,,,,,,,0,53,53,115,1,,
5a0c036857cee70001767a58,2023-06-16_10h19.28.157,phx_ver10,2022.2.5,Win32,59.78715772,,,,,,,,,,,,88,testing_3,j2x,e,j2x_e,j2x_8_exe.wav,j2x_1_eje.wav,,FALSE,FALSE,,,,,,,,,,,,,,j,2.0775,space,2.5199,,,,,,,,0,54,54,87,1,,
5a0c036857cee70001767a58,2023-06-16_10h19.28.157,phx_ver10,2022.2.5,Win32,59.78715772,,,,,,,,,,,,98,testing_3,sh2x,a,sh2x_a,sh2x_8_axa.wav,sh2x_8_axa.wav,,TRUE,FALSE,,,,,,,,,,,,,,f,0.1336,space,0.7582,,,,,,,,0,55,55,97,1,,
5a0c036857cee70001767a58,2023-06-16_10h19.28.157,phx_ver10,2022.2.5,Win32,59.78715772,,,,,,,,,,,,83,testing_3,j2x,au,j2x_au,j2x_1_aujau.wav,j2x_8_auxau.wav,,FALSE,FALSE,,,,,,,,,,,,,,j,0.1609,space,0.7366,,,,,,,,0,56,56,82,1,,
5a0c036857cee70001767a58,2023-06-16_10h19.28.157,phx_ver10,2022.2.5,Win32,59.78715772,,,,,,,,,,,,3,testing_1,zh2x,a,zh2x_a,zh2x_1_azha.wav,zh2x_8_axa.wav,,FALSE,TRUE,,,,,,,,,,,,,,j,0.1177,space,0.6582,,,,,,,,0,57,57,2,1,,
5a0c036857cee70001767a58,2023-06-16_10h19.28.157,phx_ver10,2022.2.5,Win32,59.78715772,,,,,,,,,,,,22,testing_2,zh2x,ei,zh2x_ei,zh2x_8_eixei.wav,zh2x_8_eixei.wav,,TRUE,FALSE,,,,,,,,,,,,,,f,0.2848,space,0.8403,,,,,,,,0,58,58,21,1,,
5a0c036857cee70001767a58,2023-06-16_10h19.28.157,phx_ver10,2022.2.5,Win32,59.78715772,,,,,,,,,,,,68,testing_3,zh2j,ei,zh2j_ei,zh2j_8_eijei.wav,zh2j_1_eizhei.wav,,FALSE,FALSE,,,,,,,,,,,,,,j,0.247,space,0.754,,,,,,,,0,59,59,67,1,,
5a0c036857cee70001767a58,2023-06-16_10h19.28.157,phx_ver10,2022.2.5,Win32,59.78715772,,,,,,,,,,,,130,testing_3,sh2j,au,sh2j_au,sh2j_8_aujau.wav,sh2j_8_aujau.wav,,TRUE,FALSE,,,,,,,,,,,,,,f,0.4074,space,1.0076,,,,,,,,0,60,60,129,1,,
5a0c036857cee70001767a58,2023-06-16_10h19.28.157,phx_ver10,2022.2.5,Win32,59.78715772,,,,,,,,,,,,15,testing_2,zh2x,ai,zh2x_ai,zh2x_1_aizhai.wav,zh2x_8_aixai.wav,,FALSE,FALSE,,,,,,,,,,,,,,j,0.1181,space,0.6849,,,,,,,,0,61,61,14,1,,
5a0c036857cee70001767a58,2023-06-16_10h19.28.157,phx_ver10,2022.2.5,Win32,59.78715772,,,,,,,,,,,,103,testing_3,sh2x,ai,sh2x_ai,sh2x_1_aishai.wav,sh2x_8_aixai.wav,,FALSE,FALSE,,,,,,,,,,,,,,j,0.4587,space,1.0864,,,,,,,,0,62,62,102,1,,
5a0c036857cee70001767a58,2023-06-16_10h19.28.157,phx_ver10,2022.2.5,Win32,59.78715772,,,,,,,,,,,,40,testing_3,zh2sh,e,zh2sh_e,zh2sh_8_eshe.wav,zh2sh_1_ezhe.wav,,FALSE,FALSE,,,,,,,,,,,,,,j,0.3896,space,1.0344,,,,,,,,0,63,63,39,1,,
5a0c036857cee70001767a58,2023-06-16_10h19.28.157,phx_ver10,2022.2.5,Win32,59.78715772,,,,,,,,,,,,8,testing_1,zh2x,e,zh2x_e,zh2x_8_exe.wav,zh2x_1_ezhe.wav,,FALSE,TRUE,,,,,,,,,,,,,,j,0.1717,space,0.6923,,,,,,,,0,64,64,7,1,,
5a0c036857cee70001767a58,2023-06-16_10h19.28.157,phx_ver10,2022.2.5,Win32,59.78715772,,,,,,,,,,,,101,testing_3,sh2x,ai,sh2x_ai,sh2x_1_aishai.wav,sh2x_1_aishai.wav,,TRUE,FALSE,,,,,,,,,,,,,,f,0.1199,space,0.6851,,,,,,,,0,65,65,100,1,,
5a0c036857cee70001767a58,2023-06-16_10h19.28.157,phx_ver10,2022.2.5,Win32,59.78715772,,,,,,,,,,,,132,testing_3,sh2j,au,sh2j_au,sh2j_8_aujau.wav,sh2j_1_aushau.wav,,FALSE,FALSE,,,,,,,,,,,,,,j,0.1402,space,0.6923,,,,,,,,0,66,66,131,1,,
5a0c036857cee70001767a58,2023-06-16_10h19.28.157,phx_ver10,2022.2.5,Win32,59.78715772,,,,,,,,,,,,5,testing_1,zh2x,e,zh2x_e,zh2x_1_ezhe.wav,zh2x_1_ezhe_copy.wav,,TRUE,TRUE,,,,,,,,,,,,,,f,0.4512,space,0.9371,,,,,,,,0,67,67,4,1,,
5a0c036857cee70001767a58,2023-06-16_10h19.28.157,phx_ver10,2022.2.5,Win32,59.78715772,,,,,,,,,,,,81,testing_3,j2x,au,j2x_au,j2x_1_aujau.wav,j2x_1_aujau.wav,,TRUE,FALSE,,,,,,,,,,,,,,f,0.2336,space,0.835,,,,,,,,0,68,68,80,1,,
5a0c036857cee70001767a58,2023-06-16_10h19.28.157,phx_ver10,2022.2.5,Win32,59.78715772,,,,,,,,,,,,19,testing_2,zh2x,au,zh2x_au,zh2x_1_auzhau.wav,zh2x_8_auxau.wav,,FALSE,FALSE,,,,,,,,,,,,,,j,0.0887,space,0.6722,,,,,,,,0,69,69,18,1,,
5a0c036857cee70001767a58,2023-06-16_10h19.28.157,phx_ver10,2022.2.5,Win32,59.78715772,,,,,,,,,,,,85,testing_3,j2x,e,j2x_e,j2x_1_eje.wav,j2x_1_eje.wav,,TRUE,FALSE,,,,,,,,,,,,,,f,0.454,space,1.094,,,,,,,,0,70,70,84,1,,
5a0c036857cee70001767a58,2023-06-16_10h19.28.157,phx_ver10,2022.2.5,Win32,59.78715772,,,,,,,,,,,,129,testing_3,sh2j,au,sh2j_au,sh2j_1_aushau.wav,sh2j_1_aushau.wav,,TRUE,FALSE,,,,,,,,,,,,,,f,0.1221,space,0.7056,,,,,,,,0,71,71,128,1,,
5a0c036857cee70001767a58,2023-06-16_10h19.28.157,phx_ver10,2022.2.5,Win32,59.78715772,,,,,,,,,,,,115,testing_3,sh2x,ei,sh2x_ei,sh2x_1_eishei.wav,sh2x_8_eixei.wav,,FALSE,FALSE,,,,,,,,,,,,,,j,0.1254,space,0.7256,,,,,,,,0,72,72,114,1,,
5a0c036857cee70001767a58,2023-06-16_10h19.28.157,phx_ver10,2022.2.5,Win32,59.78715772,,,,,,,,,,,,70,testing_3,zh2j,i,zh2j_i,zh2j_8_iji.wav,zh2j_8_iji.wav,,TRUE,FALSE,,,,,,,,,,,,,,f,0.4885,space,1.1016,,,,,,,,0,73,73,69,1,,
5a0c036857cee70001767a58,2023-06-16_10h19.28.157,phx_ver10,2022.2.5,Win32,59.78715772,,,,,,,,,,,,141,testing_3,sh2j,i,sh2j_i,sh2j_1_ishi.wav,sh2j_1_ishi.wav,,TRUE,FALSE,,,,,,,,,,,,,,f,0.2363,space,0.7556,,,,,,,,0,74,74,140,1,,
5a0c036857cee70001767a58,2023-06-16_10h19.28.157,phx_ver10,2022.2.5,Win32,59.78715772,,,,,,,,,,,,18,testing_2,zh2x,au,zh2x_au,zh2x_8_auxau.wav,zh2x_8_auxau.wav,,TRUE,FALSE,,,,,,,,,,,,,,f,0.1511,space,0.6856,,,,,,,,0,75,75,17,1,,
5a0c036857cee70001767a58,2023-06-16_10h19.28.157,phx_ver10,2022.2.5,Win32,59.78715772,,,,,,,,,,,,127,testing_3,sh2j,ai,sh2j_ai,sh2j_1_aishai.wav,sh2j_8_aijai.wav,,FALSE,FALSE,,,,,,,,,,,,,,j,1.2347,space,1.8526,,,,,,,,0,76,76,126,1,,
5a0c036857cee70001767a58,2023-06-16_10h19.28.157,phx_ver10,2022.2.5,Win32,59.78715772,,,,,,,,,,,,92,testing_3,j2x,ei,j2x_ei,j2x_8_eixei.wav,j2x_1_eijei.wav,,FALSE,FALSE,,,,,,,,,,,,,,f,0.8547,space,1.3516,,,,,,,,0,77,77,91,1,,
5a0c036857cee70001767a58,2023-06-16_10h19.28.157,phx_ver10,2022.2.5,Win32,59.78715772,,,,,,,,,,,,121,testing_3,sh2j,a,sh2j_a,sh2j_1_asha.wav,sh2j_1_asha.wav,,TRUE,FALSE,,,,,,,,,,,,,,f,0.2341,space,0.7747,,,,,,,,0,78,78,120,1,,
5a0c036857cee70001767a58,2023-06-16_10h19.28.157,phx_ver10,2022.2.5,Win32,59.78715772,,,,,,,,,,,,49,testing_3,zh2j,a,zh2j_a,zh2j_1_azha.wav,zh2j_1_azha.wav,,TRUE,FALSE,,,,,,,,,,,,,,f,0.1041,space,0.6402,,,,,,,,0,79,79,48,1,,
5a0c036857cee70001767a58,2023-06-16_10h19.28.157,phx_ver10,2022.2.5,Win32,59.78715772,,,,,,,,,,,,89,testing_3,j2x,ei,j2x_ei,j2x_1_eijei.wav,j2x_1_eijei.wav,,TRUE,FALSE,,,,,,,,,,,,,,f,0.3509,space,0.9174,,,,,,,,0,80,80,88,1,,
5a0c036857cee70001767a58,2023-06-16_10h19.28.157,phx_ver10,2022.2.5,Win32,59.78715772,,,,,,,,,,,,93,testing_3,j2x,i,j2x_i,j2x_1_iji.wav,j2x_1_iji.wav,,TRUE,FALSE,,,,,,,,,,,,,,f,0.2578,space,0.8578,,,,,,,,0,81,81,92,1,,
5a0c036857cee70001767a58,2023-06-16_10h19.28.157,phx_ver10,2022.2.5,Win32,59.78715772,,,,,,,,,,,,24,testing_2,zh2x,ei,zh2x_ei,zh2x_8_eixei.wav,zh2x_1_eizhei.wav,,FALSE,FALSE,,,,,,,,,,,,,,j,0.0841,space,0.6549,,,,,,,,0,82,82,23,1,,
5a0c036857cee70001767a58,2023-06-16_10h19.28.157,phx_ver10,2022.2.5,Win32,59.78715772,,,,,,,,,,,,140,testing_3,sh2j,ei,sh2j_ei,sh2j_8_eijei.wav,sh2j_1_eishei.wav,,FALSE,FALSE,,,,,,,,,,,,,,j,0.0847,space,0.9013,,,,,,,,0,83,83,139,1,,
5a0c036857cee70001767a58,2023-06-16_10h19.28.157,phx_ver10,2022.2.5,Win32,59.78715772,,,,,,,,,,,,77,testing_3,j2x,ai,j2x_ai,j2x_1_aijai.wav,j2x_1_aijai.wav,,TRUE,FALSE,,,,,,,,,,,,,,f,0.1607,space,0.8083,,,,,,,,0,84,84,76,1,,
5a0c036857cee70001767a58,2023-06-16_10h19.28.157,phx_ver10,2022.2.5,Win32,59.78715772,,,,,,,,,,,,76,testing_3,j2x,a,j2x_a,j2x_8_axa.wav,j2x_1_aja.wav,,FALSE,FALSE,,,,,,,,,,,,,,j,0.0507,space,0.5846,,,,,,,,0,85,85,75,1,,
5a0c036857cee70001767a58,2023-06-16_10h19.28.157,phx_ver10,2022.2.5,Win32,59.78715772,,,,,,,,,,,,114,testing_3,sh2x,ei,sh2x_ei,sh2x_8_eixei.wav,sh2x_8_eixei.wav,,TRUE,FALSE,,,,,,,,,,,,,,f,0.1851,space,0.8568,,,,,,,,0,86,86,113,1,,
5a0c036857cee70001767a58,2023-06-16_10h19.28.157,phx_ver10,2022.2.5,Win32,59.78715772,,,,,,,,,,,,54,testing_3,zh2j,ai,zh2j_ai,zh2j_8_aijai.wav,zh2j_8_aijai.wav,,TRUE,FALSE,,,,,,,,,,,,,,f,0.2531,space,0.9182,,,,,,,,0,87,87,53,1,,
5a0c036857cee70001767a58,2023-06-16_10h19.28.157,phx_ver10,2022.2.5,Win32,59.78715772,,,,,,,,,,,,102,testing_3,sh2x,ai,sh2x_ai,sh2x_8_aixai.wav,sh2x_8_aixai.wav,,TRUE,FALSE,,,,,,,,,,,,,,f,0.0557,space,0.6714,,,,,,,,0,88,88,101,1,,
5a0c036857cee70001767a58,2023-06-16_10h19.28.157,phx_ver10,2022.2.5,Win32,59.78715772,,,,,,,,,,,,65,testing_3,zh2j,ei,zh2j_ei,zh2j_1_eizhei.wav,zh2j_1_eizhei.wav,,TRUE,FALSE,,,,,,,,,,,,,,f,0.4179,space,1.0008,,,,,,,,0,89,89,64,1,,
5a0c036857cee70001767a58,2023-06-16_10h19.28.157,phx_ver10,2022.2.5,Win32,59.78715772,,,,,,,,,,,,47,testing_3,zh2sh,i,zh2sh_i,zh2sh_1_izhi.wav,zh2sh_8_ishi.wav,,FALSE,FALSE,,,,,,,,,,,,,,j,0.0674,space,0.8185,,,,,,,,0,90,90,46,1,,
5a0c036857cee70001767a58,2023-06-16_10h19.28.157,phx_ver10,2022.2.5,Win32,59.78715772,,,,,,,,,,,,64,testing_3,zh2j,e,zh2j_e,zh2j_8_eje.wav,zh2j_1_ezhe.wav,,FALSE,FALSE,,,,,,,,,,,,,,f,0.1717,space,0.7876,,,,,,,,0,91,91,63,1,,
5a0c036857cee70001767a58,2023-06-16_10h19.28.157,phx_ver10,2022.2.5,Win32,59.78715772,,,,,,,,,,,,9,testing_1,zh2x,i,zh2x_i,zh2x_1_izhi.wav,zh2x_1_izhi_copy.wav,,TRUE,TRUE,,,,,,,,,,,,,,f,0.2045,space,0.82,,,,,,,,0,92,92,8,1,,
5a0c036857cee70001767a58,2023-06-16_10h19.28.157,phx_ver10,2022.2.5,Win32,59.78715772,,,,,,,,,,,,53,testing_3,zh2j,ai,zh2j_ai,zh2j_1_aizhai.wav,zh2j_1_aizhai.wav,,TRUE,FALSE,,,,,,,,,,,,,,f,0.3676,space,0.8752,,,,,,,,0,93,93,52,1,,
5a0c036857cee70001767a58,2023-06-16_10h19.28.157,phx_ver10,2022.2.5,Win32,59.78715772,,,,,,,,,,,,133,testing_3,sh2j,e,sh2j_e,sh2j_1_eshe.wav,sh2j_1_eshe.wav,,TRUE,FALSE,,,,,,,,,,,,,,f,0.1036,space,0.7509,,,,,,,,0,94,94,132,1,,
5a0c036857cee70001767a58,2023-06-16_10h19.28.157,phx_ver10,2022.2.5,Win32,59.78715772,,,,,,,,,,,,52,testing_3,zh2j,a,zh2j_a,zh2j_8_aja.wav,zh2j_1_azha.wav,,FALSE,FALSE,,,,,,,,,,,,,,f,1.1935,space,1.8255,,,,,,,,0,95,95,51,1,,
5a0c036857cee70001767a58,2023-06-16_10h19.28.157,phx_ver10,2022.2.5,Win32,59.78715772,,,,,,,,,,,,48,testing_3,zh2sh,i,zh2sh_i,zh2sh_8_ishi.wav,zh2sh_1_izhi.wav,,FALSE,FALSE,,,,,,,,,,,,,,j,0.4722,space,1.0871,,,,,,,,0,96,96,47,1,,
5a0c036857cee70001767a58,2023-06-16_10h19.28.157,phx_ver10,2022.2.5,Win32,59.78715772,,,,,,,,,,,,142,testing_3,sh2j,i,sh2j_i,sh2j_8_iji.wav,sh2j_8_iji.wav,,TRUE,FALSE,,,,,,,,,,,,,,f,0.3387,space,0.8585,,,,,,,,0,97,97,141,1,,
5a0c036857cee70001767a58,2023-06-16_10h19.28.157,phx_ver10,2022.2.5,Win32,59.78715772,,,,,,,,,,,,66,testing_3,zh2j,ei,zh2j_ei,zh2j_8_eijei.wav,zh2j_8_eijei.wav,,TRUE,FALSE,,,,,,,,,,,,,,f,0.4079,space,0.9181,,,,,,,,0,98,98,65,1,,
5a0c036857cee70001767a58,2023-06-16_10h19.28.157,phx_ver10,2022.2.5,Win32,59.78715772,,,,,,,,,,,,74,testing_3,j2x,a,j2x_a,j2x_8_axa.wav,j2x_8_axa.wav,,TRUE,FALSE,,,,,,,,,,,,,,f,0.2753,space,0.851,,,,,,,,0,99,99,73,1,,
5a0c036857cee70001767a58,2023-06-16_10h19.28.157,phx_ver10,2022.2.5,Win32,59.78715772,,,,,,,,,,,,126,testing_3,sh2j,ai,sh2j_ai,sh2j_8_aijai.wav,sh2j_8_aijai.wav,,TRUE,FALSE,,,,,,,,,,,,,,f,0.4731,space,1.3609,,,,,,,,0,100,100,125,1,,
5a0c036857cee70001767a58,2023-06-16_10h19.28.157,phx_ver10,2022.2.5,Win32,59.78715772,,,,,,,,,,,,120,testing_3,sh2x,i,sh2x_i,sh2x_8_ixi.wav,sh2x_1_ishi.wav,,FALSE,FALSE,,,,,,,,,,,,,,j,0.4678,space,1.0021,,,,,,,,0,101,101,119,1,,
5a0c036857cee70001767a58,2023-06-16_10h19.28.157,phx_ver10,2022.2.5,Win32,59.78715772,,,,,,,,,,,,143,testing_3,sh2j,i,sh2j_i,sh2j_1_ishi.wav,sh2j_8_iji.wav,,FALSE,FALSE,,,,,,,,,,,,,,j,0.2848,space,0.7923,,,,,,,,0,102,102,142,1,,
5a0c036857cee70001767a58,2023-06-16_10h19.28.157,phx_ver10,2022.2.5,Win32,59.78715772,,,,,,,,,,,,45,testing_3,zh2sh,i,zh2sh_i,zh2sh_1_izhi.wav,zh2sh_1_izhi.wav,,TRUE,FALSE,,,,,,,,,,,,,,f,0.134,space,0.7516,,,,,,,,0,103,103,44,1,,
5a0c036857cee70001767a58,2023-06-16_10h19.28.157,phx_ver10,2022.2.5,Win32,59.78715772,,,,,,,,,,,,43,testing_3,zh2sh,ei,zh2sh_ei,zh2sh_1_eizhei.wav,zh2sh_8_eishei.wav,,FALSE,FALSE,,,,,,,,,,,,,,j,0.101,space,0.6743,,,,,,,,0,104,104,42,1,,
5a0c036857cee70001767a58,2023-06-16_10h19.28.157,phx_ver10,2022.2.5,Win32,59.78715772,,,,,,,,,,,,124,testing_3,sh2j,a,sh2j_a,sh2j_8_aja.wav,sh2j_1_asha.wav,,FALSE,FALSE,,,,,,,,,,,,,,j,0.0837,space,0.5676,,,,,,,,0,105,105,123,1,,
5a0c036857cee70001767a58,2023-06-16_10h19.28.157,phx_ver10,2022.2.5,Win32,59.78715772,,,,,,,,,,,,1,testing_1,zh2x,a,zh2x_a,zh2x_1_azha.wav,zh2x_1_azha_copy.wav,,TRUE,TRUE,,,,,,,,,,,,,,f,0.0402,space,0.5176,,,,,,,,0,106,106,0,1,,
5a0c036857cee70001767a58,2023-06-16_10h19.28.157,phx_ver10,2022.2.5,Win32,59.78715772,,,,,,,,,,,,78,testing_3,j2x,ai,j2x_ai,j2x_8_aixai.wav,j2x_8_aixai.wav,,TRUE,FALSE,,,,,,,,,,,,,,f,0.0034,space,0.4516,,,,,,,,0,107,107,77,1,,
5a0c036857cee70001767a58,2023-06-16_10h19.28.157,phx_ver10,2022.2.5,Win32,59.78715772,,,,,,,,,,,,144,testing_3,sh2j,i,sh2j_i,sh2j_8_iji.wav,sh2j_1_ishi.wav,,FALSE,FALSE,,,,,,,,,,,,,,j,0.0842,space,0.5855,,,,,,,,0,108,108,143,1,,
5a0c036857cee70001767a58,2023-06-16_10h19.28.157,phx_ver10,2022.2.5,Win32,59.78715772,,,,,,,,,,,,139,testing_3,sh2j,ei,sh2j_ei,sh2j_1_eishei.wav,sh2j_8_eijei.wav,,FALSE,FALSE,,,,,,,,,,,,,,j,0.1553,space,0.6346,,,,,,,,0,109,109,138,1,,
5a0c036857cee70001767a58,2023-06-16_10h19.28.157,phx_ver10,2022.2.5,Win32,59.78715772,,,,,,,,,,,,7,testing_1,zh2x,e,zh2x_e,zh2x_1_ezhe.wav,zh2x_8_exe.wav,,FALSE,TRUE,,,,,,,,,,,,,,j,0.0237,space,0.504,,,,,,,,0,110,110,6,1,,
5a0c036857cee70001767a58,2023-06-16_10h19.28.157,phx_ver10,2022.2.5,Win32,59.78715772,,,,,,,,,,,,26,testing_3,zh2sh,a,zh2sh_a,zh2sh_8_asha.wav,zh2sh_8_asha.wav,,TRUE,FALSE,,,,,,,,,,,,,,f,0.0509,space,0.5564,,,,,,,,0,111,111,25,1,,
5a0c036857cee70001767a58,2023-06-16_10h19.28.157,phx_ver10,2022.2.5,Win32,59.78715772,,,,,,,,,,,,97,testing_3,sh2x,a,sh2x_a,sh2x_1_asha.wav,sh2x_1_asha.wav,,TRUE,FALSE,,,,,,,,,,,,,,f,0.234,space,0.758,,,,,,,,0,112,112,96,1,,
5a0c036857cee70001767a58,2023-06-16_10h19.28.157,phx_ver10,2022.2.5,Win32,59.78715772,,,,,,,,,,,,34,testing_3,zh2sh,au,zh2sh_au,zh2sh_8_aushau.wav,zh2sh_8_aushau.wav,,TRUE,FALSE,,,,,,,,,,,,,,f,0.1771,space,0.6884,,,,,,,,0,113,113,33,1,,
5a0c036857cee70001767a58,2023-06-16_10h19.28.157,phx_ver10,2022.2.5,Win32,59.78715772,,,,,,,,,,,,60,testing_3,zh2j,au,zh2j_au,zh2j_8_aujau.wav,zh2j_1_auzhau.wav,,FALSE,FALSE,,,,,,,,,,,,,,j,0.452,space,0.9012,,,,,,,,0,114,114,59,1,,
5a0c036857cee70001767a58,2023-06-16_10h19.28.157,phx_ver10,2022.2.5,Win32,59.78715772,,,,,,,,,,,,80,testing_3,j2x,ai,j2x_ai,j2x_8_aixai.wav,j2x_1_aijai.wav,,FALSE,FALSE,,,,,,,,,,,,,,j,0.084,space,0.5516,,,,,,,,0,115,115,79,1,,
5a0c036857cee70001767a58,2023-06-16_10h19.28.157,phx_ver10,2022.2.5,Win32,59.78715772,,,,,,,,,,,,73,testing_3,j2x,a,j2x_a,j2x_1_aja.wav,j2x_1_aja.wav,,TRUE,FALSE,,,,,,,,,,,,,,f,0.1538,space,0.6352,,,,,,,,0,116,116,72,1,,
5a0c036857cee70001767a58,2023-06-16_10h19.28.157,phx_ver10,2022.2.5,Win32,59.78715772,,,,,,,,,,,,110,testing_3,sh2x,e,sh2x_e,sh2x_8_exe.wav,sh2x_8_exe.wav,,TRUE,FALSE,,,,,,,,,,,,,,f,0.0239,space,0.5201,,,,,,,,0,117,117,109,1,,
5a0c036857cee70001767a58,2023-06-16_10h19.28.157,phx_ver10,2022.2.5,Win32,59.78715772,,,,,,,,,,,,75,testing_3,j2x,a,j2x_a,j2x_1_aja.wav,j2x_8_axa.wav,,FALSE,FALSE,,,,,,,,,,,,,,j,0.0636,space,0.6516,,,,,,,,0,118,118,74,1,,
5a0c036857cee70001767a58,2023-06-16_10h19.28.157,phx_ver10,2022.2.5,Win32,59.78715772,,,,,,,,,,,,84,testing_3,j2x,au,j2x_au,j2x_8_auxau.wav,j2x_1_aujau.wav,,FALSE,FALSE,,,,,,,,,,,,,,f,2.1777,space,2.6031,,,,,,,,0,119,119,83,1,,
5a0c036857cee70001767a58,2023-06-16_10h19.28.157,phx_ver10,2022.2.5,Win32,59.78715772,,,,,,,,,,,,79,testing_3,j2x,ai,j2x_ai,j2x_1_aijai.wav,j2x_8_aixai.wav,,FALSE,FALSE,,,,,,,,,,,,,,j,0.4013,space,0.935,,,,,,,,0,120,120,78,1,,
5a0c036857cee70001767a58,2023-06-16_10h19.28.157,phx_ver10,2022.2.5,Win32,59.78715772,,,,,,,,,,,,58,testing_3,zh2j,au,zh2j_au,zh2j_8_aujau.wav,zh2j_8_aujau.wav,,TRUE,FALSE,,,,,,,,,,,,,,f,0.8018,space,1.2519,,,,,,,,0,121,121,57,1,,
5a0c036857cee70001767a58,2023-06-16_10h19.28.157,phx_ver10,2022.2.5,Win32,59.78715772,,,,,,,,,,,,51,testing_3,zh2j,a,zh2j_a,zh2j_1_azha.wav,zh2j_8_aja.wav,,FALSE,FALSE,,,,,,,,,,,,,,f,0.5679,space,1.1247,,,,,,,,0,122,122,50,1,,
5a0c036857cee70001767a58,2023-06-16_10h19.28.157,phx_ver10,2022.2.5,Win32,59.78715772,,,,,,,,,,,,72,testing_3,zh2j,i,zh2j_i,zh2j_8_iji.wav,zh2j_1_izhi.wav,,FALSE,FALSE,,,,,,,,,,,,,,j,0.1972,space,0.7032,,,,,,,,0,123,123,71,1,,
5a0c036857cee70001767a58,2023-06-16_10h19.28.157,phx_ver10,2022.2.5,Win32,59.78715772,,,,,,,,,,,,71,testing_3,zh2j,i,zh2j_i,zh2j_1_izhi.wav,zh2j_8_iji.wav,,FALSE,FALSE,,,,,,,,,,,,,,j,0.1841,space,0.6271,,,,,,,,0,124,124,70,1,,
5a0c036857cee70001767a58,2023-06-16_10h19.28.157,phx_ver10,2022.2.5,Win32,59.78715772,,,,,,,,,,,,23,testing_2,zh2x,ei,zh2x_ei,zh2x_1_eizhei.wav,zh2x_8_eixei.wav,,FALSE,FALSE,,,,,,,,,,,,,,j,0.0583,space,0.5816,,,,,,,,0,125,125,22,1,,
5a0c036857cee70001767a58,2023-06-16_10h19.28.157,phx_ver10,2022.2.5,Win32,59.78715772,,,,,,,,,,,,136,testing_3,sh2j,e,sh2j_e,sh2j_8_eje.wav,sh2j_1_eshe.wav,,FALSE,FALSE,,,,,,,,,,,,,,j,0.1711,space,0.7013,,,,,,,,0,126,126,135,1,,
5a0c036857cee70001767a58,2023-06-16_10h19.28.157,phx_ver10,2022.2.5,Win32,59.78715772,,,,,,,,,,,,112,testing_3,sh2x,e,sh2x_e,sh2x_8_exe.wav,sh2x_1_eshe.wav,,FALSE,FALSE,,,,,,,,,,,,,,j,0.4177,space,0.903,,,,,,,,0,127,127,111,1,,
5a0c036857cee70001767a58,2023-06-16_10h19.28.157,phx_ver10,2022.2.5,Win32,59.78715772,,,,,,,,,,,,122,testing_3,sh2j,a,sh2j_a,sh2j_8_aja.wav,sh2j_8_aja.wav,,TRUE,FALSE,,,,,,,,,,,,,,f,0.1171,space,0.9867,,,,,,,,0,128,128,121,1,,
5a0c036857cee70001767a58,2023-06-16_10h19.28.157,phx_ver10,2022.2.5,Win32,59.78715772,,,,,,,,,,,,6,testing_1,zh2x,e,zh2x_e,zh2x_8_exe.wav,zh2x_8_exe_copy.wav,,TRUE,TRUE,,,,,,,,,,,,,,f,0.1332,space,0.7783,,,,,,,,0,129,129,5,1,,
5a0c036857cee70001767a58,2023-06-16_10h19.28.157,phx_ver10,2022.2.5,Win32,59.78715772,,,,,,,,,,,,119,testing_3,sh2x,i,sh2x_i,sh2x_1_ishi.wav,sh2x_8_ixi.wav,,FALSE,FALSE,,,,,,,,,,,,,,j,0.2012,space,0.7392,,,,,,,,0,130,130,118,1,,
5a0c036857cee70001767a58,2023-06-16_10h19.28.157,phx_ver10,2022.2.5,Win32,59.78715772,,,,,,,,,,,,57,testing_3,zh2j,au,zh2j_au,zh2j_1_auzhau.wav,zh2j_1_auzhau.wav,,TRUE,FALSE,,,,,,,,,,,,,,f,0.38,space,0.9539,,,,,,,,0,131,131,56,1,,
5a0c036857cee70001767a58,2023-06-16_10h19.28.157,phx_ver10,2022.2.5,Win32,59.78715772,,,,,,,,,,,,87,testing_3,j2x,e,j2x_e,j2x_1_eje.wav,j2x_8_exe.wav,,FALSE,FALSE,,,,,,,,,,,,,,j,0.1024,space,0.6068,,,,,,,,0,132,132,86,1,,
5a0c036857cee70001767a58,2023-06-16_10h19.28.157,phx_ver10,2022.2.5,Win32,59.78715772,,,,,,,,,,,,134,testing_3,sh2j,e,sh2j_e,sh2j_8_eje.wav,sh2j_8_eje.wav,,TRUE,FALSE,,,,,,,,,,,,,,f,1.0385,space,1.5269,,,,,,,,0,133,133,133,1,,
5a0c036857cee70001767a58,2023-06-16_10h19.28.157,phx_ver10,2022.2.5,Win32,59.78715772,,,,,,,,,,,,12,testing_1,zh2x,i,zh2x_i,zh2x_8_ixi.wav,zh2x_1_izhi.wav,,FALSE,TRUE,,,,,,,,,,,,,,j,0.1182,space,0.6188,,,,,,,,0,134,134,11,1,,
5a0c036857cee70001767a58,2023-06-16_10h19.28.157,phx_ver10,2022.2.5,Win32,59.78715772,,,,,,,,,,,,56,testing_3,zh2j,ai,zh2j_ai,zh2j_8_aijai.wav,zh2j_1_aizhai.wav,,FALSE,FALSE,,,,,,,,,,,,,,f,0.118,space,0.7355,,,,,,,,0,135,135,55,1,,
5a0c036857cee70001767a58,2023-06-16_10h19.28.157,phx_ver10,2022.2.5,Win32,59.78715772,,,,,,,,,,,,17,testing_2,zh2x,au,zh2x_au,zh2x_1_auzhau.wav,zh2x_1_auzhau.wav,,TRUE,FALSE,,,,,,,,,,,,,,f,0.2339,space,0.7541,,,,,,,,0,136,136,16,1,,
5a0c036857cee70001767a58,2023-06-16_10h19.28.157,phx_ver10,2022.2.5,Win32,59.78715772,,,,,,,,,,,,111,testing_3,sh2x,e,sh2x_e,sh2x_1_eshe.wav,sh2x_8_exe.wav,,FALSE,FALSE,,,,,,,,,,,,,,j,0.1808,space,0.6357,,,,,,,,0,137,137,110,1,,
5a0c036857cee70001767a58,2023-06-16_10h19.28.157,phx_ver10,2022.2.5,Win32,59.78715772,,,,,,,,,,,,29,testing_3,zh2sh,ai,zh2sh_ai,zh2sh_1_aizhai.wav,zh2sh_1_aizhai.wav,,TRUE,FALSE,,,,,,,,,,,,,,f,0.3841,space,0.978,,,,,,,,0,138,138,28,1,,
5a0c036857cee70001767a58,2023-06-16_10h19.28.157,phx_ver10,2022.2.5,Win32,59.78715772,,,,,,,,,,,,104,testing_3,sh2x,ai,sh2x_ai,sh2x_8_aixai.wav,sh2x_1_aishai.wav,,FALSE,FALSE,,,,,,,,,,,,,,j,0.1845,space,0.6513,,,,,,,,0,139,139,103,1,,
5a0c036857cee70001767a58,2023-06-16_10h19.28.157,phx_ver10,2022.2.5,Win32,59.78715772,,,,,,,,,,,,30,testing_3,zh2sh,ai,zh2sh_ai,zh2sh_8_aishai.wav,zh2sh_8_aishai.wav,,TRUE,FALSE,,,,,,,,,,,,,,f,0.0005,space,0.4849,,,,,,,,0,140,140,29,1,,
5a0c036857cee70001767a58,2023-06-16_10h19.28.157,phx_ver10,2022.2.5,Win32,59.78715772,,,,,,,,,,,,106,testing_3,sh2x,au,sh2x_au,sh2x_8_auxau.wav,sh2x_8_auxau.wav,,TRUE,FALSE,,,,,,,,,,,,,,f,0.4362,space,0.9412,,,,,,,,0,141,141,105,1,,
5a0c036857cee70001767a58,2023-06-16_10h19.28.157,phx_ver10,2022.2.5,Win32,59.78715772,,,,,,,,,,,,44,testing_3,zh2sh,ei,zh2sh_ei,zh2sh_8_eishei.wav,zh2sh_1_eizhei.wav,,FALSE,FALSE,,,,,,,,,,,,,,j,0.0172,space,0.5354,,,,,,,,0,142,142,43,1,,
5a0c036857cee70001767a58,2023-06-16_10h19.28.157,phx_ver10,2022.2.5,Win32,59.78715772,,,,,,,,,,,,16,testing_2,zh2x,ai,zh2x_ai,zh2x_8_aixai.wav,zh2x_1_aizhai.wav,,FALSE,FALSE,,,,,,,,,,,,,,j,0.1053,space,0.5375,,,,,,,,0,143,143,15,1,,
5a0c036857cee70001767a58,2023-06-16_10h19.28.157,phx_ver10,2022.2.5,Win32,59.78715772,,,,,,,,,,,,,,,,,,,,,,,,,,,,,,,,,,,,,,,,,,,,,,,,,,,space,2.626
