participant,date,expName,psychopyVersion,OS,frameRate,space_1.keys,space_1.rt,space_2.keys,space_2.rt,space_train.keys,space_train.rt,training.thisRepN,training.thisTrialN,training.thisN,training.thisIndex,training.ran,token_id,task,continuum,vowel,series,sound_1,sound_2,img,same,trained,FJ_attn.keys,FJ_attn.rt,space_attn.keys,space_attn.rt,if_attn_test.thisRepN,if_attn_test.thisTrialN,if_attn_test.thisN,if_attn_test.thisIndex,if_attn_test.ran,space_trans_1.keys,space_trans_1.rt,space_trans_11.keys,space_trans_11.rt,FJ_test.keys,FJ_test.rt,space_test.keys,space_test.rt,testing_pre.thisRepN,testing_pre.thisTrialN,testing_pre.thisN,testing_pre.thisIndex,testing_pre.ran,space_trans_2.keys,space_trans_2.rt,testing_all.thisRepN,testing_all.thisTrialN,testing_all.thisN,testing_all.thisIndex,testing_all.ran,space_ending.keys,space_ending.rt
5a4e26a8f4c9dc0001b7a1b5,2023-06-16_10h00.48.831,phx_ver10,2022.2.5,Win32,20.39068553,,,,,,,,,,,,,,,,,,,,,,,,,,,,,,,,,,,,,,,,,,,,,,,,,,,,
5a4e26a8f4c9dc0001b7a1b5,2023-06-16_10h00.48.831,phx_ver10,2022.2.5,Win32,20.39068553,space,2.858299999,,,,,,,,,,,,,,,,,,,,,,,,,,,,,,,,,,,,,,,,,,,,,,,,,,
5a4e26a8f4c9dc0001b7a1b5,2023-06-16_10h00.48.831,phx_ver10,2022.2.5,Win32,20.39068553,,,space,1.7939,,,,,,,,,,,,,,,,,,,,,,,,,,,,,,,,,,,,,,,,,,,,,,,,
5a4e26a8f4c9dc0001b7a1b5,2023-06-16_10h00.48.831,phx_ver10,2022.2.5,Win32,20.39068553,,,,,space,1.366300001,0,0,0,9,1,10,training,zh2x,a,zh2x_a,zh2x_6_axa.wav,,axa.jpg,,,,,,,,,,,,,,,,,,,,,,,,,,,,,,,,,
5a4e26a8f4c9dc0001b7a1b5,2023-06-16_10h00.48.831,phx_ver10,2022.2.5,Win32,20.39068553,,,,,space,0.791800001,0,1,1,5,1,6,training,zh2x,a,zh2x_a,zh2x_3_azha.wav,,azha.jpg,,,,,,,,,,,,,,,,,,,,,,,,,,,,,,,,,
5a4e26a8f4c9dc0001b7a1b5,2023-06-16_10h00.48.831,phx_ver10,2022.2.5,Win32,20.39068553,,,,,space,3.029799999,0,2,2,41,1,42,training,zh2x,i,zh2x_i,zh2x_6_ixi.wav,,ixi.jpg,,,,,,,,,,,,,,,,,,,,,,,,,,,,,,,,,
5a4e26a8f4c9dc0001b7a1b5,2023-06-16_10h00.48.831,phx_ver10,2022.2.5,Win32,20.39068553,,,,,space,52.9983,0,3,3,39,1,40,training,zh2x,i,zh2x_i,zh2x_4_izhi.wav,,izhi.jpg,,,,,,,,,,,,,,,,,,,,,,,,,,,,,,,,,
5a4e26a8f4c9dc0001b7a1b5,2023-06-16_10h00.48.831,phx_ver10,2022.2.5,Win32,20.39068553,,,,,space,0.9551,0,4,4,38,1,39,training,zh2x,i,zh2x_i,zh2x_3_izhi.wav,,izhi.jpg,,,,,,,,,,,,,,,,,,,,,,,,,,,,,,,,,
5a4e26a8f4c9dc0001b7a1b5,2023-06-16_10h00.48.831,phx_ver10,2022.2.5,Win32,20.39068553,,,,,space,0.5401,0,5,5,32,1,33,training,zh2x,i,zh2x_i,zh2x_1_izhi.wav,,izhi.jpg,,,,,,,,,,,,,,,,,,,,,,,,,,,,,,,,,
5a4e26a8f4c9dc0001b7a1b5,2023-06-16_10h00.48.831,phx_ver10,2022.2.5,Win32,20.39068553,,,,,,,,,,,,,attn_test,,,,zh2x_8_ixi.wav,zh2x_1_izhi.wav,izhi.jpg,RIGHT,,f,7.149799999,space,7.763700001,0,0,0,0,1,,,,,,,,,,,,,,,,,,,,,,
5a4e26a8f4c9dc0001b7a1b5,2023-06-16_10h00.48.831,phx_ver10,2022.2.5,Win32,20.39068553,,,,,space,0.8214,0,6,6,28,1,29,training,zh2x,e,zh2x_e,zh2x_7_exe.wav,,exe.jpg,,,,,,,,,,,,,,,,,,,,,,,,,,,,,,,,,
5a4e26a8f4c9dc0001b7a1b5,2023-06-16_10h00.48.831,phx_ver10,2022.2.5,Win32,20.39068553,,,,,space,1.6035,0,7,7,36,1,37,training,zh2x,i,zh2x_i,zh2x_2_izhi.wav,,izhi.jpg,,,,,,,,,,,,,,,,,,,,,,,,,,,,,,,,,
5a4e26a8f4c9dc0001b7a1b5,2023-06-16_10h00.48.831,phx_ver10,2022.2.5,Win32,20.39068553,,,,,space,0.745900002,0,8,8,43,1,44,training,zh2x,i,zh2x_i,zh2x_7_ixi.wav,,ixi.jpg,,,,,,,,,,,,,,,,,,,,,,,,,,,,,,,,,
5a4e26a8f4c9dc0001b7a1b5,2023-06-16_10h00.48.831,phx_ver10,2022.2.5,Win32,20.39068553,,,,,space,1.171300001,0,9,9,33,1,34,training,zh2x,i,zh2x_i,zh2x_2_izhi.wav,,izhi.jpg,,,,,,,,,,,,,,,,,,,,,,,,,,,,,,,,,
5a4e26a8f4c9dc0001b7a1b5,2023-06-16_10h00.48.831,phx_ver10,2022.2.5,Win32,20.39068553,,,,,space,4.3896,0,10,10,12,1,13,training,zh2x,a,zh2x_a,zh2x_7_axa.wav,,axa.jpg,,,,,,,,,,,,,,,,,,,,,,,,,,,,,,,,,
5a4e26a8f4c9dc0001b7a1b5,2023-06-16_10h00.48.831,phx_ver10,2022.2.5,Win32,20.39068553,,,,,space,1.284799999,0,11,11,42,1,43,training,zh2x,i,zh2x_i,zh2x_6_ixi.wav,,ixi.jpg,,,,,,,,,,,,,,,,,,,,,,,,,,,,,,,,,
5a4e26a8f4c9dc0001b7a1b5,2023-06-16_10h00.48.831,phx_ver10,2022.2.5,Win32,20.39068553,,,,,,,,,,,,,attn_test,,,,zh2x_8_ixi.wav,zh2x_8_axa.wav,ixi.jpg,LEFT,,j,0.8246,space,1.4234,0,0,0,0,1,,,,,,,,,,,,,,,,,,,,,,
5a4e26a8f4c9dc0001b7a1b5,2023-06-16_10h00.48.831,phx_ver10,2022.2.5,Win32,20.39068553,,,,,space,6.714,0,12,12,8,1,9,training,zh2x,a,zh2x_a,zh2x_5_axa.wav,,axa.jpg,,,,,,,,,,,,,,,,,,,,,,,,,,,,,,,,,
5a4e26a8f4c9dc0001b7a1b5,2023-06-16_10h00.48.831,phx_ver10,2022.2.5,Win32,20.39068553,,,,,space,10.655,0,13,13,26,1,27,training,zh2x,e,zh2x_e,zh2x_6_exe.wav,,exe.jpg,,,,,,,,,,,,,,,,,,,,,,,,,,,,,,,,,
5a4e26a8f4c9dc0001b7a1b5,2023-06-16_10h00.48.831,phx_ver10,2022.2.5,Win32,20.39068553,,,,,space,3.0785,0,14,14,20,1,21,training,zh2x,e,zh2x_e,zh2x_2_ezhe.wav,,ezhe.jpg,,,,,,,,,,,,,,,,,,,,,,,,,,,,,,,,,
5a4e26a8f4c9dc0001b7a1b5,2023-06-16_10h00.48.831,phx_ver10,2022.2.5,Win32,20.39068553,,,,,space,1.3881,0,15,15,1,1,2,training,zh2x,a,zh2x_a,zh2x_2_azha.wav,,azha.jpg,,,,,,,,,,,,,,,,,,,,,,,,,,,,,,,,,
5a4e26a8f4c9dc0001b7a1b5,2023-06-16_10h00.48.831,phx_ver10,2022.2.5,Win32,20.39068553,,,,,space,0.844199999,0,16,16,14,1,15,training,zh2x,a,zh2x_a,zh2x_7_axa.wav,,axa.jpg,,,,,,,,,,,,,,,,,,,,,,,,,,,,,,,,,
5a4e26a8f4c9dc0001b7a1b5,2023-06-16_10h00.48.831,phx_ver10,2022.2.5,Win32,20.39068553,,,,,space,6.333300001,0,17,17,18,1,19,training,zh2x,e,zh2x_e,zh2x_2_ezhe.wav,,ezhe.jpg,,,,,,,,,,,,,,,,,,,,,,,,,,,,,,,,,
5a4e26a8f4c9dc0001b7a1b5,2023-06-16_10h00.48.831,phx_ver10,2022.2.5,Win32,20.39068553,,,,,,,,,,,,,attn_test,,,,zh2x_8_axa.wav,zh2x_1_ezhe.wav,axa.jpg,LEFT,,f,4.321099998,space,4.712700001,0,0,0,0,1,,,,,,,,,,,,,,,,,,,,,,
5a4e26a8f4c9dc0001b7a1b5,2023-06-16_10h00.48.831,phx_ver10,2022.2.5,Win32,20.39068553,,,,,space,50.2001,0,18,18,37,1,38,training,zh2x,i,zh2x_i,zh2x_3_izhi.wav,,izhi.jpg,,,,,,,,,,,,,,,,,,,,,,,,,,,,,,,,,
5a4e26a8f4c9dc0001b7a1b5,2023-06-16_10h00.48.831,phx_ver10,2022.2.5,Win32,20.39068553,,,,,space,10.1662,0,19,19,34,1,35,training,zh2x,i,zh2x_i,zh2x_2_izhi.wav,,izhi.jpg,,,,,,,,,,,,,,,,,,,,,,,,,,,,,,,,,
5a4e26a8f4c9dc0001b7a1b5,2023-06-16_10h00.48.831,phx_ver10,2022.2.5,Win32,20.39068553,,,,,space,0.855300001,0,20,20,13,1,14,training,zh2x,a,zh2x_a,zh2x_7_axa.wav,,axa.jpg,,,,,,,,,,,,,,,,,,,,,,,,,,,,,,,,,
5a4e26a8f4c9dc0001b7a1b5,2023-06-16_10h00.48.831,phx_ver10,2022.2.5,Win32,20.39068553,,,,,space,5.870199999,0,21,21,30,1,31,training,zh2x,e,zh2x_e,zh2x_7_exe.wav,,exe.jpg,,,,,,,,,,,,,,,,,,,,,,,,,,,,,,,,,
5a4e26a8f4c9dc0001b7a1b5,2023-06-16_10h00.48.831,phx_ver10,2022.2.5,Win32,20.39068553,,,,,space,289.2136,0,22,22,45,1,46,training,zh2x,i,zh2x_i,zh2x_7_ixi.wav,,ixi.jpg,,,,,,,,,,,,,,,,,,,,,,,,,,,,,,,,,
5a4e26a8f4c9dc0001b7a1b5,2023-06-16_10h00.48.831,phx_ver10,2022.2.5,Win32,20.39068553,,,,,space,0.704799999,0,23,23,47,1,48,training,zh2x,i,zh2x_i,zh2x_8_ixi.wav,,ixi.jpg,,,,,,,,,,,,,,,,,,,,,,,,,,,,,,,,,
5a4e26a8f4c9dc0001b7a1b5,2023-06-16_10h00.48.831,phx_ver10,2022.2.5,Win32,20.39068553,,,,,,,,,,,,,attn_test,,,,zh2x_8_axa.wav,zh2x_8_exe.wav,exe.jpg,RIGHT,,f,1.313099998,space,1.870199999,0,0,0,0,1,,,,,,,,,,,,,,,,,,,,,,
5a4e26a8f4c9dc0001b7a1b5,2023-06-16_10h00.48.831,phx_ver10,2022.2.5,Win32,20.39068553,,,,,space,0.416,0,24,24,25,1,26,training,zh2x,e,zh2x_e,zh2x_6_exe.wav,,exe.jpg,,,,,,,,,,,,,,,,,,,,,,,,,,,,,,,,,
5a4e26a8f4c9dc0001b7a1b5,2023-06-16_10h00.48.831,phx_ver10,2022.2.5,Win32,20.39068553,,,,,space,0.488,0,25,25,7,1,8,training,zh2x,a,zh2x_a,zh2x_4_azha.wav,,azha.jpg,,,,,,,,,,,,,,,,,,,,,,,,,,,,,,,,,
5a4e26a8f4c9dc0001b7a1b5,2023-06-16_10h00.48.831,phx_ver10,2022.2.5,Win32,20.39068553,,,,,space,0.4221,0,26,26,21,1,22,training,zh2x,e,zh2x_e,zh2x_3_ezhe.wav,,ezhe.jpg,,,,,,,,,,,,,,,,,,,,,,,,,,,,,,,,,
5a4e26a8f4c9dc0001b7a1b5,2023-06-16_10h00.48.831,phx_ver10,2022.2.5,Win32,20.39068553,,,,,space,0.1491,0,27,27,29,1,30,training,zh2x,e,zh2x_e,zh2x_7_exe.wav,,exe.jpg,,,,,,,,,,,,,,,,,,,,,,,,,,,,,,,,,
5a4e26a8f4c9dc0001b7a1b5,2023-06-16_10h00.48.831,phx_ver10,2022.2.5,Win32,20.39068553,,,,,space,0.4566,0,28,28,24,1,25,training,zh2x,e,zh2x_e,zh2x_5_exe.wav,,exe.jpg,,,,,,,,,,,,,,,,,,,,,,,,,,,,,,,,,
5a4e26a8f4c9dc0001b7a1b5,2023-06-16_10h00.48.831,phx_ver10,2022.2.5,Win32,20.39068553,,,,,space,0.1384,0,29,29,35,1,36,training,zh2x,i,zh2x_i,zh2x_2_izhi.wav,,izhi.jpg,,,,,,,,,,,,,,,,,,,,,,,,,,,,,,,,,
5a4e26a8f4c9dc0001b7a1b5,2023-06-16_10h00.48.831,phx_ver10,2022.2.5,Win32,20.39068553,,,,,,,,,,,,,attn_test,,,,zh2x_8_exe.wav,zh2x_8_axa.wav,exe.jpg,LEFT,,f,0.0016,space,0.4694,0,0,0,0,1,,,,,,,,,,,,,,,,,,,,,,
5a4e26a8f4c9dc0001b7a1b5,2023-06-16_10h00.48.831,phx_ver10,2022.2.5,Win32,20.39068553,,,,,space,0.3595,0,30,30,6,1,7,training,zh2x,a,zh2x_a,zh2x_3_azha.wav,,azha.jpg,,,,,,,,,,,,,,,,,,,,,,,,,,,,,,,,,
5a4e26a8f4c9dc0001b7a1b5,2023-06-16_10h00.48.831,phx_ver10,2022.2.5,Win32,20.39068553,,,,,space,0.4515,0,31,31,16,1,17,training,zh2x,e,zh2x_e,zh2x_1_ezhe.wav,,ezhe.jpg,,,,,,,,,,,,,,,,,,,,,,,,,,,,,,,,,
5a4e26a8f4c9dc0001b7a1b5,2023-06-16_10h00.48.831,phx_ver10,2022.2.5,Win32,20.39068553,,,,,space,0.608799999,0,32,32,27,1,28,training,zh2x,e,zh2x_e,zh2x_7_exe.wav,,exe.jpg,,,,,,,,,,,,,,,,,,,,,,,,,,,,,,,,,
5a4e26a8f4c9dc0001b7a1b5,2023-06-16_10h00.48.831,phx_ver10,2022.2.5,Win32,20.39068553,,,,,space,0.7735,0,33,33,46,1,47,training,zh2x,i,zh2x_i,zh2x_7_ixi.wav,,ixi.jpg,,,,,,,,,,,,,,,,,,,,,,,,,,,,,,,,,
5a4e26a8f4c9dc0001b7a1b5,2023-06-16_10h00.48.831,phx_ver10,2022.2.5,Win32,20.39068553,,,,,space,0.320099998,0,34,34,2,1,3,training,zh2x,a,zh2x_a,zh2x_2_azha.wav,,azha.jpg,,,,,,,,,,,,,,,,,,,,,,,,,,,,,,,,,
5a4e26a8f4c9dc0001b7a1b5,2023-06-16_10h00.48.831,phx_ver10,2022.2.5,Win32,20.39068553,,,,,space,0.320900002,0,35,35,44,1,45,training,zh2x,i,zh2x_i,zh2x_7_ixi.wav,,ixi.jpg,,,,,,,,,,,,,,,,,,,,,,,,,,,,,,,,,
5a4e26a8f4c9dc0001b7a1b5,2023-06-16_10h00.48.831,phx_ver10,2022.2.5,Win32,20.39068553,,,,,,,,,,,,,attn_test,,,,zh2x_1_izhi.wav,zh2x_8_exe.wav,exe.jpg,RIGHT,,f,1.368200001,space,1.655800001,0,0,0,0,1,,,,,,,,,,,,,,,,,,,,,,
5a4e26a8f4c9dc0001b7a1b5,2023-06-16_10h00.48.831,phx_ver10,2022.2.5,Win32,20.39068553,,,,,space,1.0559,0,36,36,40,1,41,training,zh2x,i,zh2x_i,zh2x_5_ixi.wav,,ixi.jpg,,,,,,,,,,,,,,,,,,,,,,,,,,,,,,,,,
5a4e26a8f4c9dc0001b7a1b5,2023-06-16_10h00.48.831,phx_ver10,2022.2.5,Win32,20.39068553,,,,,space,0.6834,0,37,37,19,1,20,training,zh2x,e,zh2x_e,zh2x_2_ezhe.wav,,ezhe.jpg,,,,,,,,,,,,,,,,,,,,,,,,,,,,,,,,,
5a4e26a8f4c9dc0001b7a1b5,2023-06-16_10h00.48.831,phx_ver10,2022.2.5,Win32,20.39068553,,,,,space,0.838700001,0,38,38,3,1,4,training,zh2x,a,zh2x_a,zh2x_2_azha.wav,,azha.jpg,,,,,,,,,,,,,,,,,,,,,,,,,,,,,,,,,
5a4e26a8f4c9dc0001b7a1b5,2023-06-16_10h00.48.831,phx_ver10,2022.2.5,Win32,20.39068553,,,,,space,4.4,0,39,39,11,1,12,training,zh2x,a,zh2x_a,zh2x_7_axa.wav,,axa.jpg,,,,,,,,,,,,,,,,,,,,,,,,,,,,,,,,,
5a4e26a8f4c9dc0001b7a1b5,2023-06-16_10h00.48.831,phx_ver10,2022.2.5,Win32,20.39068553,,,,,space,1.0411,0,40,40,10,1,11,training,zh2x,a,zh2x_a,zh2x_6_axa.wav,,axa.jpg,,,,,,,,,,,,,,,,,,,,,,,,,,,,,,,,,
5a4e26a8f4c9dc0001b7a1b5,2023-06-16_10h00.48.831,phx_ver10,2022.2.5,Win32,20.39068553,,,,,space,40.7118,0,41,41,22,1,23,training,zh2x,e,zh2x_e,zh2x_3_ezhe.wav,,ezhe.jpg,,,,,,,,,,,,,,,,,,,,,,,,,,,,,,,,,
5a4e26a8f4c9dc0001b7a1b5,2023-06-16_10h00.48.831,phx_ver10,2022.2.5,Win32,20.39068553,,,,,,,,,,,,,attn_test,,,,zh2x_8_axa.wav,zh2x_1_ezhe.wav,axa.jpg,LEFT,,f,0.1679,space,1.0044,0,0,0,0,1,,,,,,,,,,,,,,,,,,,,,,
5a4e26a8f4c9dc0001b7a1b5,2023-06-16_10h00.48.831,phx_ver10,2022.2.5,Win32,20.39068553,,,,,space,169.6125,0,42,42,4,1,5,training,zh2x,a,zh2x_a,zh2x_2_azha.wav,,azha.jpg,,,,,,,,,,,,,,,,,,,,,,,,,,,,,,,,,
5a4e26a8f4c9dc0001b7a1b5,2023-06-16_10h00.48.831,phx_ver10,2022.2.5,Win32,20.39068553,,,,,space,0.2755,0,43,43,23,1,24,training,zh2x,e,zh2x_e,zh2x_4_ezhe.wav,,ezhe.jpg,,,,,,,,,,,,,,,,,,,,,,,,,,,,,,,,,
5a4e26a8f4c9dc0001b7a1b5,2023-06-16_10h00.48.831,phx_ver10,2022.2.5,Win32,20.39068553,,,,,space,0.766099998,0,44,44,15,1,16,training,zh2x,a,zh2x_a,zh2x_8_axa.wav,,axa.jpg,,,,,,,,,,,,,,,,,,,,,,,,,,,,,,,,,
5a4e26a8f4c9dc0001b7a1b5,2023-06-16_10h00.48.831,phx_ver10,2022.2.5,Win32,20.39068553,,,,,space,3.2004,0,45,45,17,1,18,training,zh2x,e,zh2x_e,zh2x_2_ezhe.wav,,ezhe.jpg,,,,,,,,,,,,,,,,,,,,,,,,,,,,,,,,,
5a4e26a8f4c9dc0001b7a1b5,2023-06-16_10h00.48.831,phx_ver10,2022.2.5,Win32,20.39068553,,,,,space,3.9885,0,46,46,0,1,1,training,zh2x,a,zh2x_a,zh2x_1_azha.wav,,azha.jpg,,,,,,,,,,,,,,,,,,,,,,,,,,,,,,,,,
5a4e26a8f4c9dc0001b7a1b5,2023-06-16_10h00.48.831,phx_ver10,2022.2.5,Win32,20.39068553,,,,,space,3.0276,0,47,47,31,1,32,training,zh2x,e,zh2x_e,zh2x_8_exe.wav,,exe.jpg,,,,,,,,,,,,,,,,,,,,,,,,,,,,,,,,,
5a4e26a8f4c9dc0001b7a1b5,2023-06-16_10h00.48.831,phx_ver10,2022.2.5,Win32,20.39068553,,,,,,,,,,,,,attn_test,,,,zh2x_1_ezhe.wav,zh2x_8_exe.wav,exe.jpg,RIGHT,,f,8.9204,space,9.5555,,,,,,,,,,,,,,,,,,,,,,,,,,,
5a4e26a8f4c9dc0001b7a1b5,2023-06-16_10h00.48.831,phx_ver10,2022.2.5,Win32,20.39068553,,,,,,,,,,,,,,,,,,,,,,,,,,,,,,,space,38.917,,,,,,,,,,,,,,,,,,,,
5a4e26a8f4c9dc0001b7a1b5,2023-06-16_10h00.48.831,phx_ver10,2022.2.5,Win32,20.39068553,,,,,,,,,,,,,,,,,,,,,,,,,,,,,,,,,space,2.5174,,,,,,,,,,,,,,,,,,
5a4e26a8f4c9dc0001b7a1b5,2023-06-16_10h00.48.831,phx_ver10,2022.2.5,Win32,20.39068553,,,,,,,,,,,,4,testing_pre,,,,eihei.wav,eihei.wav,,TRUE,,,,,,,,,,,,,,,j,2.8431,space,3.244800001,0,0,0,3,1,,,,,,,,,
5a4e26a8f4c9dc0001b7a1b5,2023-06-16_10h00.48.831,phx_ver10,2022.2.5,Win32,20.39068553,,,,,,,,,,,,5,testing_pre,,,,ihi.wav,ifi.wav,,FALSE,,,,,,,,,,,,,,,f,1.526,space,1.8355,0,1,1,4,1,,,,,,,,,
5a4e26a8f4c9dc0001b7a1b5,2023-06-16_10h00.48.831,phx_ver10,2022.2.5,Win32,20.39068553,,,,,,,,,,,,2,testing_pre,,,,auhau.wav,aufau.wav,,FALSE,,,,,,,,,,,,,,,j,0.718700001,space,1.077300001,0,2,2,1,1,,,,,,,,,
5a4e26a8f4c9dc0001b7a1b5,2023-06-16_10h00.48.831,phx_ver10,2022.2.5,Win32,20.39068553,,,,,,,,,,,,1,testing_pre,,,,ifi.wav,ifi.wav,,TRUE,,,,,,,,,,,,,,,f,0.4056,space,0.911099998,0,3,3,0,1,,,,,,,,,
5a4e26a8f4c9dc0001b7a1b5,2023-06-16_10h00.48.831,phx_ver10,2022.2.5,Win32,20.39068553,,,,,,,,,,,,3,testing_pre,,,,afa.wav,aha.wav,,FALSE,,,,,,,,,,,,,,,f,0.3196,space,0.600299999,0,4,4,2,1,,,,,,,,,
5a4e26a8f4c9dc0001b7a1b5,2023-06-16_10h00.48.831,phx_ver10,2022.2.5,Win32,20.39068553,,,,,,,,,,,,,,,,,,,,,,,,,,,,,,,,,,,,,,,,,,,,space,0.0869,,,,,,,
5a4e26a8f4c9dc0001b7a1b5,2023-06-16_10h00.48.831,phx_ver10,2022.2.5,Win32,20.39068553,,,,,,,,,,,,22,testing_2,zh2x,ei,zh2x_ei,zh2x_8_eixei.wav,zh2x_8_eixei.wav,,TRUE,FALSE,,,,,,,,,,,,,,f,0.811699999,space,0.993,,,,,,,,0,0,0,21,1,,
5a4e26a8f4c9dc0001b7a1b5,2023-06-16_10h00.48.831,phx_ver10,2022.2.5,Win32,20.39068553,,,,,,,,,,,,95,testing_3,j2x,i,j2x_i,j2x_1_iji.wav,j2x_8_ixi.wav,,FALSE,FALSE,,,,,,,,,,,,,,f,0.7524,space,0.9056,,,,,,,,0,1,1,94,1,,
5a4e26a8f4c9dc0001b7a1b5,2023-06-16_10h00.48.831,phx_ver10,2022.2.5,Win32,20.39068553,,,,,,,,,,,,49,testing_3,zh2j,a,zh2j_a,zh2j_1_azha.wav,zh2j_1_azha.wav,,TRUE,FALSE,,,,,,,,,,,,,,f,0.249,space,0.563299999,,,,,,,,0,2,2,48,1,,
5a4e26a8f4c9dc0001b7a1b5,2023-06-16_10h00.48.831,phx_ver10,2022.2.5,Win32,20.39068553,,,,,,,,,,,,133,testing_3,sh2j,e,sh2j_e,sh2j_1_eshe.wav,sh2j_1_eshe.wav,,TRUE,FALSE,,,,,,,,,,,,,,f,0.1016,space,0.309300001,,,,,,,,0,3,3,132,1,,
5a4e26a8f4c9dc0001b7a1b5,2023-06-16_10h00.48.831,phx_ver10,2022.2.5,Win32,20.39068553,,,,,,,,,,,,46,testing_3,zh2sh,i,zh2sh_i,zh2sh_8_ishi.wav,zh2sh_8_ishi.wav,,TRUE,FALSE,,,,,,,,,,,,,,f,0.434900002,space,0.735,,,,,,,,0,4,4,45,1,,
5a4e26a8f4c9dc0001b7a1b5,2023-06-16_10h00.48.831,phx_ver10,2022.2.5,Win32,20.39068553,,,,,,,,,,,,124,testing_3,sh2j,a,sh2j_a,sh2j_8_aja.wav,sh2j_1_asha.wav,,FALSE,FALSE,,,,,,,,,,,,,,j,1.0795,space,1.5334,,,,,,,,0,5,5,123,1,,
5a4e26a8f4c9dc0001b7a1b5,2023-06-16_10h00.48.831,phx_ver10,2022.2.5,Win32,20.39068553,,,,,,,,,,,,8,testing_1,zh2x,e,zh2x_e,zh2x_8_exe.wav,zh2x_1_ezhe.wav,,FALSE,TRUE,,,,,,,,,,,,,,j,0.353299999,space,0.6536,,,,,,,,0,6,6,7,1,,
5a4e26a8f4c9dc0001b7a1b5,2023-06-16_10h00.48.831,phx_ver10,2022.2.5,Win32,20.39068553,,,,,,,,,,,,131,testing_3,sh2j,au,sh2j_au,sh2j_1_aushau.wav,sh2j_8_aujau.wav,,FALSE,FALSE,,,,,,,,,,,,,,j,0.1865,space,0.420700001,,,,,,,,0,7,7,130,1,,
5a4e26a8f4c9dc0001b7a1b5,2023-06-16_10h00.48.831,phx_ver10,2022.2.5,Win32,20.39068553,,,,,,,,,,,,78,testing_3,j2x,ai,j2x_ai,j2x_8_aixai.wav,j2x_8_aixai.wav,,TRUE,FALSE,,,,,,,,,,,,,,f,0.1856,space,0.385400002,,,,,,,,0,8,8,77,1,,
5a4e26a8f4c9dc0001b7a1b5,2023-06-16_10h00.48.831,phx_ver10,2022.2.5,Win32,20.39068553,,,,,,,,,,,,74,testing_3,j2x,a,j2x_a,j2x_8_axa.wav,j2x_8_axa.wav,,TRUE,FALSE,,,,,,,,,,,,,,f,0.042,space,0.383200001,,,,,,,,0,9,9,73,1,,
5a4e26a8f4c9dc0001b7a1b5,2023-06-16_10h00.48.831,phx_ver10,2022.2.5,Win32,20.39068553,,,,,,,,,,,,111,testing_3,sh2x,e,sh2x_e,sh2x_1_eshe.wav,sh2x_8_exe.wav,,FALSE,FALSE,,,,,,,,,,,,,,f,0.036599998,space,0.305300001,,,,,,,,0,10,10,110,1,,
5a4e26a8f4c9dc0001b7a1b5,2023-06-16_10h00.48.831,phx_ver10,2022.2.5,Win32,20.39068553,,,,,,,,,,,,94,testing_3,j2x,i,j2x_i,j2x_8_ixi.wav,j2x_8_ixi.wav,,TRUE,FALSE,,,,,,,,,,,,,,f,0.0369,space,0.286299999,,,,,,,,0,11,11,93,1,,
5a4e26a8f4c9dc0001b7a1b5,2023-06-16_10h00.48.831,phx_ver10,2022.2.5,Win32,20.39068553,,,,,,,,,,,,29,testing_3,zh2sh,ai,zh2sh_ai,zh2sh_1_aizhai.wav,zh2sh_1_aizhai.wav,,TRUE,FALSE,,,,,,,,,,,,,,f,0.1361,space,0.3681,,,,,,,,0,12,12,28,1,,
5a4e26a8f4c9dc0001b7a1b5,2023-06-16_10h00.48.831,phx_ver10,2022.2.5,Win32,20.39068553,,,,,,,,,,,,30,testing_3,zh2sh,ai,zh2sh_ai,zh2sh_8_aishai.wav,zh2sh_8_aishai.wav,,TRUE,FALSE,,,,,,,,,,,,,,f,0.678300001,space,0.9364,,,,,,,,0,13,13,29,1,,
5a4e26a8f4c9dc0001b7a1b5,2023-06-16_10h00.48.831,phx_ver10,2022.2.5,Win32,20.39068553,,,,,,,,,,,,14,testing_2,zh2x,ai,zh2x_ai,zh2x_8_aixai.wav,zh2x_8_aixai.wav,,TRUE,FALSE,,,,,,,,,,,,,,f,0.5219,space,0.867599998,,,,,,,,0,14,14,13,1,,
5a4e26a8f4c9dc0001b7a1b5,2023-06-16_10h00.48.831,phx_ver10,2022.2.5,Win32,20.39068553,,,,,,,,,,,,28,testing_3,zh2sh,a,zh2sh_a,zh2sh_8_asha.wav,zh2sh_1_azha.wav,,FALSE,FALSE,,,,,,,,,,,,,,j,0.439400002,space,0.6715,,,,,,,,0,15,15,27,1,,
5a4e26a8f4c9dc0001b7a1b5,2023-06-16_10h00.48.831,phx_ver10,2022.2.5,Win32,20.39068553,,,,,,,,,,,,135,testing_3,sh2j,e,sh2j_e,sh2j_1_eshe.wav,sh2j_8_eje.wav,,FALSE,FALSE,,,,,,,,,,,,,,j,0.0031,space,0.270299999,,,,,,,,0,16,16,134,1,,
5a4e26a8f4c9dc0001b7a1b5,2023-06-16_10h00.48.831,phx_ver10,2022.2.5,Win32,20.39068553,,,,,,,,,,,,127,testing_3,sh2j,ai,sh2j_ai,sh2j_1_aishai.wav,sh2j_8_aijai.wav,,FALSE,FALSE,,,,,,,,,,,,,,j,0.510099998,space,0.855099998,,,,,,,,0,17,17,126,1,,
5a4e26a8f4c9dc0001b7a1b5,2023-06-16_10h00.48.831,phx_ver10,2022.2.5,Win32,20.39068553,,,,,,,,,,,,100,testing_3,sh2x,a,sh2x_a,sh2x_8_axa.wav,sh2x_1_asha.wav,,FALSE,FALSE,,,,,,,,,,,,,,f,0.2795,space,0.444,,,,,,,,0,18,18,99,1,,
5a4e26a8f4c9dc0001b7a1b5,2023-06-16_10h00.48.831,phx_ver10,2022.2.5,Win32,20.39068553,,,,,,,,,,,,91,testing_3,j2x,ei,j2x_ei,j2x_1_eijei.wav,j2x_8_eixei.wav,,FALSE,FALSE,,,,,,,,,,,,,,j,0.3519,space,0.556800001,,,,,,,,0,19,19,90,1,,
5a4e26a8f4c9dc0001b7a1b5,2023-06-16_10h00.48.831,phx_ver10,2022.2.5,Win32,20.39068553,,,,,,,,,,,,64,testing_3,zh2j,e,zh2j_e,zh2j_8_eje.wav,zh2j_1_ezhe.wav,,FALSE,FALSE,,,,,,,,,,,,,,f,0.184300001,space,0.4419,,,,,,,,0,20,20,63,1,,
5a4e26a8f4c9dc0001b7a1b5,2023-06-16_10h00.48.831,phx_ver10,2022.2.5,Win32,20.39068553,,,,,,,,,,,,4,testing_1,zh2x,a,zh2x_a,zh2x_8_axa.wav,zh2x_1_azha.wav,,FALSE,TRUE,,,,,,,,,,,,,,j,0.090700001,space,0.334800001,,,,,,,,0,21,21,3,1,,
5a4e26a8f4c9dc0001b7a1b5,2023-06-16_10h00.48.831,phx_ver10,2022.2.5,Win32,20.39068553,,,,,,,,,,,,101,testing_3,sh2x,ai,sh2x_ai,sh2x_1_aishai.wav,sh2x_1_aishai.wav,,TRUE,FALSE,,,,,,,,,,,,,,f,0.0511,space,0.336,,,,,,,,0,22,22,100,1,,
5a4e26a8f4c9dc0001b7a1b5,2023-06-16_10h00.48.831,phx_ver10,2022.2.5,Win32,20.39068553,,,,,,,,,,,,31,testing_3,zh2sh,ai,zh2sh_ai,zh2sh_1_aizhai.wav,zh2sh_8_aishai.wav,,FALSE,FALSE,,,,,,,,,,,,,,j,0.578200001,space,0.938200001,,,,,,,,0,23,23,30,1,,
5a4e26a8f4c9dc0001b7a1b5,2023-06-16_10h00.48.831,phx_ver10,2022.2.5,Win32,20.39068553,,,,,,,,,,,,67,testing_3,zh2j,ei,zh2j_ei,zh2j_1_eizhei.wav,zh2j_8_eijei.wav,,FALSE,FALSE,,,,,,,,,,,,,,f,0.091199999,space,0.3829,,,,,,,,0,24,24,66,1,,
5a4e26a8f4c9dc0001b7a1b5,2023-06-16_10h00.48.831,phx_ver10,2022.2.5,Win32,20.39068553,,,,,,,,,,,,16,testing_2,zh2x,ai,zh2x_ai,zh2x_8_aixai.wav,zh2x_1_aizhai.wav,,FALSE,FALSE,,,,,,,,,,,,,,j,0.151700001,space,0.416,,,,,,,,0,25,25,15,1,,
5a4e26a8f4c9dc0001b7a1b5,2023-06-16_10h00.48.831,phx_ver10,2022.2.5,Win32,20.39068553,,,,,,,,,,,,75,testing_3,j2x,a,j2x_a,j2x_1_aja.wav,j2x_8_axa.wav,,FALSE,FALSE,,,,,,,,,,,,,,j,0.037299999,space,0.3779,,,,,,,,0,26,26,74,1,,
5a4e26a8f4c9dc0001b7a1b5,2023-06-16_10h00.48.831,phx_ver10,2022.2.5,Win32,20.39068553,,,,,,,,,,,,96,testing_3,j2x,i,j2x_i,j2x_8_ixi.wav,j2x_1_iji.wav,,FALSE,FALSE,,,,,,,,,,,,,,j,0.0105,space,0.2754,,,,,,,,0,27,27,95,1,,
5a4e26a8f4c9dc0001b7a1b5,2023-06-16_10h00.48.831,phx_ver10,2022.2.5,Win32,20.39068553,,,,,,,,,,,,39,testing_3,zh2sh,e,zh2sh_e,zh2sh_1_ezhe.wav,zh2sh_8_eshe.wav,,FALSE,FALSE,,,,,,,,,,,,,,j,0.702200001,space,0.964200001,,,,,,,,0,28,28,38,1,,
5a4e26a8f4c9dc0001b7a1b5,2023-06-16_10h00.48.831,phx_ver10,2022.2.5,Win32,20.39068553,,,,,,,,,,,,12,testing_1,zh2x,i,zh2x_i,zh2x_8_ixi.wav,zh2x_1_izhi.wav,,FALSE,TRUE,,,,,,,,,,,,,,j,0.0275,space,0.361099998,,,,,,,,0,29,29,11,1,,
5a4e26a8f4c9dc0001b7a1b5,2023-06-16_10h00.48.831,phx_ver10,2022.2.5,Win32,20.39068553,,,,,,,,,,,,62,testing_3,zh2j,e,zh2j_e,zh2j_8_eje.wav,zh2j_8_eje.wav,,TRUE,FALSE,,,,,,,,,,,,,,f,0.100700001,space,0.4016,,,,,,,,0,30,30,61,1,,
5a4e26a8f4c9dc0001b7a1b5,2023-06-16_10h00.48.831,phx_ver10,2022.2.5,Win32,20.39068553,,,,,,,,,,,,87,testing_3,j2x,e,j2x_e,j2x_1_eje.wav,j2x_8_exe.wav,,FALSE,FALSE,,,,,,,,,,,,,,j,0.1826,space,0.420200001,,,,,,,,0,31,31,86,1,,
5a4e26a8f4c9dc0001b7a1b5,2023-06-16_10h00.48.831,phx_ver10,2022.2.5,Win32,20.39068553,,,,,,,,,,,,57,testing_3,zh2j,au,zh2j_au,zh2j_1_auzhau.wav,zh2j_1_auzhau.wav,,TRUE,FALSE,,,,,,,,,,,,,,f,0.2405,space,0.5675,,,,,,,,0,32,32,56,1,,
5a4e26a8f4c9dc0001b7a1b5,2023-06-16_10h00.48.831,phx_ver10,2022.2.5,Win32,20.39068553,,,,,,,,,,,,99,testing_3,sh2x,a,sh2x_a,sh2x_1_asha.wav,sh2x_8_axa.wav,,FALSE,FALSE,,,,,,,,,,,,,,f,0.5926,space,0.7935,,,,,,,,0,33,33,98,1,,
5a4e26a8f4c9dc0001b7a1b5,2023-06-16_10h00.48.831,phx_ver10,2022.2.5,Win32,20.39068553,,,,,,,,,,,,117,testing_3,sh2x,i,sh2x_i,sh2x_1_ishi.wav,sh2x_1_ishi.wav,,TRUE,FALSE,,,,,,,,,,,,,,f,2.705900002,space,2.943200001,,,,,,,,0,34,34,116,1,,
5a4e26a8f4c9dc0001b7a1b5,2023-06-16_10h00.48.831,phx_ver10,2022.2.5,Win32,20.39068553,,,,,,,,,,,,43,testing_3,zh2sh,ei,zh2sh_ei,zh2sh_1_eizhei.wav,zh2sh_8_eishei.wav,,FALSE,FALSE,,,,,,,,,,,,,,j,0.2799,space,0.5885,,,,,,,,0,35,35,42,1,,
5a4e26a8f4c9dc0001b7a1b5,2023-06-16_10h00.48.831,phx_ver10,2022.2.5,Win32,20.39068553,,,,,,,,,,,,48,testing_3,zh2sh,i,zh2sh_i,zh2sh_8_ishi.wav,zh2sh_1_izhi.wav,,FALSE,FALSE,,,,,,,,,,,,,,f,8.429299999,space,8.627799999,,,,,,,,0,36,36,47,1,,
5a4e26a8f4c9dc0001b7a1b5,2023-06-16_10h00.48.831,phx_ver10,2022.2.5,Win32,20.39068553,,,,,,,,,,,,77,testing_3,j2x,ai,j2x_ai,j2x_1_aijai.wav,j2x_1_aijai.wav,,TRUE,FALSE,,,,,,,,,,,,,,f,0.101200001,space,0.4615,,,,,,,,0,37,37,76,1,,
5a4e26a8f4c9dc0001b7a1b5,2023-06-16_10h00.48.831,phx_ver10,2022.2.5,Win32,20.39068553,,,,,,,,,,,,98,testing_3,sh2x,a,sh2x_a,sh2x_8_axa.wav,sh2x_8_axa.wav,,TRUE,FALSE,,,,,,,,,,,,,,f,0.869699999,space,1.0709,,,,,,,,0,38,38,97,1,,
5a4e26a8f4c9dc0001b7a1b5,2023-06-16_10h00.48.831,phx_ver10,2022.2.5,Win32,20.39068553,,,,,,,,,,,,114,testing_3,sh2x,ei,sh2x_ei,sh2x_8_eixei.wav,sh2x_8_eixei.wav,,TRUE,FALSE,,,,,,,,,,,,,,f,0.204700001,space,0.5395,,,,,,,,0,39,39,113,1,,
5a4e26a8f4c9dc0001b7a1b5,2023-06-16_10h00.48.831,phx_ver10,2022.2.5,Win32,20.39068553,,,,,,,,,,,,140,testing_3,sh2j,ei,sh2j_ei,sh2j_8_eijei.wav,sh2j_1_eishei.wav,,FALSE,FALSE,,,,,,,,,,,,,,j,0.6041,space,0.874300001,,,,,,,,0,40,40,139,1,,
5a4e26a8f4c9dc0001b7a1b5,2023-06-16_10h00.48.831,phx_ver10,2022.2.5,Win32,20.39068553,,,,,,,,,,,,115,testing_3,sh2x,ei,sh2x_ei,sh2x_1_eishei.wav,sh2x_8_eixei.wav,,FALSE,FALSE,,,,,,,,,,,,,,f,22.1605,space,22.3995,,,,,,,,0,41,41,114,1,,
5a4e26a8f4c9dc0001b7a1b5,2023-06-16_10h00.48.831,phx_ver10,2022.2.5,Win32,20.39068553,,,,,,,,,,,,23,testing_2,zh2x,ei,zh2x_ei,zh2x_1_eizhei.wav,zh2x_8_eixei.wav,,FALSE,FALSE,,,,,,,,,,,,,,f,399.0478,space,399.5983,,,,,,,,0,42,42,22,1,,
5a4e26a8f4c9dc0001b7a1b5,2023-06-16_10h00.48.831,phx_ver10,2022.2.5,Win32,20.39068553,,,,,,,,,,,,55,testing_3,zh2j,ai,zh2j_ai,zh2j_1_aizhai.wav,zh2j_8_aijai.wav,,FALSE,FALSE,,,,,,,,,,,,,,f,0.694400002,space,1.185300001,,,,,,,,0,43,43,54,1,,
5a4e26a8f4c9dc0001b7a1b5,2023-06-16_10h00.48.831,phx_ver10,2022.2.5,Win32,20.39068553,,,,,,,,,,,,103,testing_3,sh2x,ai,sh2x_ai,sh2x_1_aishai.wav,sh2x_8_aixai.wav,,FALSE,FALSE,,,,,,,,,,,,,,f,0.664,space,0.909299999,,,,,,,,0,44,44,102,1,,
5a4e26a8f4c9dc0001b7a1b5,2023-06-16_10h00.48.831,phx_ver10,2022.2.5,Win32,20.39068553,,,,,,,,,,,,86,testing_3,j2x,e,j2x_e,j2x_8_exe.wav,j2x_8_exe.wav,,TRUE,FALSE,,,,,,,,,,,,,,f,1.1645,space,1.4359,,,,,,,,0,45,45,85,1,,
5a4e26a8f4c9dc0001b7a1b5,2023-06-16_10h00.48.831,phx_ver10,2022.2.5,Win32,20.39068553,,,,,,,,,,,,44,testing_3,zh2sh,ei,zh2sh_ei,zh2sh_8_eishei.wav,zh2sh_1_eizhei.wav,,FALSE,FALSE,,,,,,,,,,,,,,f,28.6427,space,28.8293,,,,,,,,0,46,46,43,1,,
5a4e26a8f4c9dc0001b7a1b5,2023-06-16_10h00.48.831,phx_ver10,2022.2.5,Win32,20.39068553,,,,,,,,,,,,45,testing_3,zh2sh,i,zh2sh_i,zh2sh_1_izhi.wav,zh2sh_1_izhi.wav,,TRUE,FALSE,,,,,,,,,,,,,,f,4.6781,space,4.914,,,,,,,,0,47,47,44,1,,
5a4e26a8f4c9dc0001b7a1b5,2023-06-16_10h00.48.831,phx_ver10,2022.2.5,Win32,20.39068553,,,,,,,,,,,,89,testing_3,j2x,ei,j2x_ei,j2x_1_eijei.wav,j2x_1_eijei.wav,,TRUE,FALSE,,,,,,,,,,,,,,f,0.144,space,0.522400002,,,,,,,,0,48,48,88,1,,
5a4e26a8f4c9dc0001b7a1b5,2023-06-16_10h00.48.831,phx_ver10,2022.2.5,Win32,20.39068553,,,,,,,,,,,,1,testing_1,zh2x,a,zh2x_a,zh2x_1_azha.wav,zh2x_1_azha_copy.wav,,TRUE,TRUE,,,,,,,,,,,,,,f,152.856,space,153.4496,,,,,,,,0,49,49,0,1,,
5a4e26a8f4c9dc0001b7a1b5,2023-06-16_10h00.48.831,phx_ver10,2022.2.5,Win32,20.39068553,,,,,,,,,,,,53,testing_3,zh2j,ai,zh2j_ai,zh2j_1_aizhai.wav,zh2j_1_aizhai.wav,,TRUE,FALSE,,,,,,,,,,,,,,f,307.1006,space,307.5393,,,,,,,,0,50,50,52,1,,
5a4e26a8f4c9dc0001b7a1b5,2023-06-16_10h00.48.831,phx_ver10,2022.2.5,Win32,20.39068553,,,,,,,,,,,,68,testing_3,zh2j,ei,zh2j_ei,zh2j_8_eijei.wav,zh2j_1_eizhei.wav,,FALSE,FALSE,,,,,,,,,,,,,,j,2.580900002,space,3.025800001,,,,,,,,0,51,51,67,1,,
5a4e26a8f4c9dc0001b7a1b5,2023-06-16_10h00.48.831,phx_ver10,2022.2.5,Win32,20.39068553,,,,,,,,,,,,88,testing_3,j2x,e,j2x_e,j2x_8_exe.wav,j2x_1_eje.wav,,FALSE,FALSE,,,,,,,,,,,,,,j,0.8094,space,6.611599998,,,,,,,,0,52,52,87,1,,
5a4e26a8f4c9dc0001b7a1b5,2023-06-16_10h00.48.831,phx_ver10,2022.2.5,Win32,20.39068553,,,,,,,,,,,,81,testing_3,j2x,au,j2x_au,j2x_1_aujau.wav,j2x_1_aujau.wav,,TRUE,FALSE,,,,,,,,,,,,,,f,0.387799999,space,0.7571,,,,,,,,0,53,53,80,1,,
5a4e26a8f4c9dc0001b7a1b5,2023-06-16_10h00.48.831,phx_ver10,2022.2.5,Win32,20.39068553,,,,,,,,,,,,129,testing_3,sh2j,au,sh2j_au,sh2j_1_aushau.wav,sh2j_1_aushau.wav,,TRUE,FALSE,,,,,,,,,,,,,,f,1.5485,space,1.8791,,,,,,,,0,54,54,128,1,,
5a4e26a8f4c9dc0001b7a1b5,2023-06-16_10h00.48.831,phx_ver10,2022.2.5,Win32,20.39068553,,,,,,,,,,,,102,testing_3,sh2x,ai,sh2x_ai,sh2x_8_aixai.wav,sh2x_8_aixai.wav,,TRUE,FALSE,,,,,,,,,,,,,,f,0.7821,space,1.0704,,,,,,,,0,55,55,101,1,,
5a4e26a8f4c9dc0001b7a1b5,2023-06-16_10h00.48.831,phx_ver10,2022.2.5,Win32,20.39068553,,,,,,,,,,,,13,testing_2,zh2x,ai,zh2x_ai,zh2x_1_aizhai.wav,zh2x_1_aizhai.wav,,TRUE,FALSE,,,,,,,,,,,,,,f,2.973200001,space,3.138,,,,,,,,0,56,56,12,1,,
5a4e26a8f4c9dc0001b7a1b5,2023-06-16_10h00.48.831,phx_ver10,2022.2.5,Win32,20.39068553,,,,,,,,,,,,83,testing_3,j2x,au,j2x_au,j2x_1_aujau.wav,j2x_8_auxau.wav,,FALSE,FALSE,,,,,,,,,,,,,,f,5.4714,space,5.661300001,,,,,,,,0,57,57,82,1,,
5a4e26a8f4c9dc0001b7a1b5,2023-06-16_10h00.48.831,phx_ver10,2022.2.5,Win32,20.39068553,,,,,,,,,,,,118,testing_3,sh2x,i,sh2x_i,sh2x_8_ixi.wav,sh2x_8_ixi.wav,,TRUE,FALSE,,,,,,,,,,,,,,f,0.463300001,space,0.8441,,,,,,,,0,58,58,117,1,,
5a4e26a8f4c9dc0001b7a1b5,2023-06-16_10h00.48.831,phx_ver10,2022.2.5,Win32,20.39068553,,,,,,,,,,,,126,testing_3,sh2j,ai,sh2j_ai,sh2j_8_aijai.wav,sh2j_8_aijai.wav,,TRUE,FALSE,,,,,,,,,,,,,,f,6.769699999,space,6.975900002,,,,,,,,0,59,59,125,1,,
5a4e26a8f4c9dc0001b7a1b5,2023-06-16_10h00.48.831,phx_ver10,2022.2.5,Win32,20.39068553,,,,,,,,,,,,113,testing_3,sh2x,ei,sh2x_ei,sh2x_1_eishei.wav,sh2x_1_eishei.wav,,TRUE,FALSE,,,,,,,,,,,,,,f,11.4244,space,11.6082,,,,,,,,0,60,60,112,1,,
5a4e26a8f4c9dc0001b7a1b5,2023-06-16_10h00.48.831,phx_ver10,2022.2.5,Win32,20.39068553,,,,,,,,,,,,6,testing_1,zh2x,e,zh2x_e,zh2x_8_exe.wav,zh2x_8_exe_copy.wav,,TRUE,TRUE,,,,,,,,,,,,,,f,2.025799999,space,2.2454,,,,,,,,0,61,61,5,1,,
5a4e26a8f4c9dc0001b7a1b5,2023-06-16_10h00.48.831,phx_ver10,2022.2.5,Win32,20.39068553,,,,,,,,,,,,34,testing_3,zh2sh,au,zh2sh_au,zh2sh_8_aushau.wav,zh2sh_8_aushau.wav,,TRUE,FALSE,,,,,,,,,,,,,,f,24.8147,space,25.0391,,,,,,,,0,62,62,33,1,,
5a4e26a8f4c9dc0001b7a1b5,2023-06-16_10h00.48.831,phx_ver10,2022.2.5,Win32,20.39068553,,,,,,,,,,,,136,testing_3,sh2j,e,sh2j_e,sh2j_8_eje.wav,sh2j_1_eshe.wav,,FALSE,FALSE,,,,,,,,,,,,,,f,20.6795,space,20.8691,,,,,,,,0,63,63,135,1,,
5a4e26a8f4c9dc0001b7a1b5,2023-06-16_10h00.48.831,phx_ver10,2022.2.5,Win32,20.39068553,,,,,,,,,,,,61,testing_3,zh2j,e,zh2j_e,zh2j_1_ezhe.wav,zh2j_1_ezhe.wav,,TRUE,FALSE,,,,,,,,,,,,,,f,9.159099998,space,9.359700001,,,,,,,,0,64,64,60,1,,
5a4e26a8f4c9dc0001b7a1b5,2023-06-16_10h00.48.831,phx_ver10,2022.2.5,Win32,20.39068553,,,,,,,,,,,,108,testing_3,sh2x,au,sh2x_au,sh2x_8_auxau.wav,sh2x_1_aushau.wav,,FALSE,FALSE,,,,,,,,,,,,,,f,419.3895,space,419.5611,,,,,,,,0,65,65,107,1,,
5a4e26a8f4c9dc0001b7a1b5,2023-06-16_10h00.48.831,phx_ver10,2022.2.5,Win32,20.39068553,,,,,,,,,,,,35,testing_3,zh2sh,au,zh2sh_au,zh2sh_1_auzhau.wav,zh2sh_8_aushau.wav,,FALSE,FALSE,,,,,,,,,,,,,,f,0.580099998,space,0.898599998,,,,,,,,0,66,66,34,1,,
5a4e26a8f4c9dc0001b7a1b5,2023-06-16_10h00.48.831,phx_ver10,2022.2.5,Win32,20.39068553,,,,,,,,,,,,21,testing_2,zh2x,ei,zh2x_ei,zh2x_1_eizhei.wav,zh2x_1_eizhei.wav,,TRUE,FALSE,,,,,,,,,,,,,,f,0.0255,space,0.3814,,,,,,,,0,67,67,20,1,,
5a4e26a8f4c9dc0001b7a1b5,2023-06-16_10h00.48.831,phx_ver10,2022.2.5,Win32,20.39068553,,,,,,,,,,,,11,testing_1,zh2x,i,zh2x_i,zh2x_1_izhi.wav,zh2x_8_ixi.wav,,FALSE,TRUE,,,,,,,,,,,,,,j,0.5614,space,4.8284,,,,,,,,0,68,68,10,1,,
5a4e26a8f4c9dc0001b7a1b5,2023-06-16_10h00.48.831,phx_ver10,2022.2.5,Win32,20.39068553,,,,,,,,,,,,25,testing_3,zh2sh,a,zh2sh_a,zh2sh_1_azha.wav,zh2sh_1_azha.wav,,TRUE,FALSE,,,,,,,,,,,,,,f,0.262800001,space,0.658700001,,,,,,,,0,69,69,24,1,,
5a4e26a8f4c9dc0001b7a1b5,2023-06-16_10h00.48.831,phx_ver10,2022.2.5,Win32,20.39068553,,,,,,,,,,,,37,testing_3,zh2sh,e,zh2sh_e,zh2sh_1_ezhe.wav,zh2sh_1_ezhe.wav,,TRUE,FALSE,,,,,,,,,,,,,,f,1.401900002,space,1.721799999,,,,,,,,0,70,70,36,1,,
5a4e26a8f4c9dc0001b7a1b5,2023-06-16_10h00.48.831,phx_ver10,2022.2.5,Win32,20.39068553,,,,,,,,,,,,38,testing_3,zh2sh,e,zh2sh_e,zh2sh_8_eshe.wav,zh2sh_8_eshe.wav,,TRUE,FALSE,,,,,,,,,,,,,,f,0.9086,space,1.306200001,,,,,,,,0,71,71,37,1,,
5a4e26a8f4c9dc0001b7a1b5,2023-06-16_10h00.48.831,phx_ver10,2022.2.5,Win32,20.39068553,,,,,,,,,,,,141,testing_3,sh2j,i,sh2j_i,sh2j_1_ishi.wav,sh2j_1_ishi.wav,,TRUE,FALSE,,,,,,,,,,,,,,f,5.9651,space,6.4871,,,,,,,,0,72,72,140,1,,
5a4e26a8f4c9dc0001b7a1b5,2023-06-16_10h00.48.831,phx_ver10,2022.2.5,Win32,20.39068553,,,,,,,,,,,,128,testing_3,sh2j,ai,sh2j_ai,sh2j_8_aijai.wav,sh2j_1_aishai.wav,,FALSE,FALSE,,,,,,,,,,,,,,f,0.437800001,space,1.3589,,,,,,,,0,73,73,127,1,,
5a4e26a8f4c9dc0001b7a1b5,2023-06-16_10h00.48.831,phx_ver10,2022.2.5,Win32,20.39068553,,,,,,,,,,,,70,testing_3,zh2j,i,zh2j_i,zh2j_8_iji.wav,zh2j_8_iji.wav,,TRUE,FALSE,,,,,,,,,,,,,,f,0.834400002,space,1.2186,,,,,,,,0,74,74,69,1,,
5a4e26a8f4c9dc0001b7a1b5,2023-06-16_10h00.48.831,phx_ver10,2022.2.5,Win32,20.39068553,,,,,,,,,,,,130,testing_3,sh2j,au,sh2j_au,sh2j_8_aujau.wav,sh2j_8_aujau.wav,,TRUE,FALSE,,,,,,,,,,,,,,f,0.862099998,space,1.141400002,,,,,,,,0,75,75,129,1,,
5a4e26a8f4c9dc0001b7a1b5,2023-06-16_10h00.48.831,phx_ver10,2022.2.5,Win32,20.39068553,,,,,,,,,,,,72,testing_3,zh2j,i,zh2j_i,zh2j_8_iji.wav,zh2j_1_izhi.wav,,FALSE,FALSE,,,,,,,,,,,,,,f,1.8424,space,2.3281,,,,,,,,0,76,76,71,1,,
5a4e26a8f4c9dc0001b7a1b5,2023-06-16_10h00.48.831,phx_ver10,2022.2.5,Win32,20.39068553,,,,,,,,,,,,59,testing_3,zh2j,au,zh2j_au,zh2j_1_auzhau.wav,zh2j_8_aujau.wav,,FALSE,FALSE,,,,,,,,,,,,,,f,1.286300001,space,1.6874,,,,,,,,0,77,77,58,1,,
5a4e26a8f4c9dc0001b7a1b5,2023-06-16_10h00.48.831,phx_ver10,2022.2.5,Win32,20.39068553,,,,,,,,,,,,106,testing_3,sh2x,au,sh2x_au,sh2x_8_auxau.wav,sh2x_8_auxau.wav,,TRUE,FALSE,,,,,,,,,,,,,,f,2.124,space,2.3064,,,,,,,,0,78,78,105,1,,
5a4e26a8f4c9dc0001b7a1b5,2023-06-16_10h00.48.831,phx_ver10,2022.2.5,Win32,20.39068553,,,,,,,,,,,,47,testing_3,zh2sh,i,zh2sh_i,zh2sh_1_izhi.wav,zh2sh_8_ishi.wav,,FALSE,FALSE,,,,,,,,,,,,,,f,2.1709,space,2.4371,,,,,,,,0,79,79,46,1,,
5a4e26a8f4c9dc0001b7a1b5,2023-06-16_10h00.48.831,phx_ver10,2022.2.5,Win32,20.39068553,,,,,,,,,,,,105,testing_3,sh2x,au,sh2x_au,sh2x_1_aushau.wav,sh2x_1_aushau.wav,,TRUE,FALSE,,,,,,,,,,,,,,f,1.9386,space,2.1619,,,,,,,,0,80,80,104,1,,
5a4e26a8f4c9dc0001b7a1b5,2023-06-16_10h00.48.831,phx_ver10,2022.2.5,Win32,20.39068553,,,,,,,,,,,,73,testing_3,j2x,a,j2x_a,j2x_1_aja.wav,j2x_1_aja.wav,,TRUE,FALSE,,,,,,,,,,,,,,f,0.0931,space,0.4621,,,,,,,,0,81,81,72,1,,
5a4e26a8f4c9dc0001b7a1b5,2023-06-16_10h00.48.831,phx_ver10,2022.2.5,Win32,20.39068553,,,,,,,,,,,,26,testing_3,zh2sh,a,zh2sh_a,zh2sh_8_asha.wav,zh2sh_8_asha.wav,,TRUE,FALSE,,,,,,,,,,,,,,f,0.325799999,space,0.6011,,,,,,,,0,82,82,25,1,,
5a4e26a8f4c9dc0001b7a1b5,2023-06-16_10h00.48.831,phx_ver10,2022.2.5,Win32,20.39068553,,,,,,,,,,,,9,testing_1,zh2x,i,zh2x_i,zh2x_1_izhi.wav,zh2x_1_izhi_copy.wav,,TRUE,TRUE,,,,,,,,,,,,,,f,0.1474,space,0.545299999,,,,,,,,0,83,83,8,1,,
5a4e26a8f4c9dc0001b7a1b5,2023-06-16_10h00.48.831,phx_ver10,2022.2.5,Win32,20.39068553,,,,,,,,,,,,84,testing_3,j2x,au,j2x_au,j2x_8_auxau.wav,j2x_1_aujau.wav,,FALSE,FALSE,,,,,,,,,,,,,,f,0.0401,space,0.335200001,,,,,,,,0,84,84,83,1,,
5a4e26a8f4c9dc0001b7a1b5,2023-06-16_10h00.48.831,phx_ver10,2022.2.5,Win32,20.39068553,,,,,,,,,,,,15,testing_2,zh2x,ai,zh2x_ai,zh2x_1_aizhai.wav,zh2x_8_aixai.wav,,FALSE,FALSE,,,,,,,,,,,,,,j,0.543799999,space,0.7784,,,,,,,,0,85,85,14,1,,
5a4e26a8f4c9dc0001b7a1b5,2023-06-16_10h00.48.831,phx_ver10,2022.2.5,Win32,20.39068553,,,,,,,,,,,,137,testing_3,sh2j,ei,sh2j_ei,sh2j_1_eishei.wav,sh2j_1_eishei.wav,,TRUE,FALSE,,,,,,,,,,,,,,f,0.1889,space,0.4509,,,,,,,,0,86,86,136,1,,
5a4e26a8f4c9dc0001b7a1b5,2023-06-16_10h00.48.831,phx_ver10,2022.2.5,Win32,20.39068553,,,,,,,,,,,,65,testing_3,zh2j,ei,zh2j_ei,zh2j_1_eizhei.wav,zh2j_1_eizhei.wav,,TRUE,FALSE,,,,,,,,,,,,,,f,0.020799999,space,0.326799999,,,,,,,,0,87,87,64,1,,
5a4e26a8f4c9dc0001b7a1b5,2023-06-16_10h00.48.831,phx_ver10,2022.2.5,Win32,20.39068553,,,,,,,,,,,,93,testing_3,j2x,i,j2x_i,j2x_1_iji.wav,j2x_1_iji.wav,,TRUE,FALSE,,,,,,,,,,,,,,f,0.0969,space,0.427,,,,,,,,0,88,88,92,1,,
5a4e26a8f4c9dc0001b7a1b5,2023-06-16_10h00.48.831,phx_ver10,2022.2.5,Win32,20.39068553,,,,,,,,,,,,54,testing_3,zh2j,ai,zh2j_ai,zh2j_8_aijai.wav,zh2j_8_aijai.wav,,TRUE,FALSE,,,,,,,,,,,,,,f,0.3006,space,0.670299999,,,,,,,,0,89,89,53,1,,
5a4e26a8f4c9dc0001b7a1b5,2023-06-16_10h00.48.831,phx_ver10,2022.2.5,Win32,20.39068553,,,,,,,,,,,,69,testing_3,zh2j,i,zh2j_i,zh2j_1_izhi.wav,zh2j_1_izhi.wav,,TRUE,FALSE,,,,,,,,,,,,,,f,26.7253,space,27.1509,,,,,,,,0,90,90,68,1,,
5a4e26a8f4c9dc0001b7a1b5,2023-06-16_10h00.48.831,phx_ver10,2022.2.5,Win32,20.39068553,,,,,,,,,,,,97,testing_3,sh2x,a,sh2x_a,sh2x_1_asha.wav,sh2x_1_asha.wav,,TRUE,FALSE,,,,,,,,,,,,,,f,283.8762,space,284.0682,,,,,,,,0,91,91,96,1,,
5a4e26a8f4c9dc0001b7a1b5,2023-06-16_10h00.48.831,phx_ver10,2022.2.5,Win32,20.39068553,,,,,,,,,,,,58,testing_3,zh2j,au,zh2j_au,zh2j_8_aujau.wav,zh2j_8_aujau.wav,,TRUE,FALSE,,,,,,,,,,,,,,j,8.210799999,space,8.438699999,,,,,,,,0,92,92,57,1,,
5a4e26a8f4c9dc0001b7a1b5,2023-06-16_10h00.48.831,phx_ver10,2022.2.5,Win32,20.39068553,,,,,,,,,,,,2,testing_1,zh2x,a,zh2x_a,zh2x_8_axa.wav,zh2x_8_axa_copy.wav,,TRUE,TRUE,,,,,,,,,,,,,,f,4.878799999,space,5.0984,,,,,,,,0,93,93,1,1,,
5a4e26a8f4c9dc0001b7a1b5,2023-06-16_10h00.48.831,phx_ver10,2022.2.5,Win32,20.39068553,,,,,,,,,,,,20,testing_2,zh2x,au,zh2x_au,zh2x_8_auxau.wav,zh2x_1_auzhau.wav,,FALSE,FALSE,,,,,,,,,,,,,,f,4.6439,space,4.8835,,,,,,,,0,94,94,19,1,,
5a4e26a8f4c9dc0001b7a1b5,2023-06-16_10h00.48.831,phx_ver10,2022.2.5,Win32,20.39068553,,,,,,,,,,,,92,testing_3,j2x,ei,j2x_ei,j2x_8_eixei.wav,j2x_1_eijei.wav,,FALSE,FALSE,,,,,,,,,,,,,,j,1.816900002,space,2.0326,,,,,,,,0,95,95,91,1,,
5a4e26a8f4c9dc0001b7a1b5,2023-06-16_10h00.48.831,phx_ver10,2022.2.5,Win32,20.39068553,,,,,,,,,,,,3,testing_1,zh2x,a,zh2x_a,zh2x_1_azha.wav,zh2x_8_axa.wav,,FALSE,TRUE,,,,,,,,,,,,,,j,5.0784,space,5.280200001,,,,,,,,0,96,96,2,1,,
5a4e26a8f4c9dc0001b7a1b5,2023-06-16_10h00.48.831,phx_ver10,2022.2.5,Win32,20.39068553,,,,,,,,,,,,82,testing_3,j2x,au,j2x_au,j2x_8_auxau.wav,j2x_8_auxau.wav,,TRUE,FALSE,,,,,,,,,,,,,,f,28.0931,space,28.2968,,,,,,,,0,97,97,81,1,,
5a4e26a8f4c9dc0001b7a1b5,2023-06-16_10h00.48.831,phx_ver10,2022.2.5,Win32,20.39068553,,,,,,,,,,,,19,testing_2,zh2x,au,zh2x_au,zh2x_1_auzhau.wav,zh2x_8_auxau.wav,,FALSE,FALSE,,,,,,,,,,,,,,f,20.8531,space,21.0682,,,,,,,,0,98,98,18,1,,
5a4e26a8f4c9dc0001b7a1b5,2023-06-16_10h00.48.831,phx_ver10,2022.2.5,Win32,20.39068553,,,,,,,,,,,,119,testing_3,sh2x,i,sh2x_i,sh2x_1_ishi.wav,sh2x_8_ixi.wav,,FALSE,FALSE,,,,,,,,,,,,,,f,13.8452,space,14.0722,,,,,,,,0,99,99,118,1,,
5a4e26a8f4c9dc0001b7a1b5,2023-06-16_10h00.48.831,phx_ver10,2022.2.5,Win32,20.39068553,,,,,,,,,,,,71,testing_3,zh2j,i,zh2j_i,zh2j_1_izhi.wav,zh2j_8_iji.wav,,FALSE,FALSE,,,,,,,,,,,,,,f,0.3156,space,0.7925,,,,,,,,0,100,100,70,1,,
5a4e26a8f4c9dc0001b7a1b5,2023-06-16_10h00.48.831,phx_ver10,2022.2.5,Win32,20.39068553,,,,,,,,,,,,76,testing_3,j2x,a,j2x_a,j2x_8_axa.wav,j2x_1_aja.wav,,FALSE,FALSE,,,,,,,,,,,,,,f,134.4231,space,135.8473,,,,,,,,0,101,101,75,1,,
5a4e26a8f4c9dc0001b7a1b5,2023-06-16_10h00.48.831,phx_ver10,2022.2.5,Win32,20.39068553,,,,,,,,,,,,122,testing_3,sh2j,a,sh2j_a,sh2j_8_aja.wav,sh2j_8_aja.wav,,TRUE,FALSE,,,,,,,,,,,,,,f,0.415900002,space,0.790799999,,,,,,,,0,102,102,121,1,,
5a4e26a8f4c9dc0001b7a1b5,2023-06-16_10h00.48.831,phx_ver10,2022.2.5,Win32,20.39068553,,,,,,,,,,,,85,testing_3,j2x,e,j2x_e,j2x_1_eje.wav,j2x_1_eje.wav,,TRUE,FALSE,,,,,,,,,,,,,,f,29.58,space,29.7953,,,,,,,,0,103,103,84,1,,
5a4e26a8f4c9dc0001b7a1b5,2023-06-16_10h00.48.831,phx_ver10,2022.2.5,Win32,20.39068553,,,,,,,,,,,,110,testing_3,sh2x,e,sh2x_e,sh2x_8_exe.wav,sh2x_8_exe.wav,,TRUE,FALSE,,,,,,,,,,,,,,f,0.356799999,space,0.627200001,,,,,,,,0,104,104,109,1,,
5a4e26a8f4c9dc0001b7a1b5,2023-06-16_10h00.48.831,phx_ver10,2022.2.5,Win32,20.39068553,,,,,,,,,,,,123,testing_3,sh2j,a,sh2j_a,sh2j_1_asha.wav,sh2j_8_aja.wav,,FALSE,FALSE,,,,,,,,,,,,,,f,0.1775,space,0.5744,,,,,,,,0,105,105,122,1,,
5a4e26a8f4c9dc0001b7a1b5,2023-06-16_10h00.48.831,phx_ver10,2022.2.5,Win32,20.39068553,,,,,,,,,,,,90,testing_3,j2x,ei,j2x_ei,j2x_8_eixei.wav,j2x_8_eixei.wav,,TRUE,FALSE,,,,,,,,,,,,,,f,0.2201,space,0.593300001,,,,,,,,0,106,106,89,1,,
5a4e26a8f4c9dc0001b7a1b5,2023-06-16_10h00.48.831,phx_ver10,2022.2.5,Win32,20.39068553,,,,,,,,,,,,51,testing_3,zh2j,a,zh2j_a,zh2j_1_azha.wav,zh2j_8_aja.wav,,FALSE,FALSE,,,,,,,,,,,,,,f,0.232800001,space,0.9825,,,,,,,,0,107,107,50,1,,
5a4e26a8f4c9dc0001b7a1b5,2023-06-16_10h00.48.831,phx_ver10,2022.2.5,Win32,20.39068553,,,,,,,,,,,,121,testing_3,sh2j,a,sh2j_a,sh2j_1_asha.wav,sh2j_1_asha.wav,,TRUE,FALSE,,,,,,,,,,,,,,f,0.541,space,0.845699999,,,,,,,,0,108,108,120,1,,
5a4e26a8f4c9dc0001b7a1b5,2023-06-16_10h00.48.831,phx_ver10,2022.2.5,Win32,20.39068553,,,,,,,,,,,,42,testing_3,zh2sh,ei,zh2sh_ei,zh2sh_8_eishei.wav,zh2sh_8_eishei.wav,,TRUE,FALSE,,,,,,,,,,,,,,f,0.02,space,0.4885,,,,,,,,0,109,109,41,1,,
5a4e26a8f4c9dc0001b7a1b5,2023-06-16_10h00.48.831,phx_ver10,2022.2.5,Win32,20.39068553,,,,,,,,,,,,134,testing_3,sh2j,e,sh2j_e,sh2j_8_eje.wav,sh2j_8_eje.wav,,TRUE,FALSE,,,,,,,,,,,,,,f,0.331799999,space,0.608200001,,,,,,,,0,110,110,133,1,,
5a4e26a8f4c9dc0001b7a1b5,2023-06-16_10h00.48.831,phx_ver10,2022.2.5,Win32,20.39068553,,,,,,,,,,,,60,testing_3,zh2j,au,zh2j_au,zh2j_8_aujau.wav,zh2j_1_auzhau.wav,,FALSE,FALSE,,,,,,,,,,,,,,f,0.5696,space,0.9165,,,,,,,,0,111,111,59,1,,
5a4e26a8f4c9dc0001b7a1b5,2023-06-16_10h00.48.831,phx_ver10,2022.2.5,Win32,20.39068553,,,,,,,,,,,,10,testing_1,zh2x,i,zh2x_i,zh2x_8_ixi.wav,zh2x_8_ixi_copy.wav,,TRUE,TRUE,,,,,,,,,,,,,,f,0.5496,space,1.0699,,,,,,,,0,112,112,9,1,,
5a4e26a8f4c9dc0001b7a1b5,2023-06-16_10h00.48.831,phx_ver10,2022.2.5,Win32,20.39068553,,,,,,,,,,,,40,testing_3,zh2sh,e,zh2sh_e,zh2sh_8_eshe.wav,zh2sh_1_ezhe.wav,,FALSE,FALSE,,,,,,,,,,,,,,f,7.5014,space,7.833799999,,,,,,,,0,113,113,39,1,,
5a4e26a8f4c9dc0001b7a1b5,2023-06-16_10h00.48.831,phx_ver10,2022.2.5,Win32,20.39068553,,,,,,,,,,,,50,testing_3,zh2j,a,zh2j_a,zh2j_8_aja.wav,zh2j_8_aja.wav,,TRUE,FALSE,,,,,,,,,,,,,,f,0.320299999,space,0.6995,,,,,,,,0,114,114,49,1,,
5a4e26a8f4c9dc0001b7a1b5,2023-06-16_10h00.48.831,phx_ver10,2022.2.5,Win32,20.39068553,,,,,,,,,,,,79,testing_3,j2x,ai,j2x_ai,j2x_1_aijai.wav,j2x_8_aixai.wav,,FALSE,FALSE,,,,,,,,,,,,,,f,7.539,space,7.8245,,,,,,,,0,115,115,78,1,,
5a4e26a8f4c9dc0001b7a1b5,2023-06-16_10h00.48.831,phx_ver10,2022.2.5,Win32,20.39068553,,,,,,,,,,,,32,testing_3,zh2sh,ai,zh2sh_ai,zh2sh_8_aishai.wav,zh2sh_1_aizhai.wav,,FALSE,FALSE,,,,,,,,,,,,,,j,0.9589,space,1.475,,,,,,,,0,116,116,31,1,,
5a4e26a8f4c9dc0001b7a1b5,2023-06-16_10h00.48.831,phx_ver10,2022.2.5,Win32,20.39068553,,,,,,,,,,,,112,testing_3,sh2x,e,sh2x_e,sh2x_8_exe.wav,sh2x_1_eshe.wav,,FALSE,FALSE,,,,,,,,,,,,,,j,0.871900002,space,1.2745,,,,,,,,0,117,117,111,1,,
5a4e26a8f4c9dc0001b7a1b5,2023-06-16_10h00.48.831,phx_ver10,2022.2.5,Win32,20.39068553,,,,,,,,,,,,138,testing_3,sh2j,ei,sh2j_ei,sh2j_8_eijei.wav,sh2j_8_eijei.wav,,TRUE,FALSE,,,,,,,,,,,,,,j,19.2352,space,20.0558,,,,,,,,0,118,118,137,1,,
5a4e26a8f4c9dc0001b7a1b5,2023-06-16_10h00.48.831,phx_ver10,2022.2.5,Win32,20.39068553,,,,,,,,,,,,18,testing_2,zh2x,au,zh2x_au,zh2x_8_auxau.wav,zh2x_8_auxau.wav,,TRUE,FALSE,,,,,,,,,,,,,,f,0.2705,space,0.703599998,,,,,,,,0,119,119,17,1,,
5a4e26a8f4c9dc0001b7a1b5,2023-06-16_10h00.48.831,phx_ver10,2022.2.5,Win32,20.39068553,,,,,,,,,,,,41,testing_3,zh2sh,ei,zh2sh_ei,zh2sh_1_eizhei.wav,zh2sh_1_eizhei.wav,,TRUE,FALSE,,,,,,,,,,,,,,f,68.0704,space,68.4582,,,,,,,,0,120,120,40,1,,
5a4e26a8f4c9dc0001b7a1b5,2023-06-16_10h00.48.831,phx_ver10,2022.2.5,Win32,20.39068553,,,,,,,,,,,,80,testing_3,j2x,ai,j2x_ai,j2x_8_aixai.wav,j2x_1_aijai.wav,,FALSE,FALSE,,,,,,,,,,,,,,f,2.738199999,space,3.465299999,,,,,,,,0,121,121,79,1,,
5a4e26a8f4c9dc0001b7a1b5,2023-06-16_10h00.48.831,phx_ver10,2022.2.5,Win32,20.39068553,,,,,,,,,,,,120,testing_3,sh2x,i,sh2x_i,sh2x_8_ixi.wav,sh2x_1_ishi.wav,,FALSE,FALSE,,,,,,,,,,,,,,f,100.4058,space,100.617,,,,,,,,0,122,122,119,1,,
5a4e26a8f4c9dc0001b7a1b5,2023-06-16_10h00.48.831,phx_ver10,2022.2.5,Win32,20.39068553,,,,,,,,,,,,17,testing_2,zh2x,au,zh2x_au,zh2x_1_auzhau.wav,zh2x_1_auzhau.wav,,TRUE,FALSE,,,,,,,,,,,,,,f,250.4507,space,254.0629,,,,,,,,0,123,123,16,1,,
5a4e26a8f4c9dc0001b7a1b5,2023-06-16_10h00.48.831,phx_ver10,2022.2.5,Win32,20.39068553,,,,,,,,,,,,7,testing_1,zh2x,e,zh2x_e,zh2x_1_ezhe.wav,zh2x_8_exe.wav,,FALSE,TRUE,,,,,,,,,,,,,,j,0.6029,space,0.836900002,,,,,,,,0,124,124,6,1,,
5a4e26a8f4c9dc0001b7a1b5,2023-06-16_10h00.48.831,phx_ver10,2022.2.5,Win32,20.39068553,,,,,,,,,,,,24,testing_2,zh2x,ei,zh2x_ei,zh2x_8_eixei.wav,zh2x_1_eizhei.wav,,FALSE,FALSE,,,,,,,,,,,,,,f,0.243200001,space,0.4861,,,,,,,,0,125,125,23,1,,
5a4e26a8f4c9dc0001b7a1b5,2023-06-16_10h00.48.831,phx_ver10,2022.2.5,Win32,20.39068553,,,,,,,,,,,,63,testing_3,zh2j,e,zh2j_e,zh2j_1_ezhe.wav,zh2j_8_eje.wav,,FALSE,FALSE,,,,,,,,,,,,,,f,0.2335,space,0.6165,,,,,,,,0,126,126,62,1,,
5a4e26a8f4c9dc0001b7a1b5,2023-06-16_10h00.48.831,phx_ver10,2022.2.5,Win32,20.39068553,,,,,,,,,,,,56,testing_3,zh2j,ai,zh2j_ai,zh2j_8_aijai.wav,zh2j_1_aizhai.wav,,FALSE,FALSE,,,,,,,,,,,,,,f,10.4034,space,11.3646,,,,,,,,0,127,127,55,1,,
5a4e26a8f4c9dc0001b7a1b5,2023-06-16_10h00.48.831,phx_ver10,2022.2.5,Win32,20.39068553,,,,,,,,,,,,116,testing_3,sh2x,ei,sh2x_ei,sh2x_8_eixei.wav,sh2x_1_eishei.wav,,FALSE,FALSE,,,,,,,,,,,,,,f,303.3185,space,303.5179,,,,,,,,0,128,128,115,1,,
5a4e26a8f4c9dc0001b7a1b5,2023-06-16_10h00.48.831,phx_ver10,2022.2.5,Win32,20.39068553,,,,,,,,,,,,142,testing_3,sh2j,i,sh2j_i,sh2j_8_iji.wav,sh2j_8_iji.wav,,TRUE,FALSE,,,,,,,,,,,,,,f,2.8511,space,3.1996,,,,,,,,0,129,129,141,1,,
5a4e26a8f4c9dc0001b7a1b5,2023-06-16_10h00.48.831,phx_ver10,2022.2.5,Win32,20.39068553,,,,,,,,,,,,107,testing_3,sh2x,au,sh2x_au,sh2x_1_aushau.wav,sh2x_8_auxau.wav,,FALSE,FALSE,,,,,,,,,,,,,,f,48.5074,space,48.7419,,,,,,,,0,130,130,106,1,,
5a4e26a8f4c9dc0001b7a1b5,2023-06-16_10h00.48.831,phx_ver10,2022.2.5,Win32,20.39068553,,,,,,,,,,,,52,testing_3,zh2j,a,zh2j_a,zh2j_8_aja.wav,zh2j_1_azha.wav,,FALSE,FALSE,,,,,,,,,,,,,,f,0.9905,space,1.2911,,,,,,,,0,131,131,51,1,,
5a4e26a8f4c9dc0001b7a1b5,2023-06-16_10h00.48.831,phx_ver10,2022.2.5,Win32,20.39068553,,,,,,,,,,,,33,testing_3,zh2sh,au,zh2sh_au,zh2sh_1_auzhau.wav,zh2sh_1_auzhau.wav,,TRUE,FALSE,,,,,,,,,,,,,,f,50.8608,space,51.1006,,,,,,,,0,132,132,32,1,,
5a4e26a8f4c9dc0001b7a1b5,2023-06-16_10h00.48.831,phx_ver10,2022.2.5,Win32,20.39068553,,,,,,,,,,,,139,testing_3,sh2j,ei,sh2j_ei,sh2j_1_eishei.wav,sh2j_8_eijei.wav,,FALSE,FALSE,,,,,,,,,,,,,,f,1.535200001,space,1.7339,,,,,,,,0,133,133,138,1,,
5a4e26a8f4c9dc0001b7a1b5,2023-06-16_10h00.48.831,phx_ver10,2022.2.5,Win32,20.39068553,,,,,,,,,,,,66,testing_3,zh2j,ei,zh2j_ei,zh2j_8_eijei.wav,zh2j_8_eijei.wav,,TRUE,FALSE,,,,,,,,,,,,,,f,54.4026,space,54.8665,,,,,,,,0,134,134,65,1,,
5a4e26a8f4c9dc0001b7a1b5,2023-06-16_10h00.48.831,phx_ver10,2022.2.5,Win32,20.39068553,,,,,,,,,,,,125,testing_3,sh2j,ai,sh2j_ai,sh2j_1_aishai.wav,sh2j_1_aishai.wav,,TRUE,FALSE,,,,,,,,,,,,,,f,100.6034,space,101.0858,,,,,,,,0,135,135,124,1,,
5a4e26a8f4c9dc0001b7a1b5,2023-06-16_10h00.48.831,phx_ver10,2022.2.5,Win32,20.39068553,,,,,,,,,,,,36,testing_3,zh2sh,au,zh2sh_au,zh2sh_8_aushau.wav,zh2sh_1_auzhau.wav,,FALSE,FALSE,,,,,,,,,,,,,,f,94.6034,space,94.8089,,,,,,,,0,136,136,35,1,,
5a4e26a8f4c9dc0001b7a1b5,2023-06-16_10h00.48.831,phx_ver10,2022.2.5,Win32,20.39068553,,,,,,,,,,,,143,testing_3,sh2j,i,sh2j_i,sh2j_1_ishi.wav,sh2j_8_iji.wav,,FALSE,FALSE,,,,,,,,,,,,,,f,20.8373,space,21.0581,,,,,,,,0,137,137,142,1,,
5a4e26a8f4c9dc0001b7a1b5,2023-06-16_10h00.48.831,phx_ver10,2022.2.5,Win32,20.39068553,,,,,,,,,,,,27,testing_3,zh2sh,a,zh2sh_a,zh2sh_1_azha.wav,zh2sh_8_asha.wav,,FALSE,FALSE,,,,,,,,,,,,,,f,249.615,space,249.8406,,,,,,,,0,138,138,26,1,,
5a4e26a8f4c9dc0001b7a1b5,2023-06-16_10h00.48.831,phx_ver10,2022.2.5,Win32,20.39068553,,,,,,,,,,,,132,testing_3,sh2j,au,sh2j_au,sh2j_8_aujau.wav,sh2j_1_aushau.wav,,FALSE,FALSE,,,,,,,,,,,,,,f,0.4844,space,0.910299999,,,,,,,,0,139,139,131,1,,
5a4e26a8f4c9dc0001b7a1b5,2023-06-16_10h00.48.831,phx_ver10,2022.2.5,Win32,20.39068553,,,,,,,,,,,,5,testing_1,zh2x,e,zh2x_e,zh2x_1_ezhe.wav,zh2x_1_ezhe_copy.wav,,TRUE,TRUE,,,,,,,,,,,,,,f,97.9257,space,98.4068,,,,,,,,0,140,140,4,1,,
5a4e26a8f4c9dc0001b7a1b5,2023-06-16_10h00.48.831,phx_ver10,2022.2.5,Win32,20.39068553,,,,,,,,,,,,144,testing_3,sh2j,i,sh2j_i,sh2j_8_iji.wav,sh2j_1_ishi.wav,,FALSE,FALSE,,,,,,,,,,,,,,f,0.717300001,space,1.0016,,,,,,,,0,141,141,143,1,,
5a4e26a8f4c9dc0001b7a1b5,2023-06-16_10h00.48.831,phx_ver10,2022.2.5,Win32,20.39068553,,,,,,,,,,,,104,testing_3,sh2x,ai,sh2x_ai,sh2x_8_aixai.wav,sh2x_1_aishai.wav,,FALSE,FALSE,,,,,,,,,,,,,,f,0.735400002,space,0.952700001,,,,,,,,0,142,142,103,1,,
5a4e26a8f4c9dc0001b7a1b5,2023-06-16_10h00.48.831,phx_ver10,2022.2.5,Win32,20.39068553,,,,,,,,,,,,109,testing_3,sh2x,e,sh2x_e,sh2x_1_eshe.wav,sh2x_1_eshe.wav,,TRUE,FALSE,,,,,,,,,,,,,,f,1.807699999,space,2.032400002,,,,,,,,0,143,143,108,1,,
5a4e26a8f4c9dc0001b7a1b5,2023-06-16_10h00.48.831,phx_ver10,2022.2.5,Win32,20.39068553,,,,,,,,,,,,,,,,,,,,,,,,,,,,,,,,,,,,,,,,,,,,,,,,,,,space,1.443800001
