participant,date,expName,psychopyVersion,OS,frameRate,space_1.keys,space_1.rt,space_2.keys,space_2.rt,space_train.keys,space_train.rt,training.thisRepN,training.thisTrialN,training.thisN,training.thisIndex,training.ran,token_id,task,continuum,vowel,series,sound_1,sound_2,img,same,trained,FJ_attn.keys,FJ_attn.rt,space_attn.keys,space_attn.rt,if_attn_test.thisRepN,if_attn_test.thisTrialN,if_attn_test.thisN,if_attn_test.thisIndex,if_attn_test.ran,space_trans_1.keys,space_trans_1.rt,space_trans_11.keys,space_trans_11.rt,FJ_test.keys,FJ_test.rt,space_test.keys,space_test.rt,testing_pre.thisRepN,testing_pre.thisTrialN,testing_pre.thisN,testing_pre.thisIndex,testing_pre.ran,space_trans_2.keys,space_trans_2.rt,testing_all.thisRepN,testing_all.thisTrialN,testing_all.thisN,testing_all.thisIndex,testing_all.ran,space_ending.keys,space_ending.rt
5a9e9fc46219a30001f54994,2023-06-16_10h23.53.481,phx_ver10,2022.2.5,MacIntel,59.93407252,,,,,,,,,,,,,,,,,,,,,,,,,,,,,,,,,,,,,,,,,,,,,,,,,,,,
5a9e9fc46219a30001f54994,2023-06-16_10h23.53.481,phx_ver10,2022.2.5,MacIntel,59.93407252,space,8.7758,,,,,,,,,,,,,,,,,,,,,,,,,,,,,,,,,,,,,,,,,,,,,,,,,,
5a9e9fc46219a30001f54994,2023-06-16_10h23.53.481,phx_ver10,2022.2.5,MacIntel,59.93407252,,,space,3.9252,,,,,,,,,,,,,,,,,,,,,,,,,,,,,,,,,,,,,,,,,,,,,,,,
5a9e9fc46219a30001f54994,2023-06-16_10h23.53.481,phx_ver10,2022.2.5,MacIntel,59.93407252,,,,,space,2.4057,0,0,0,28,1,29,training,zh2x,e,zh2x_e,zh2x_7_exe.wav,,exe.jpg,,,,,,,,,,,,,,,,,,,,,,,,,,,,,,,,,
5a9e9fc46219a30001f54994,2023-06-16_10h23.53.481,phx_ver10,2022.2.5,MacIntel,59.93407252,,,,,space,1.0025,0,1,1,13,1,14,training,zh2x,a,zh2x_a,zh2x_7_axa.wav,,axa.jpg,,,,,,,,,,,,,,,,,,,,,,,,,,,,,,,,,
5a9e9fc46219a30001f54994,2023-06-16_10h23.53.481,phx_ver10,2022.2.5,MacIntel,59.93407252,,,,,space,1.3893,0,2,2,6,1,7,training,zh2x,a,zh2x_a,zh2x_3_azha.wav,,azha.jpg,,,,,,,,,,,,,,,,,,,,,,,,,,,,,,,,,
5a9e9fc46219a30001f54994,2023-06-16_10h23.53.481,phx_ver10,2022.2.5,MacIntel,59.93407252,,,,,space,2.7735,0,3,3,8,1,9,training,zh2x,a,zh2x_a,zh2x_5_axa.wav,,axa.jpg,,,,,,,,,,,,,,,,,,,,,,,,,,,,,,,,,
5a9e9fc46219a30001f54994,2023-06-16_10h23.53.481,phx_ver10,2022.2.5,MacIntel,59.93407252,,,,,space,1.4861,0,4,4,45,1,46,training,zh2x,i,zh2x_i,zh2x_7_ixi.wav,,ixi.jpg,,,,,,,,,,,,,,,,,,,,,,,,,,,,,,,,,
5a9e9fc46219a30001f54994,2023-06-16_10h23.53.481,phx_ver10,2022.2.5,MacIntel,59.93407252,,,,,space,1.1536,0,5,5,10,1,11,training,zh2x,a,zh2x_a,zh2x_6_axa.wav,,axa.jpg,,,,,,,,,,,,,,,,,,,,,,,,,,,,,,,,,
5a9e9fc46219a30001f54994,2023-06-16_10h23.53.481,phx_ver10,2022.2.5,MacIntel,59.93407252,,,,,,,,,,,,,attn_test,,,,zh2x_8_axa.wav,zh2x_1_azha.wav,axa.jpg,LEFT,,f,9.3501,space,13.9827,0,0,0,0,1,,,,,,,,,,,,,,,,,,,,,,
5a9e9fc46219a30001f54994,2023-06-16_10h23.53.481,phx_ver10,2022.2.5,MacIntel,59.93407252,,,,,space,1.1552,0,6,6,39,1,40,training,zh2x,i,zh2x_i,zh2x_4_izhi.wav,,izhi.jpg,,,,,,,,,,,,,,,,,,,,,,,,,,,,,,,,,
5a9e9fc46219a30001f54994,2023-06-16_10h23.53.481,phx_ver10,2022.2.5,MacIntel,59.93407252,,,,,space,1.5364,0,7,7,2,1,3,training,zh2x,a,zh2x_a,zh2x_2_azha.wav,,azha.jpg,,,,,,,,,,,,,,,,,,,,,,,,,,,,,,,,,
5a9e9fc46219a30001f54994,2023-06-16_10h23.53.481,phx_ver10,2022.2.5,MacIntel,59.93407252,,,,,space,0.7857,0,8,8,35,1,36,training,zh2x,i,zh2x_i,zh2x_2_izhi.wav,,izhi.jpg,,,,,,,,,,,,,,,,,,,,,,,,,,,,,,,,,
5a9e9fc46219a30001f54994,2023-06-16_10h23.53.481,phx_ver10,2022.2.5,MacIntel,59.93407252,,,,,space,0.8687,0,9,9,43,1,44,training,zh2x,i,zh2x_i,zh2x_7_ixi.wav,,ixi.jpg,,,,,,,,,,,,,,,,,,,,,,,,,,,,,,,,,
5a9e9fc46219a30001f54994,2023-06-16_10h23.53.481,phx_ver10,2022.2.5,MacIntel,59.93407252,,,,,space,1.1205,0,10,10,19,1,20,training,zh2x,e,zh2x_e,zh2x_2_ezhe.wav,,ezhe.jpg,,,,,,,,,,,,,,,,,,,,,,,,,,,,,,,,,
5a9e9fc46219a30001f54994,2023-06-16_10h23.53.481,phx_ver10,2022.2.5,MacIntel,59.93407252,,,,,space,0.9702,0,11,11,3,1,4,training,zh2x,a,zh2x_a,zh2x_2_azha.wav,,azha.jpg,,,,,,,,,,,,,,,,,,,,,,,,,,,,,,,,,
5a9e9fc46219a30001f54994,2023-06-16_10h23.53.481,phx_ver10,2022.2.5,MacIntel,59.93407252,,,,,,,,,,,,,attn_test,,,,zh2x_1_azha.wav,zh2x_8_ixi.wav,ixi.jpg,RIGHT,,j,4.6077,space,5.2411,0,0,0,0,1,,,,,,,,,,,,,,,,,,,,,,
5a9e9fc46219a30001f54994,2023-06-16_10h23.53.481,phx_ver10,2022.2.5,MacIntel,59.93407252,,,,,space,0.9195,0,12,12,24,1,25,training,zh2x,e,zh2x_e,zh2x_5_exe.wav,,exe.jpg,,,,,,,,,,,,,,,,,,,,,,,,,,,,,,,,,
5a9e9fc46219a30001f54994,2023-06-16_10h23.53.481,phx_ver10,2022.2.5,MacIntel,59.93407252,,,,,space,0.7359,0,13,13,27,1,28,training,zh2x,e,zh2x_e,zh2x_7_exe.wav,,exe.jpg,,,,,,,,,,,,,,,,,,,,,,,,,,,,,,,,,
5a9e9fc46219a30001f54994,2023-06-16_10h23.53.481,phx_ver10,2022.2.5,MacIntel,59.93407252,,,,,space,0.8558,0,14,14,34,1,35,training,zh2x,i,zh2x_i,zh2x_2_izhi.wav,,izhi.jpg,,,,,,,,,,,,,,,,,,,,,,,,,,,,,,,,,
5a9e9fc46219a30001f54994,2023-06-16_10h23.53.481,phx_ver10,2022.2.5,MacIntel,59.93407252,,,,,space,1.3227,0,15,15,25,1,26,training,zh2x,e,zh2x_e,zh2x_6_exe.wav,,exe.jpg,,,,,,,,,,,,,,,,,,,,,,,,,,,,,,,,,
5a9e9fc46219a30001f54994,2023-06-16_10h23.53.481,phx_ver10,2022.2.5,MacIntel,59.93407252,,,,,space,0.9216,0,16,16,30,1,31,training,zh2x,e,zh2x_e,zh2x_7_exe.wav,,exe.jpg,,,,,,,,,,,,,,,,,,,,,,,,,,,,,,,,,
5a9e9fc46219a30001f54994,2023-06-16_10h23.53.481,phx_ver10,2022.2.5,MacIntel,59.93407252,,,,,space,0.1255,0,17,17,40,1,41,training,zh2x,i,zh2x_i,zh2x_5_ixi.wav,,ixi.jpg,,,,,,,,,,,,,,,,,,,,,,,,,,,,,,,,,
5a9e9fc46219a30001f54994,2023-06-16_10h23.53.481,phx_ver10,2022.2.5,MacIntel,59.93407252,,,,,,,,,,,,,attn_test,,,,zh2x_1_azha.wav,zh2x_8_ixi.wav,ixi.jpg,RIGHT,,j,3.1549,space,3.8089,0,0,0,0,1,,,,,,,,,,,,,,,,,,,,,,
5a9e9fc46219a30001f54994,2023-06-16_10h23.53.481,phx_ver10,2022.2.5,MacIntel,59.93407252,,,,,space,1.1035,0,18,18,42,1,43,training,zh2x,i,zh2x_i,zh2x_6_ixi.wav,,ixi.jpg,,,,,,,,,,,,,,,,,,,,,,,,,,,,,,,,,
5a9e9fc46219a30001f54994,2023-06-16_10h23.53.481,phx_ver10,2022.2.5,MacIntel,59.93407252,,,,,space,0.3886,0,19,19,9,1,10,training,zh2x,a,zh2x_a,zh2x_6_axa.wav,,axa.jpg,,,,,,,,,,,,,,,,,,,,,,,,,,,,,,,,,
5a9e9fc46219a30001f54994,2023-06-16_10h23.53.481,phx_ver10,2022.2.5,MacIntel,59.93407252,,,,,space,0.3714,0,20,20,20,1,21,training,zh2x,e,zh2x_e,zh2x_2_ezhe.wav,,ezhe.jpg,,,,,,,,,,,,,,,,,,,,,,,,,,,,,,,,,
5a9e9fc46219a30001f54994,2023-06-16_10h23.53.481,phx_ver10,2022.2.5,MacIntel,59.93407252,,,,,space,0.059,0,21,21,22,1,23,training,zh2x,e,zh2x_e,zh2x_3_ezhe.wav,,ezhe.jpg,,,,,,,,,,,,,,,,,,,,,,,,,,,,,,,,,
5a9e9fc46219a30001f54994,2023-06-16_10h23.53.481,phx_ver10,2022.2.5,MacIntel,59.93407252,,,,,space,0.2351,0,22,22,33,1,34,training,zh2x,i,zh2x_i,zh2x_2_izhi.wav,,izhi.jpg,,,,,,,,,,,,,,,,,,,,,,,,,,,,,,,,,
5a9e9fc46219a30001f54994,2023-06-16_10h23.53.481,phx_ver10,2022.2.5,MacIntel,59.93407252,,,,,space,0.2717,0,23,23,41,1,42,training,zh2x,i,zh2x_i,zh2x_6_ixi.wav,,ixi.jpg,,,,,,,,,,,,,,,,,,,,,,,,,,,,,,,,,
5a9e9fc46219a30001f54994,2023-06-16_10h23.53.481,phx_ver10,2022.2.5,MacIntel,59.93407252,,,,,,,,,,,,,attn_test,,,,zh2x_8_axa.wav,zh2x_8_ixi.wav,ixi.jpg,RIGHT,,j,0.9864,space,1.5037,0,0,0,0,1,,,,,,,,,,,,,,,,,,,,,,
5a9e9fc46219a30001f54994,2023-06-16_10h23.53.481,phx_ver10,2022.2.5,MacIntel,59.93407252,,,,,space,0.6697,0,24,24,29,1,30,training,zh2x,e,zh2x_e,zh2x_7_exe.wav,,exe.jpg,,,,,,,,,,,,,,,,,,,,,,,,,,,,,,,,,
5a9e9fc46219a30001f54994,2023-06-16_10h23.53.481,phx_ver10,2022.2.5,MacIntel,59.93407252,,,,,space,0.1035,0,25,25,21,1,22,training,zh2x,e,zh2x_e,zh2x_3_ezhe.wav,,ezhe.jpg,,,,,,,,,,,,,,,,,,,,,,,,,,,,,,,,,
5a9e9fc46219a30001f54994,2023-06-16_10h23.53.481,phx_ver10,2022.2.5,MacIntel,59.93407252,,,,,space,0.1208,0,26,26,44,1,45,training,zh2x,i,zh2x_i,zh2x_7_ixi.wav,,ixi.jpg,,,,,,,,,,,,,,,,,,,,,,,,,,,,,,,,,
5a9e9fc46219a30001f54994,2023-06-16_10h23.53.481,phx_ver10,2022.2.5,MacIntel,59.93407252,,,,,space,0.0207,0,27,27,23,1,24,training,zh2x,e,zh2x_e,zh2x_4_ezhe.wav,,ezhe.jpg,,,,,,,,,,,,,,,,,,,,,,,,,,,,,,,,,
5a9e9fc46219a30001f54994,2023-06-16_10h23.53.481,phx_ver10,2022.2.5,MacIntel,59.93407252,,,,,space,0.0191,0,28,28,38,1,39,training,zh2x,i,zh2x_i,zh2x_3_izhi.wav,,izhi.jpg,,,,,,,,,,,,,,,,,,,,,,,,,,,,,,,,,
5a9e9fc46219a30001f54994,2023-06-16_10h23.53.481,phx_ver10,2022.2.5,MacIntel,59.93407252,,,,,space,0.0545,0,29,29,26,1,27,training,zh2x,e,zh2x_e,zh2x_6_exe.wav,,exe.jpg,,,,,,,,,,,,,,,,,,,,,,,,,,,,,,,,,
5a9e9fc46219a30001f54994,2023-06-16_10h23.53.481,phx_ver10,2022.2.5,MacIntel,59.93407252,,,,,,,,,,,,,attn_test,,,,zh2x_1_ezhe.wav,zh2x_1_izhi.wav,ezhe.jpg,LEFT,,f,1.6889,space,2.5206,0,0,0,0,1,,,,,,,,,,,,,,,,,,,,,,
5a9e9fc46219a30001f54994,2023-06-16_10h23.53.481,phx_ver10,2022.2.5,MacIntel,59.93407252,,,,,space,0.7853,0,30,30,12,1,13,training,zh2x,a,zh2x_a,zh2x_7_axa.wav,,axa.jpg,,,,,,,,,,,,,,,,,,,,,,,,,,,,,,,,,
5a9e9fc46219a30001f54994,2023-06-16_10h23.53.481,phx_ver10,2022.2.5,MacIntel,59.93407252,,,,,space,1.1558,0,31,31,31,1,32,training,zh2x,e,zh2x_e,zh2x_8_exe.wav,,exe.jpg,,,,,,,,,,,,,,,,,,,,,,,,,,,,,,,,,
5a9e9fc46219a30001f54994,2023-06-16_10h23.53.481,phx_ver10,2022.2.5,MacIntel,59.93407252,,,,,space,0.3006,0,32,32,14,1,15,training,zh2x,a,zh2x_a,zh2x_7_axa.wav,,axa.jpg,,,,,,,,,,,,,,,,,,,,,,,,,,,,,,,,,
5a9e9fc46219a30001f54994,2023-06-16_10h23.53.481,phx_ver10,2022.2.5,MacIntel,59.93407252,,,,,space,0.1351,0,33,33,1,1,2,training,zh2x,a,zh2x_a,zh2x_2_azha.wav,,azha.jpg,,,,,,,,,,,,,,,,,,,,,,,,,,,,,,,,,
5a9e9fc46219a30001f54994,2023-06-16_10h23.53.481,phx_ver10,2022.2.5,MacIntel,59.93407252,,,,,space,0.1861,0,34,34,17,1,18,training,zh2x,e,zh2x_e,zh2x_2_ezhe.wav,,ezhe.jpg,,,,,,,,,,,,,,,,,,,,,,,,,,,,,,,,,
5a9e9fc46219a30001f54994,2023-06-16_10h23.53.481,phx_ver10,2022.2.5,MacIntel,59.93407252,,,,,space,0.2042,0,35,35,7,1,8,training,zh2x,a,zh2x_a,zh2x_4_azha.wav,,azha.jpg,,,,,,,,,,,,,,,,,,,,,,,,,,,,,,,,,
5a9e9fc46219a30001f54994,2023-06-16_10h23.53.481,phx_ver10,2022.2.5,MacIntel,59.93407252,,,,,,,,,,,,,attn_test,,,,zh2x_8_exe.wav,zh2x_1_azha.wav,exe.jpg,LEFT,,f,1.2875,space,1.6891,0,0,0,0,1,,,,,,,,,,,,,,,,,,,,,,
5a9e9fc46219a30001f54994,2023-06-16_10h23.53.481,phx_ver10,2022.2.5,MacIntel,59.93407252,,,,,space,0.5216,0,36,36,4,1,5,training,zh2x,a,zh2x_a,zh2x_2_azha.wav,,azha.jpg,,,,,,,,,,,,,,,,,,,,,,,,,,,,,,,,,
5a9e9fc46219a30001f54994,2023-06-16_10h23.53.481,phx_ver10,2022.2.5,MacIntel,59.93407252,,,,,space,0.7205,0,37,37,16,1,17,training,zh2x,e,zh2x_e,zh2x_1_ezhe.wav,,ezhe.jpg,,,,,,,,,,,,,,,,,,,,,,,,,,,,,,,,,
5a9e9fc46219a30001f54994,2023-06-16_10h23.53.481,phx_ver10,2022.2.5,MacIntel,59.93407252,,,,,space,0.169,0,38,38,47,1,48,training,zh2x,i,zh2x_i,zh2x_8_ixi.wav,,ixi.jpg,,,,,,,,,,,,,,,,,,,,,,,,,,,,,,,,,
5a9e9fc46219a30001f54994,2023-06-16_10h23.53.481,phx_ver10,2022.2.5,MacIntel,59.93407252,,,,,space,0.7202,0,39,39,37,1,38,training,zh2x,i,zh2x_i,zh2x_3_izhi.wav,,izhi.jpg,,,,,,,,,,,,,,,,,,,,,,,,,,,,,,,,,
5a9e9fc46219a30001f54994,2023-06-16_10h23.53.481,phx_ver10,2022.2.5,MacIntel,59.93407252,,,,,space,0.9532,0,40,40,0,1,1,training,zh2x,a,zh2x_a,zh2x_1_azha.wav,,azha.jpg,,,,,,,,,,,,,,,,,,,,,,,,,,,,,,,,,
5a9e9fc46219a30001f54994,2023-06-16_10h23.53.481,phx_ver10,2022.2.5,MacIntel,59.93407252,,,,,space,0.1694,0,41,41,18,1,19,training,zh2x,e,zh2x_e,zh2x_2_ezhe.wav,,ezhe.jpg,,,,,,,,,,,,,,,,,,,,,,,,,,,,,,,,,
5a9e9fc46219a30001f54994,2023-06-16_10h23.53.481,phx_ver10,2022.2.5,MacIntel,59.93407252,,,,,,,,,,,,,attn_test,,,,zh2x_1_azha.wav,zh2x_1_ezhe.wav,ezhe.jpg,RIGHT,,j,0.4688,space,0.9356,0,0,0,0,1,,,,,,,,,,,,,,,,,,,,,,
5a9e9fc46219a30001f54994,2023-06-16_10h23.53.481,phx_ver10,2022.2.5,MacIntel,59.93407252,,,,,space,0.1542,0,42,42,46,1,47,training,zh2x,i,zh2x_i,zh2x_7_ixi.wav,,ixi.jpg,,,,,,,,,,,,,,,,,,,,,,,,,,,,,,,,,
5a9e9fc46219a30001f54994,2023-06-16_10h23.53.481,phx_ver10,2022.2.5,MacIntel,59.93407252,,,,,space,0.4536,0,43,43,11,1,12,training,zh2x,a,zh2x_a,zh2x_7_axa.wav,,axa.jpg,,,,,,,,,,,,,,,,,,,,,,,,,,,,,,,,,
5a9e9fc46219a30001f54994,2023-06-16_10h23.53.481,phx_ver10,2022.2.5,MacIntel,59.93407252,,,,,space,0.4007,0,44,44,5,1,6,training,zh2x,a,zh2x_a,zh2x_3_azha.wav,,azha.jpg,,,,,,,,,,,,,,,,,,,,,,,,,,,,,,,,,
5a9e9fc46219a30001f54994,2023-06-16_10h23.53.481,phx_ver10,2022.2.5,MacIntel,59.93407252,,,,,space,0.6687,0,45,45,36,1,37,training,zh2x,i,zh2x_i,zh2x_2_izhi.wav,,izhi.jpg,,,,,,,,,,,,,,,,,,,,,,,,,,,,,,,,,
5a9e9fc46219a30001f54994,2023-06-16_10h23.53.481,phx_ver10,2022.2.5,MacIntel,59.93407252,,,,,space,0.2353,0,46,46,15,1,16,training,zh2x,a,zh2x_a,zh2x_8_axa.wav,,axa.jpg,,,,,,,,,,,,,,,,,,,,,,,,,,,,,,,,,
5a9e9fc46219a30001f54994,2023-06-16_10h23.53.481,phx_ver10,2022.2.5,MacIntel,59.93407252,,,,,space,0.019,0,47,47,32,1,33,training,zh2x,i,zh2x_i,zh2x_1_izhi.wav,,izhi.jpg,,,,,,,,,,,,,,,,,,,,,,,,,,,,,,,,,
5a9e9fc46219a30001f54994,2023-06-16_10h23.53.481,phx_ver10,2022.2.5,MacIntel,59.93407252,,,,,,,,,,,,,attn_test,,,,zh2x_8_ixi.wav,zh2x_1_azha.wav,azha.jpg,RIGHT,,j,0.7705,space,1.2878,,,,,,,,,,,,,,,,,,,,,,,,,,,
5a9e9fc46219a30001f54994,2023-06-16_10h23.53.481,phx_ver10,2022.2.5,MacIntel,59.93407252,,,,,,,,,,,,,,,,,,,,,,,,,,,,,,,space,1.2533,,,,,,,,,,,,,,,,,,,,
5a9e9fc46219a30001f54994,2023-06-16_10h23.53.481,phx_ver10,2022.2.5,MacIntel,59.93407252,,,,,,,,,,,,,,,,,,,,,,,,,,,,,,,,,space,3.7243,,,,,,,,,,,,,,,,,,
5a9e9fc46219a30001f54994,2023-06-16_10h23.53.481,phx_ver10,2022.2.5,MacIntel,59.93407252,,,,,,,,,,,,4,testing_pre,,,,eihei.wav,eihei.wav,,TRUE,,,,,,,,,,,,,,,f,0.7676,space,1.9542,0,0,0,3,1,,,,,,,,,
5a9e9fc46219a30001f54994,2023-06-16_10h23.53.481,phx_ver10,2022.2.5,MacIntel,59.93407252,,,,,,,,,,,,2,testing_pre,,,,auhau.wav,aufau.wav,,FALSE,,,,,,,,,,,,,,,f,0.6047,space,1.0063,0,1,1,1,1,,,,,,,,,
5a9e9fc46219a30001f54994,2023-06-16_10h23.53.481,phx_ver10,2022.2.5,MacIntel,59.93407252,,,,,,,,,,,,1,testing_pre,,,,ifi.wav,ifi.wav,,TRUE,,,,,,,,,,,,,,,f,0.4053,space,0.8,0,2,2,0,1,,,,,,,,,
5a9e9fc46219a30001f54994,2023-06-16_10h23.53.481,phx_ver10,2022.2.5,MacIntel,59.93407252,,,,,,,,,,,,5,testing_pre,,,,ihi.wav,ifi.wav,,FALSE,,,,,,,,,,,,,,,j,1.4029,space,1.9566,0,3,3,4,1,,,,,,,,,
5a9e9fc46219a30001f54994,2023-06-16_10h23.53.481,phx_ver10,2022.2.5,MacIntel,59.93407252,,,,,,,,,,,,3,testing_pre,,,,afa.wav,aha.wav,,FALSE,,,,,,,,,,,,,,,j,0.6029,space,0.9849,0,4,4,2,1,,,,,,,,,
5a9e9fc46219a30001f54994,2023-06-16_10h23.53.481,phx_ver10,2022.2.5,MacIntel,59.93407252,,,,,,,,,,,,,,,,,,,,,,,,,,,,,,,,,,,,,,,,,,,,space,0.818,,,,,,,
5a9e9fc46219a30001f54994,2023-06-16_10h23.53.481,phx_ver10,2022.2.5,MacIntel,59.93407252,,,,,,,,,,,,108,testing_3,sh2x,au,sh2x_au,sh2x_8_auxau.wav,sh2x_1_aushau.wav,,FALSE,FALSE,,,,,,,,,,,,,,j,1.1573,space,1.5059,,,,,,,,0,0,0,107,1,,
5a9e9fc46219a30001f54994,2023-06-16_10h23.53.481,phx_ver10,2022.2.5,MacIntel,59.93407252,,,,,,,,,,,,65,testing_3,zh2j,ei,zh2j_ei,zh2j_1_eizhei.wav,zh2j_1_eizhei.wav,,TRUE,FALSE,,,,,,,,,,,,,,f,0.2849,space,0.6686,,,,,,,,0,1,1,64,1,,
5a9e9fc46219a30001f54994,2023-06-16_10h23.53.481,phx_ver10,2022.2.5,MacIntel,59.93407252,,,,,,,,,,,,39,testing_3,zh2sh,e,zh2sh_e,zh2sh_1_ezhe.wav,zh2sh_8_eshe.wav,,FALSE,FALSE,,,,,,,,,,,,,,j,1.2544,space,1.6224,,,,,,,,0,2,2,38,1,,
5a9e9fc46219a30001f54994,2023-06-16_10h23.53.481,phx_ver10,2022.2.5,MacIntel,59.93407252,,,,,,,,,,,,32,testing_3,zh2sh,ai,zh2sh_ai,zh2sh_8_aishai.wav,zh2sh_1_aizhai.wav,,FALSE,FALSE,,,,,,,,,,,,,,j,1.8054,space,2.372,,,,,,,,0,3,3,31,1,,
5a9e9fc46219a30001f54994,2023-06-16_10h23.53.481,phx_ver10,2022.2.5,MacIntel,59.93407252,,,,,,,,,,,,37,testing_3,zh2sh,e,zh2sh_e,zh2sh_1_ezhe.wav,zh2sh_1_ezhe.wav,,TRUE,FALSE,,,,,,,,,,,,,,f,0.3388,space,0.7037,,,,,,,,0,4,4,36,1,,
5a9e9fc46219a30001f54994,2023-06-16_10h23.53.481,phx_ver10,2022.2.5,MacIntel,59.93407252,,,,,,,,,,,,127,testing_3,sh2j,ai,sh2j_ai,sh2j_1_aishai.wav,sh2j_8_aijai.wav,,FALSE,FALSE,,,,,,,,,,,,,,j,0.501,space,0.8897,,,,,,,,0,5,5,126,1,,
5a9e9fc46219a30001f54994,2023-06-16_10h23.53.481,phx_ver10,2022.2.5,MacIntel,59.93407252,,,,,,,,,,,,51,testing_3,zh2j,a,zh2j_a,zh2j_1_azha.wav,zh2j_8_aja.wav,,FALSE,FALSE,,,,,,,,,,,,,,f,0.4893,space,0.8368,,,,,,,,0,6,6,50,1,,
5a9e9fc46219a30001f54994,2023-06-16_10h23.53.481,phx_ver10,2022.2.5,MacIntel,59.93407252,,,,,,,,,,,,8,testing_1,zh2x,e,zh2x_e,zh2x_8_exe.wav,zh2x_1_ezhe.wav,,FALSE,TRUE,,,,,,,,,,,,,,f,0.5438,space,0.8831,,,,,,,,0,7,7,7,1,,
5a9e9fc46219a30001f54994,2023-06-16_10h23.53.481,phx_ver10,2022.2.5,MacIntel,59.93407252,,,,,,,,,,,,63,testing_3,zh2j,e,zh2j_e,zh2j_1_ezhe.wav,zh2j_8_eje.wav,,FALSE,FALSE,,,,,,,,,,,,,,f,0.4193,space,0.6703,,,,,,,,0,8,8,62,1,,
5a9e9fc46219a30001f54994,2023-06-16_10h23.53.481,phx_ver10,2022.2.5,MacIntel,59.93407252,,,,,,,,,,,,129,testing_3,sh2j,au,sh2j_au,sh2j_1_aushau.wav,sh2j_1_aushau.wav,,TRUE,FALSE,,,,,,,,,,,,,,f,0.4338,space,0.7042,,,,,,,,0,9,9,128,1,,
5a9e9fc46219a30001f54994,2023-06-16_10h23.53.481,phx_ver10,2022.2.5,MacIntel,59.93407252,,,,,,,,,,,,82,testing_3,j2x,au,j2x_au,j2x_8_auxau.wav,j2x_8_auxau.wav,,TRUE,FALSE,,,,,,,,,,,,,,f,0.7692,space,1.2536,,,,,,,,0,10,10,81,1,,
5a9e9fc46219a30001f54994,2023-06-16_10h23.53.481,phx_ver10,2022.2.5,MacIntel,59.93407252,,,,,,,,,,,,135,testing_3,sh2j,e,sh2j_e,sh2j_1_eshe.wav,sh2j_8_eje.wav,,FALSE,FALSE,,,,,,,,,,,,,,j,0.3853,space,0.7685,,,,,,,,0,11,11,134,1,,
5a9e9fc46219a30001f54994,2023-06-16_10h23.53.481,phx_ver10,2022.2.5,MacIntel,59.93407252,,,,,,,,,,,,5,testing_1,zh2x,e,zh2x_e,zh2x_1_ezhe.wav,zh2x_1_ezhe_copy.wav,,TRUE,TRUE,,,,,,,,,,,,,,f,0.3397,space,0.6691,,,,,,,,0,12,12,4,1,,
5a9e9fc46219a30001f54994,2023-06-16_10h23.53.481,phx_ver10,2022.2.5,MacIntel,59.93407252,,,,,,,,,,,,26,testing_3,zh2sh,a,zh2sh_a,zh2sh_8_asha.wav,zh2sh_8_asha.wav,,TRUE,FALSE,,,,,,,,,,,,,,j,0.4191,space,0.7714,,,,,,,,0,13,13,25,1,,
5a9e9fc46219a30001f54994,2023-06-16_10h23.53.481,phx_ver10,2022.2.5,MacIntel,59.93407252,,,,,,,,,,,,58,testing_3,zh2j,au,zh2j_au,zh2j_8_aujau.wav,zh2j_8_aujau.wav,,TRUE,FALSE,,,,,,,,,,,,,,f,0.2352,space,0.6008,,,,,,,,0,14,14,57,1,,
5a9e9fc46219a30001f54994,2023-06-16_10h23.53.481,phx_ver10,2022.2.5,MacIntel,59.93407252,,,,,,,,,,,,9,testing_1,zh2x,i,zh2x_i,zh2x_1_izhi.wav,zh2x_1_izhi_copy.wav,,TRUE,TRUE,,,,,,,,,,,,,,f,0.0513,space,0.3602,,,,,,,,0,15,15,8,1,,
5a9e9fc46219a30001f54994,2023-06-16_10h23.53.481,phx_ver10,2022.2.5,MacIntel,59.93407252,,,,,,,,,,,,16,testing_2,zh2x,ai,zh2x_ai,zh2x_8_aixai.wav,zh2x_1_aizhai.wav,,FALSE,FALSE,,,,,,,,,,,,,,j,0.2894,space,0.6864,,,,,,,,0,16,16,15,1,,
5a9e9fc46219a30001f54994,2023-06-16_10h23.53.481,phx_ver10,2022.2.5,MacIntel,59.93407252,,,,,,,,,,,,100,testing_3,sh2x,a,sh2x_a,sh2x_8_axa.wav,sh2x_1_asha.wav,,FALSE,FALSE,,,,,,,,,,,,,,j,0.3357,space,0.7708,,,,,,,,0,17,17,99,1,,
5a9e9fc46219a30001f54994,2023-06-16_10h23.53.481,phx_ver10,2022.2.5,MacIntel,59.93407252,,,,,,,,,,,,125,testing_3,sh2j,ai,sh2j_ai,sh2j_1_aishai.wav,sh2j_1_aishai.wav,,TRUE,FALSE,,,,,,,,,,,,,,f,0.2556,space,0.6058,,,,,,,,0,18,18,124,1,,
5a9e9fc46219a30001f54994,2023-06-16_10h23.53.481,phx_ver10,2022.2.5,MacIntel,59.93407252,,,,,,,,,,,,42,testing_3,zh2sh,ei,zh2sh_ei,zh2sh_8_eishei.wav,zh2sh_8_eishei.wav,,TRUE,FALSE,,,,,,,,,,,,,,f,0.1366,space,0.486,,,,,,,,0,19,19,41,1,,
5a9e9fc46219a30001f54994,2023-06-16_10h23.53.481,phx_ver10,2022.2.5,MacIntel,59.93407252,,,,,,,,,,,,77,testing_3,j2x,ai,j2x_ai,j2x_1_aijai.wav,j2x_1_aijai.wav,,TRUE,FALSE,,,,,,,,,,,,,,f,0.7186,space,1.0685,,,,,,,,0,20,20,76,1,,
5a9e9fc46219a30001f54994,2023-06-16_10h23.53.481,phx_ver10,2022.2.5,MacIntel,59.93407252,,,,,,,,,,,,70,testing_3,zh2j,i,zh2j_i,zh2j_8_iji.wav,zh2j_8_iji.wav,,TRUE,FALSE,,,,,,,,,,,,,,f,0.6366,space,1.0168,,,,,,,,0,21,21,69,1,,
5a9e9fc46219a30001f54994,2023-06-16_10h23.53.481,phx_ver10,2022.2.5,MacIntel,59.93407252,,,,,,,,,,,,33,testing_3,zh2sh,au,zh2sh_au,zh2sh_1_auzhau.wav,zh2sh_1_auzhau.wav,,TRUE,FALSE,,,,,,,,,,,,,,f,0.2205,space,0.6357,,,,,,,,0,22,22,32,1,,
5a9e9fc46219a30001f54994,2023-06-16_10h23.53.481,phx_ver10,2022.2.5,MacIntel,59.93407252,,,,,,,,,,,,17,testing_2,zh2x,au,zh2x_au,zh2x_1_auzhau.wav,zh2x_1_auzhau.wav,,TRUE,FALSE,,,,,,,,,,,,,,f,0.6058,space,0.9694,,,,,,,,0,23,23,16,1,,
5a9e9fc46219a30001f54994,2023-06-16_10h23.53.481,phx_ver10,2022.2.5,MacIntel,59.93407252,,,,,,,,,,,,25,testing_3,zh2sh,a,zh2sh_a,zh2sh_1_azha.wav,zh2sh_1_azha.wav,,TRUE,FALSE,,,,,,,,,,,,,,f,0.1513,space,0.5705,,,,,,,,0,24,24,24,1,,
5a9e9fc46219a30001f54994,2023-06-16_10h23.53.481,phx_ver10,2022.2.5,MacIntel,59.93407252,,,,,,,,,,,,128,testing_3,sh2j,ai,sh2j_ai,sh2j_8_aijai.wav,sh2j_1_aishai.wav,,FALSE,FALSE,,,,,,,,,,,,,,j,0.0693,space,0.5272,,,,,,,,0,25,25,127,1,,
5a9e9fc46219a30001f54994,2023-06-16_10h23.53.481,phx_ver10,2022.2.5,MacIntel,59.93407252,,,,,,,,,,,,124,testing_3,sh2j,a,sh2j_a,sh2j_8_aja.wav,sh2j_1_asha.wav,,FALSE,FALSE,,,,,,,,,,,,,,j,0.2008,space,0.5874,,,,,,,,0,26,26,123,1,,
5a9e9fc46219a30001f54994,2023-06-16_10h23.53.481,phx_ver10,2022.2.5,MacIntel,59.93407252,,,,,,,,,,,,98,testing_3,sh2x,a,sh2x_a,sh2x_8_axa.wav,sh2x_8_axa.wav,,TRUE,FALSE,,,,,,,,,,,,,,f,0.07,space,0.5031,,,,,,,,0,27,27,97,1,,
5a9e9fc46219a30001f54994,2023-06-16_10h23.53.481,phx_ver10,2022.2.5,MacIntel,59.93407252,,,,,,,,,,,,43,testing_3,zh2sh,ei,zh2sh_ei,zh2sh_1_eizhei.wav,zh2sh_8_eishei.wav,,FALSE,FALSE,,,,,,,,,,,,,,j,0.0536,space,0.4689,,,,,,,,0,28,28,42,1,,
5a9e9fc46219a30001f54994,2023-06-16_10h23.53.481,phx_ver10,2022.2.5,MacIntel,59.93407252,,,,,,,,,,,,19,testing_2,zh2x,au,zh2x_au,zh2x_1_auzhau.wav,zh2x_8_auxau.wav,,FALSE,FALSE,,,,,,,,,,,,,,j,0.072,space,0.4852,,,,,,,,0,29,29,18,1,,
5a9e9fc46219a30001f54994,2023-06-16_10h23.53.481,phx_ver10,2022.2.5,MacIntel,59.93407252,,,,,,,,,,,,92,testing_3,j2x,ei,j2x_ei,j2x_8_eixei.wav,j2x_1_eijei.wav,,FALSE,FALSE,,,,,,,,,,,,,,j,0.1362,space,0.5353,,,,,,,,0,30,30,91,1,,
5a9e9fc46219a30001f54994,2023-06-16_10h23.53.481,phx_ver10,2022.2.5,MacIntel,59.93407252,,,,,,,,,,,,76,testing_3,j2x,a,j2x_a,j2x_8_axa.wav,j2x_1_aja.wav,,FALSE,FALSE,,,,,,,,,,,,,,j,0.6369,space,1.0203,,,,,,,,0,31,31,75,1,,
5a9e9fc46219a30001f54994,2023-06-16_10h23.53.481,phx_ver10,2022.2.5,MacIntel,59.93407252,,,,,,,,,,,,93,testing_3,j2x,i,j2x_i,j2x_1_iji.wav,j2x_1_iji.wav,,TRUE,FALSE,,,,,,,,,,,,,,f,0.5008,space,0.8695,,,,,,,,0,32,32,92,1,,
5a9e9fc46219a30001f54994,2023-06-16_10h23.53.481,phx_ver10,2022.2.5,MacIntel,59.93407252,,,,,,,,,,,,79,testing_3,j2x,ai,j2x_ai,j2x_1_aijai.wav,j2x_8_aixai.wav,,FALSE,FALSE,,,,,,,,,,,,,,j,0.1011,space,0.5201,,,,,,,,0,33,33,78,1,,
5a9e9fc46219a30001f54994,2023-06-16_10h23.53.481,phx_ver10,2022.2.5,MacIntel,59.93407252,,,,,,,,,,,,45,testing_3,zh2sh,i,zh2sh_i,zh2sh_1_izhi.wav,zh2sh_1_izhi.wav,,TRUE,FALSE,,,,,,,,,,,,,,f,0.4032,space,0.7696,,,,,,,,0,34,34,44,1,,
5a9e9fc46219a30001f54994,2023-06-16_10h23.53.481,phx_ver10,2022.2.5,MacIntel,59.93407252,,,,,,,,,,,,74,testing_3,j2x,a,j2x_a,j2x_8_axa.wav,j2x_8_axa.wav,,TRUE,FALSE,,,,,,,,,,,,,,f,0.2834,space,0.7034,,,,,,,,0,35,35,73,1,,
5a9e9fc46219a30001f54994,2023-06-16_10h23.53.481,phx_ver10,2022.2.5,MacIntel,59.93407252,,,,,,,,,,,,83,testing_3,j2x,au,j2x_au,j2x_1_aujau.wav,j2x_8_auxau.wav,,FALSE,FALSE,,,,,,,,,,,,,,j,0.0511,space,0.4843,,,,,,,,0,36,36,82,1,,
5a9e9fc46219a30001f54994,2023-06-16_10h23.53.481,phx_ver10,2022.2.5,MacIntel,59.93407252,,,,,,,,,,,,46,testing_3,zh2sh,i,zh2sh_i,zh2sh_8_ishi.wav,zh2sh_8_ishi.wav,,TRUE,FALSE,,,,,,,,,,,,,,f,0.4354,space,0.7874,,,,,,,,0,37,37,45,1,,
5a9e9fc46219a30001f54994,2023-06-16_10h23.53.481,phx_ver10,2022.2.5,MacIntel,59.93407252,,,,,,,,,,,,55,testing_3,zh2j,ai,zh2j_ai,zh2j_1_aizhai.wav,zh2j_8_aijai.wav,,FALSE,FALSE,,,,,,,,,,,,,,f,0.1014,space,0.4671,,,,,,,,0,38,38,54,1,,
5a9e9fc46219a30001f54994,2023-06-16_10h23.53.481,phx_ver10,2022.2.5,MacIntel,59.93407252,,,,,,,,,,,,21,testing_2,zh2x,ei,zh2x_ei,zh2x_1_eizhei.wav,zh2x_1_eizhei.wav,,TRUE,FALSE,,,,,,,,,,,,,,f,0.4014,space,0.7697,,,,,,,,0,39,39,20,1,,
5a9e9fc46219a30001f54994,2023-06-16_10h23.53.481,phx_ver10,2022.2.5,MacIntel,59.93407252,,,,,,,,,,,,50,testing_3,zh2j,a,zh2j_a,zh2j_8_aja.wav,zh2j_8_aja.wav,,TRUE,FALSE,,,,,,,,,,,,,,f,1.0065,space,1.3699,,,,,,,,0,40,40,49,1,,
5a9e9fc46219a30001f54994,2023-06-16_10h23.53.481,phx_ver10,2022.2.5,MacIntel,59.93407252,,,,,,,,,,,,20,testing_2,zh2x,au,zh2x_au,zh2x_8_auxau.wav,zh2x_1_auzhau.wav,,FALSE,FALSE,,,,,,,,,,,,,,j,0.4374,space,0.8376,,,,,,,,0,41,41,19,1,,
5a9e9fc46219a30001f54994,2023-06-16_10h23.53.481,phx_ver10,2022.2.5,MacIntel,59.93407252,,,,,,,,,,,,131,testing_3,sh2j,au,sh2j_au,sh2j_1_aushau.wav,sh2j_8_aujau.wav,,FALSE,FALSE,,,,,,,,,,,,,,j,0.384,space,0.7702,,,,,,,,0,42,42,130,1,,
5a9e9fc46219a30001f54994,2023-06-16_10h23.53.481,phx_ver10,2022.2.5,MacIntel,59.93407252,,,,,,,,,,,,68,testing_3,zh2j,ei,zh2j_ei,zh2j_8_eijei.wav,zh2j_1_eizhei.wav,,FALSE,FALSE,,,,,,,,,,,,,,f,0.084,space,0.5012,,,,,,,,0,43,43,67,1,,
5a9e9fc46219a30001f54994,2023-06-16_10h23.53.481,phx_ver10,2022.2.5,MacIntel,59.93407252,,,,,,,,,,,,78,testing_3,j2x,ai,j2x_ai,j2x_8_aixai.wav,j2x_8_aixai.wav,,TRUE,FALSE,,,,,,,,,,,,,,f,0.0197,space,0.4005,,,,,,,,0,44,44,77,1,,
5a9e9fc46219a30001f54994,2023-06-16_10h23.53.481,phx_ver10,2022.2.5,MacIntel,59.93407252,,,,,,,,,,,,105,testing_3,sh2x,au,sh2x_au,sh2x_1_aushau.wav,sh2x_1_aushau.wav,,TRUE,FALSE,,,,,,,,,,,,,,f,0.1519,space,0.553,,,,,,,,0,45,45,104,1,,
5a9e9fc46219a30001f54994,2023-06-16_10h23.53.481,phx_ver10,2022.2.5,MacIntel,59.93407252,,,,,,,,,,,,115,testing_3,sh2x,ei,sh2x_ei,sh2x_1_eishei.wav,sh2x_8_eixei.wav,,FALSE,FALSE,,,,,,,,,,,,,,f,0.1527,space,0.5209,,,,,,,,0,46,46,114,1,,
5a9e9fc46219a30001f54994,2023-06-16_10h23.53.481,phx_ver10,2022.2.5,MacIntel,59.93407252,,,,,,,,,,,,85,testing_3,j2x,e,j2x_e,j2x_1_eje.wav,j2x_1_eje.wav,,TRUE,FALSE,,,,,,,,,,,,,,f,0.1021,space,0.4544,,,,,,,,0,47,47,84,1,,
5a9e9fc46219a30001f54994,2023-06-16_10h23.53.481,phx_ver10,2022.2.5,MacIntel,59.93407252,,,,,,,,,,,,103,testing_3,sh2x,ai,sh2x_ai,sh2x_1_aishai.wav,sh2x_8_aixai.wav,,FALSE,FALSE,,,,,,,,,,,,,,j,0.1568,space,0.5693,,,,,,,,0,48,48,102,1,,
5a9e9fc46219a30001f54994,2023-06-16_10h23.53.481,phx_ver10,2022.2.5,MacIntel,59.93407252,,,,,,,,,,,,27,testing_3,zh2sh,a,zh2sh_a,zh2sh_1_azha.wav,zh2sh_8_asha.wav,,FALSE,FALSE,,,,,,,,,,,,,,j,0.1011,space,0.4696,,,,,,,,0,49,49,26,1,,
5a9e9fc46219a30001f54994,2023-06-16_10h23.53.481,phx_ver10,2022.2.5,MacIntel,59.93407252,,,,,,,,,,,,13,testing_2,zh2x,ai,zh2x_ai,zh2x_1_aizhai.wav,zh2x_1_aizhai.wav,,TRUE,FALSE,,,,,,,,,,,,,,f,0.9363,space,1.1693,,,,,,,,0,50,50,12,1,,
5a9e9fc46219a30001f54994,2023-06-16_10h23.53.481,phx_ver10,2022.2.5,MacIntel,59.93407252,,,,,,,,,,,,53,testing_3,zh2j,ai,zh2j_ai,zh2j_1_aizhai.wav,zh2j_1_aizhai.wav,,TRUE,FALSE,,,,,,,,,,,,,,f,0.1203,space,0.5027,,,,,,,,0,51,51,52,1,,
5a9e9fc46219a30001f54994,2023-06-16_10h23.53.481,phx_ver10,2022.2.5,MacIntel,59.93407252,,,,,,,,,,,,132,testing_3,sh2j,au,sh2j_au,sh2j_8_aujau.wav,sh2j_1_aushau.wav,,FALSE,FALSE,,,,,,,,,,,,,,j,0.0534,space,0.4681,,,,,,,,0,52,52,131,1,,
5a9e9fc46219a30001f54994,2023-06-16_10h23.53.481,phx_ver10,2022.2.5,MacIntel,59.93407252,,,,,,,,,,,,44,testing_3,zh2sh,ei,zh2sh_ei,zh2sh_8_eishei.wav,zh2sh_1_eizhei.wav,,FALSE,FALSE,,,,,,,,,,,,,,j,0.1861,space,0.6887,,,,,,,,0,53,53,43,1,,
5a9e9fc46219a30001f54994,2023-06-16_10h23.53.481,phx_ver10,2022.2.5,MacIntel,59.93407252,,,,,,,,,,,,118,testing_3,sh2x,i,sh2x_i,sh2x_8_ixi.wav,sh2x_8_ixi.wav,,TRUE,FALSE,,,,,,,,,,,,,,f,0.0671,space,0.4864,,,,,,,,0,54,54,117,1,,
5a9e9fc46219a30001f54994,2023-06-16_10h23.53.481,phx_ver10,2022.2.5,MacIntel,59.93407252,,,,,,,,,,,,113,testing_3,sh2x,ei,sh2x_ei,sh2x_1_eishei.wav,sh2x_1_eishei.wav,,TRUE,FALSE,,,,,,,,,,,,,,f,0.4026,space,0.771,,,,,,,,0,55,55,112,1,,
5a9e9fc46219a30001f54994,2023-06-16_10h23.53.481,phx_ver10,2022.2.5,MacIntel,59.93407252,,,,,,,,,,,,102,testing_3,sh2x,ai,sh2x_ai,sh2x_8_aixai.wav,sh2x_8_aixai.wav,,TRUE,FALSE,,,,,,,,,,,,,,f,0.3678,space,0.7182,,,,,,,,0,56,56,101,1,,
5a9e9fc46219a30001f54994,2023-06-16_10h23.53.481,phx_ver10,2022.2.5,MacIntel,59.93407252,,,,,,,,,,,,35,testing_3,zh2sh,au,zh2sh_au,zh2sh_1_auzhau.wav,zh2sh_8_aushau.wav,,FALSE,FALSE,,,,,,,,,,,,,,j,0.3697,space,0.7532,,,,,,,,0,57,57,34,1,,
5a9e9fc46219a30001f54994,2023-06-16_10h23.53.481,phx_ver10,2022.2.5,MacIntel,59.93407252,,,,,,,,,,,,97,testing_3,sh2x,a,sh2x_a,sh2x_1_asha.wav,sh2x_1_asha.wav,,TRUE,FALSE,,,,,,,,,,,,,,j,0.4864,space,0.8853,,,,,,,,0,58,58,96,1,,
5a9e9fc46219a30001f54994,2023-06-16_10h23.53.481,phx_ver10,2022.2.5,MacIntel,59.93407252,,,,,,,,,,,,4,testing_1,zh2x,a,zh2x_a,zh2x_8_axa.wav,zh2x_1_azha.wav,,FALSE,TRUE,,,,,,,,,,,,,,j,0.5351,space,0.618,,,,,,,,0,59,59,3,1,,
5a9e9fc46219a30001f54994,2023-06-16_10h23.53.481,phx_ver10,2022.2.5,MacIntel,59.93407252,,,,,,,,,,,,139,testing_3,sh2j,ei,sh2j_ei,sh2j_1_eishei.wav,sh2j_8_eijei.wav,,FALSE,FALSE,,,,,,,,,,,,,,j,0.0543,space,0.4685,,,,,,,,0,60,60,138,1,,
5a9e9fc46219a30001f54994,2023-06-16_10h23.53.481,phx_ver10,2022.2.5,MacIntel,59.93407252,,,,,,,,,,,,94,testing_3,j2x,i,j2x_i,j2x_8_ixi.wav,j2x_8_ixi.wav,,TRUE,FALSE,,,,,,,,,,,,,,f,0.1844,space,0.6041,,,,,,,,0,61,61,93,1,,
5a9e9fc46219a30001f54994,2023-06-16_10h23.53.481,phx_ver10,2022.2.5,MacIntel,59.93407252,,,,,,,,,,,,3,testing_1,zh2x,a,zh2x_a,zh2x_1_azha.wav,zh2x_8_axa.wav,,FALSE,TRUE,,,,,,,,,,,,,,j,0.5531,space,0.9021,,,,,,,,0,62,62,2,1,,
5a9e9fc46219a30001f54994,2023-06-16_10h23.53.481,phx_ver10,2022.2.5,MacIntel,59.93407252,,,,,,,,,,,,122,testing_3,sh2j,a,sh2j_a,sh2j_8_aja.wav,sh2j_8_aja.wav,,TRUE,FALSE,,,,,,,,,,,,,,f,0.2208,space,0.5852,,,,,,,,0,63,63,121,1,,
5a9e9fc46219a30001f54994,2023-06-16_10h23.53.481,phx_ver10,2022.2.5,MacIntel,59.93407252,,,,,,,,,,,,18,testing_2,zh2x,au,zh2x_au,zh2x_8_auxau.wav,zh2x_8_auxau.wav,,TRUE,FALSE,,,,,,,,,,,,,,j,0.1871,space,0.8186,,,,,,,,0,64,64,17,1,,
5a9e9fc46219a30001f54994,2023-06-16_10h23.53.481,phx_ver10,2022.2.5,MacIntel,59.93407252,,,,,,,,,,,,106,testing_3,sh2x,au,sh2x_au,sh2x_8_auxau.wav,sh2x_8_auxau.wav,,TRUE,FALSE,,,,,,,,,,,,,,f,0.0712,space,0.4352,,,,,,,,0,65,65,105,1,,
5a9e9fc46219a30001f54994,2023-06-16_10h23.53.481,phx_ver10,2022.2.5,MacIntel,59.93407252,,,,,,,,,,,,66,testing_3,zh2j,ei,zh2j_ei,zh2j_8_eijei.wav,zh2j_8_eijei.wav,,TRUE,FALSE,,,,,,,,,,,,,,f,0.3033,space,0.6535,,,,,,,,0,66,66,65,1,,
5a9e9fc46219a30001f54994,2023-06-16_10h23.53.481,phx_ver10,2022.2.5,MacIntel,59.93407252,,,,,,,,,,,,60,testing_3,zh2j,au,zh2j_au,zh2j_8_aujau.wav,zh2j_1_auzhau.wav,,FALSE,FALSE,,,,,,,,,,,,,,j,0.2176,space,0.6708,,,,,,,,0,67,67,59,1,,
5a9e9fc46219a30001f54994,2023-06-16_10h23.53.481,phx_ver10,2022.2.5,MacIntel,59.93407252,,,,,,,,,,,,67,testing_3,zh2j,ei,zh2j_ei,zh2j_1_eizhei.wav,zh2j_8_eijei.wav,,FALSE,FALSE,,,,,,,,,,,,,,f,0.086,space,0.4357,,,,,,,,0,68,68,66,1,,
5a9e9fc46219a30001f54994,2023-06-16_10h23.53.481,phx_ver10,2022.2.5,MacIntel,59.93407252,,,,,,,,,,,,28,testing_3,zh2sh,a,zh2sh_a,zh2sh_8_asha.wav,zh2sh_1_azha.wav,,FALSE,FALSE,,,,,,,,,,,,,,j,0.1007,space,0.4509,,,,,,,,0,69,69,27,1,,
5a9e9fc46219a30001f54994,2023-06-16_10h23.53.481,phx_ver10,2022.2.5,MacIntel,59.93407252,,,,,,,,,,,,34,testing_3,zh2sh,au,zh2sh_au,zh2sh_8_aushau.wav,zh2sh_8_aushau.wav,,TRUE,FALSE,,,,,,,,,,,,,,f,0.4193,space,0.7378,,,,,,,,0,70,70,33,1,,
5a9e9fc46219a30001f54994,2023-06-16_10h23.53.481,phx_ver10,2022.2.5,MacIntel,59.93407252,,,,,,,,,,,,96,testing_3,j2x,i,j2x_i,j2x_8_ixi.wav,j2x_1_iji.wav,,FALSE,FALSE,,,,,,,,,,,,,,f,0.437,space,0.7381,,,,,,,,0,71,71,95,1,,
5a9e9fc46219a30001f54994,2023-06-16_10h23.53.481,phx_ver10,2022.2.5,MacIntel,59.93407252,,,,,,,,,,,,133,testing_3,sh2j,e,sh2j_e,sh2j_1_eshe.wav,sh2j_1_eshe.wav,,TRUE,FALSE,,,,,,,,,,,,,,f,0.3852,space,0.7515,,,,,,,,0,72,72,132,1,,
5a9e9fc46219a30001f54994,2023-06-16_10h23.53.481,phx_ver10,2022.2.5,MacIntel,59.93407252,,,,,,,,,,,,29,testing_3,zh2sh,ai,zh2sh_ai,zh2sh_1_aizhai.wav,zh2sh_1_aizhai.wav,,TRUE,FALSE,,,,,,,,,,,,,,f,0.1343,space,0.4873,,,,,,,,0,73,73,28,1,,
5a9e9fc46219a30001f54994,2023-06-16_10h23.53.481,phx_ver10,2022.2.5,MacIntel,59.93407252,,,,,,,,,,,,88,testing_3,j2x,e,j2x_e,j2x_8_exe.wav,j2x_1_eje.wav,,FALSE,FALSE,,,,,,,,,,,,,,j,0.2697,space,0.6351,,,,,,,,0,74,74,87,1,,
5a9e9fc46219a30001f54994,2023-06-16_10h23.53.481,phx_ver10,2022.2.5,MacIntel,59.93407252,,,,,,,,,,,,141,testing_3,sh2j,i,sh2j_i,sh2j_1_ishi.wav,sh2j_1_ishi.wav,,TRUE,FALSE,,,,,,,,,,,,,,f,0.7711,space,1.1183,,,,,,,,0,75,75,140,1,,
5a9e9fc46219a30001f54994,2023-06-16_10h23.53.481,phx_ver10,2022.2.5,MacIntel,59.93407252,,,,,,,,,,,,107,testing_3,sh2x,au,sh2x_au,sh2x_1_aushau.wav,sh2x_8_auxau.wav,,FALSE,FALSE,,,,,,,,,,,,,,j,0.3521,space,0.6853,,,,,,,,0,76,76,106,1,,
5a9e9fc46219a30001f54994,2023-06-16_10h23.53.481,phx_ver10,2022.2.5,MacIntel,59.93407252,,,,,,,,,,,,138,testing_3,sh2j,ei,sh2j_ei,sh2j_8_eijei.wav,sh2j_8_eijei.wav,,TRUE,FALSE,,,,,,,,,,,,,,f,0.1011,space,0.4208,,,,,,,,0,77,77,137,1,,
5a9e9fc46219a30001f54994,2023-06-16_10h23.53.481,phx_ver10,2022.2.5,MacIntel,59.93407252,,,,,,,,,,,,99,testing_3,sh2x,a,sh2x_a,sh2x_1_asha.wav,sh2x_8_axa.wav,,FALSE,FALSE,,,,,,,,,,,,,,j,0.0846,space,0.4541,,,,,,,,0,78,78,98,1,,
5a9e9fc46219a30001f54994,2023-06-16_10h23.53.481,phx_ver10,2022.2.5,MacIntel,59.93407252,,,,,,,,,,,,24,testing_2,zh2x,ei,zh2x_ei,zh2x_8_eixei.wav,zh2x_1_eizhei.wav,,FALSE,FALSE,,,,,,,,,,,,,,j,0.3382,space,0.6691,,,,,,,,0,79,79,23,1,,
5a9e9fc46219a30001f54994,2023-06-16_10h23.53.481,phx_ver10,2022.2.5,MacIntel,59.93407252,,,,,,,,,,,,111,testing_3,sh2x,e,sh2x_e,sh2x_1_eshe.wav,sh2x_8_exe.wav,,FALSE,FALSE,,,,,,,,,,,,,,j,0.2354,space,0.6015,,,,,,,,0,80,80,110,1,,
5a9e9fc46219a30001f54994,2023-06-16_10h23.53.481,phx_ver10,2022.2.5,MacIntel,59.93407252,,,,,,,,,,,,12,testing_1,zh2x,i,zh2x_i,zh2x_8_ixi.wav,zh2x_1_izhi.wav,,FALSE,TRUE,,,,,,,,,,,,,,f,0.4338,space,0.8063,,,,,,,,0,81,81,11,1,,
5a9e9fc46219a30001f54994,2023-06-16_10h23.53.481,phx_ver10,2022.2.5,MacIntel,59.93407252,,,,,,,,,,,,59,testing_3,zh2j,au,zh2j_au,zh2j_1_auzhau.wav,zh2j_8_aujau.wav,,FALSE,FALSE,,,,,,,,,,,,,,j,0.2375,space,0.6021,,,,,,,,0,82,82,58,1,,
5a9e9fc46219a30001f54994,2023-06-16_10h23.53.481,phx_ver10,2022.2.5,MacIntel,59.93407252,,,,,,,,,,,,104,testing_3,sh2x,ai,sh2x_ai,sh2x_8_aixai.wav,sh2x_1_aishai.wav,,FALSE,FALSE,,,,,,,,,,,,,,j,0.0518,space,0.435,,,,,,,,0,83,83,103,1,,
5a9e9fc46219a30001f54994,2023-06-16_10h23.53.481,phx_ver10,2022.2.5,MacIntel,59.93407252,,,,,,,,,,,,116,testing_3,sh2x,ei,sh2x_ei,sh2x_8_eixei.wav,sh2x_1_eishei.wav,,FALSE,FALSE,,,,,,,,,,,,,,j,0.3362,space,0.6716,,,,,,,,0,84,84,115,1,,
5a9e9fc46219a30001f54994,2023-06-16_10h23.53.481,phx_ver10,2022.2.5,MacIntel,59.93407252,,,,,,,,,,,,2,testing_1,zh2x,a,zh2x_a,zh2x_8_axa.wav,zh2x_8_axa_copy.wav,,TRUE,TRUE,,,,,,,,,,,,,,f,0.1013,space,0.4697,,,,,,,,0,85,85,1,1,,
5a9e9fc46219a30001f54994,2023-06-16_10h23.53.481,phx_ver10,2022.2.5,MacIntel,59.93407252,,,,,,,,,,,,80,testing_3,j2x,ai,j2x_ai,j2x_8_aixai.wav,j2x_1_aijai.wav,,FALSE,FALSE,,,,,,,,,,,,,,j,0.1506,space,0.5366,,,,,,,,0,86,86,79,1,,
5a9e9fc46219a30001f54994,2023-06-16_10h23.53.481,phx_ver10,2022.2.5,MacIntel,59.93407252,,,,,,,,,,,,144,testing_3,sh2j,i,sh2j_i,sh2j_8_iji.wav,sh2j_1_ishi.wav,,FALSE,FALSE,,,,,,,,,,,,,,j,0.4353,space,0.7882,,,,,,,,0,87,87,143,1,,
5a9e9fc46219a30001f54994,2023-06-16_10h23.53.481,phx_ver10,2022.2.5,MacIntel,59.93407252,,,,,,,,,,,,119,testing_3,sh2x,i,sh2x_i,sh2x_1_ishi.wav,sh2x_8_ixi.wav,,FALSE,FALSE,,,,,,,,,,,,,,f,0.3711,space,0.7517,,,,,,,,0,88,88,118,1,,
5a9e9fc46219a30001f54994,2023-06-16_10h23.53.481,phx_ver10,2022.2.5,MacIntel,59.93407252,,,,,,,,,,,,69,testing_3,zh2j,i,zh2j_i,zh2j_1_izhi.wav,zh2j_1_izhi.wav,,TRUE,FALSE,,,,,,,,,,,,,,f,0.021,space,0.405,,,,,,,,0,89,89,68,1,,
5a9e9fc46219a30001f54994,2023-06-16_10h23.53.481,phx_ver10,2022.2.5,MacIntel,59.93407252,,,,,,,,,,,,54,testing_3,zh2j,ai,zh2j_ai,zh2j_8_aijai.wav,zh2j_8_aijai.wav,,TRUE,FALSE,,,,,,,,,,,,,,f,0.0702,space,0.4172,,,,,,,,0,90,90,53,1,,
5a9e9fc46219a30001f54994,2023-06-16_10h23.53.481,phx_ver10,2022.2.5,MacIntel,59.93407252,,,,,,,,,,,,15,testing_2,zh2x,ai,zh2x_ai,zh2x_1_aizhai.wav,zh2x_8_aixai.wav,,FALSE,FALSE,,,,,,,,,,,,,,j,0.4513,space,0.8234,,,,,,,,0,91,91,14,1,,
5a9e9fc46219a30001f54994,2023-06-16_10h23.53.481,phx_ver10,2022.2.5,MacIntel,59.93407252,,,,,,,,,,,,117,testing_3,sh2x,i,sh2x_i,sh2x_1_ishi.wav,sh2x_1_ishi.wav,,TRUE,FALSE,,,,,,,,,,,,,,f,0.1376,space,0.5016,,,,,,,,0,92,92,116,1,,
5a9e9fc46219a30001f54994,2023-06-16_10h23.53.481,phx_ver10,2022.2.5,MacIntel,59.93407252,,,,,,,,,,,,73,testing_3,j2x,a,j2x_a,j2x_1_aja.wav,j2x_1_aja.wav,,TRUE,FALSE,,,,,,,,,,,,,,f,0.0004,space,0.3687,,,,,,,,0,93,93,72,1,,
5a9e9fc46219a30001f54994,2023-06-16_10h23.53.481,phx_ver10,2022.2.5,MacIntel,59.93407252,,,,,,,,,,,,140,testing_3,sh2j,ei,sh2j_ei,sh2j_8_eijei.wav,sh2j_1_eishei.wav,,FALSE,FALSE,,,,,,,,,,,,,,j,0.4355,space,0.7523,,,,,,,,0,94,94,139,1,,
5a9e9fc46219a30001f54994,2023-06-16_10h23.53.481,phx_ver10,2022.2.5,MacIntel,59.93407252,,,,,,,,,,,,130,testing_3,sh2j,au,sh2j_au,sh2j_8_aujau.wav,sh2j_8_aujau.wav,,TRUE,FALSE,,,,,,,,,,,,,,f,0.9719,space,1.3551,,,,,,,,0,95,95,129,1,,
5a9e9fc46219a30001f54994,2023-06-16_10h23.53.481,phx_ver10,2022.2.5,MacIntel,59.93407252,,,,,,,,,,,,126,testing_3,sh2j,ai,sh2j_ai,sh2j_8_aijai.wav,sh2j_8_aijai.wav,,TRUE,FALSE,,,,,,,,,,,,,,f,0.3676,space,0.7054,,,,,,,,0,96,96,125,1,,
5a9e9fc46219a30001f54994,2023-06-16_10h23.53.481,phx_ver10,2022.2.5,MacIntel,59.93407252,,,,,,,,,,,,62,testing_3,zh2j,e,zh2j_e,zh2j_8_eje.wav,zh2j_8_eje.wav,,TRUE,FALSE,,,,,,,,,,,,,,f,0.1026,space,0.4894,,,,,,,,0,97,97,61,1,,
5a9e9fc46219a30001f54994,2023-06-16_10h23.53.481,phx_ver10,2022.2.5,MacIntel,59.93407252,,,,,,,,,,,,109,testing_3,sh2x,e,sh2x_e,sh2x_1_eshe.wav,sh2x_1_eshe.wav,,TRUE,FALSE,,,,,,,,,,,,,,f,0.0026,space,0.3713,,,,,,,,0,98,98,108,1,,
5a9e9fc46219a30001f54994,2023-06-16_10h23.53.481,phx_ver10,2022.2.5,MacIntel,59.93407252,,,,,,,,,,,,71,testing_3,zh2j,i,zh2j_i,zh2j_1_izhi.wav,zh2j_8_iji.wav,,FALSE,FALSE,,,,,,,,,,,,,,j,1.2381,space,1.5025,,,,,,,,0,99,99,70,1,,
5a9e9fc46219a30001f54994,2023-06-16_10h23.53.481,phx_ver10,2022.2.5,MacIntel,59.93407252,,,,,,,,,,,,30,testing_3,zh2sh,ai,zh2sh_ai,zh2sh_8_aishai.wav,zh2sh_8_aishai.wav,,TRUE,FALSE,,,,,,,,,,,,,,f,0.3855,space,0.8186,,,,,,,,0,100,100,29,1,,
5a9e9fc46219a30001f54994,2023-06-16_10h23.53.481,phx_ver10,2022.2.5,MacIntel,59.93407252,,,,,,,,,,,,23,testing_2,zh2x,ei,zh2x_ei,zh2x_1_eizhei.wav,zh2x_8_eixei.wav,,FALSE,FALSE,,,,,,,,,,,,,,j,0.3372,space,0.7174,,,,,,,,0,101,101,22,1,,
5a9e9fc46219a30001f54994,2023-06-16_10h23.53.481,phx_ver10,2022.2.5,MacIntel,59.93407252,,,,,,,,,,,,1,testing_1,zh2x,a,zh2x_a,zh2x_1_azha.wav,zh2x_1_azha_copy.wav,,TRUE,TRUE,,,,,,,,,,,,,,f,0.2038,space,0.5681,,,,,,,,0,102,102,0,1,,
5a9e9fc46219a30001f54994,2023-06-16_10h23.53.481,phx_ver10,2022.2.5,MacIntel,59.93407252,,,,,,,,,,,,56,testing_3,zh2j,ai,zh2j_ai,zh2j_8_aijai.wav,zh2j_1_aizhai.wav,,FALSE,FALSE,,,,,,,,,,,,,,j,0.1187,space,0.4852,,,,,,,,0,103,103,55,1,,
5a9e9fc46219a30001f54994,2023-06-16_10h23.53.481,phx_ver10,2022.2.5,MacIntel,59.93407252,,,,,,,,,,,,136,testing_3,sh2j,e,sh2j_e,sh2j_8_eje.wav,sh2j_1_eshe.wav,,FALSE,FALSE,,,,,,,,,,,,,,j,0.3193,space,0.6844,,,,,,,,0,104,104,135,1,,
5a9e9fc46219a30001f54994,2023-06-16_10h23.53.481,phx_ver10,2022.2.5,MacIntel,59.93407252,,,,,,,,,,,,143,testing_3,sh2j,i,sh2j_i,sh2j_1_ishi.wav,sh2j_8_iji.wav,,FALSE,FALSE,,,,,,,,,,,,,,j,0.0706,space,0.5687,,,,,,,,0,105,105,142,1,,
5a9e9fc46219a30001f54994,2023-06-16_10h23.53.481,phx_ver10,2022.2.5,MacIntel,59.93407252,,,,,,,,,,,,49,testing_3,zh2j,a,zh2j_a,zh2j_1_azha.wav,zh2j_1_azha.wav,,TRUE,FALSE,,,,,,,,,,,,,,f,0.5184,space,0.9044,,,,,,,,0,106,106,48,1,,
5a9e9fc46219a30001f54994,2023-06-16_10h23.53.481,phx_ver10,2022.2.5,MacIntel,59.93407252,,,,,,,,,,,,22,testing_2,zh2x,ei,zh2x_ei,zh2x_8_eixei.wav,zh2x_8_eixei.wav,,TRUE,FALSE,,,,,,,,,,,,,,f,0.0213,space,0.438,,,,,,,,0,107,107,21,1,,
5a9e9fc46219a30001f54994,2023-06-16_10h23.53.481,phx_ver10,2022.2.5,MacIntel,59.93407252,,,,,,,,,,,,123,testing_3,sh2j,a,sh2j_a,sh2j_1_asha.wav,sh2j_8_aja.wav,,FALSE,FALSE,,,,,,,,,,,,,,j,0.0873,space,0.5184,,,,,,,,0,108,108,122,1,,
5a9e9fc46219a30001f54994,2023-06-16_10h23.53.481,phx_ver10,2022.2.5,MacIntel,59.93407252,,,,,,,,,,,,91,testing_3,j2x,ei,j2x_ei,j2x_1_eijei.wav,j2x_8_eixei.wav,,FALSE,FALSE,,,,,,,,,,,,,,j,0.4544,space,0.8505,,,,,,,,0,109,109,90,1,,
5a9e9fc46219a30001f54994,2023-06-16_10h23.53.481,phx_ver10,2022.2.5,MacIntel,59.93407252,,,,,,,,,,,,112,testing_3,sh2x,e,sh2x_e,sh2x_8_exe.wav,sh2x_1_eshe.wav,,FALSE,FALSE,,,,,,,,,,,,,,j,0.4014,space,0.7515,,,,,,,,0,110,110,111,1,,
5a9e9fc46219a30001f54994,2023-06-16_10h23.53.481,phx_ver10,2022.2.5,MacIntel,59.93407252,,,,,,,,,,,,86,testing_3,j2x,e,j2x_e,j2x_8_exe.wav,j2x_8_exe.wav,,TRUE,FALSE,,,,,,,,,,,,,,f,0.1179,space,0.5175,,,,,,,,0,111,111,85,1,,
5a9e9fc46219a30001f54994,2023-06-16_10h23.53.481,phx_ver10,2022.2.5,MacIntel,59.93407252,,,,,,,,,,,,90,testing_3,j2x,ei,j2x_ei,j2x_8_eixei.wav,j2x_8_eixei.wav,,TRUE,FALSE,,,,,,,,,,,,,,f,0.1378,space,0.5184,,,,,,,,0,112,112,89,1,,
5a9e9fc46219a30001f54994,2023-06-16_10h23.53.481,phx_ver10,2022.2.5,MacIntel,59.93407252,,,,,,,,,,,,137,testing_3,sh2j,ei,sh2j_ei,sh2j_1_eishei.wav,sh2j_1_eishei.wav,,TRUE,FALSE,,,,,,,,,,,,,,f,0.1695,space,0.5041,,,,,,,,0,113,113,136,1,,
5a9e9fc46219a30001f54994,2023-06-16_10h23.53.481,phx_ver10,2022.2.5,MacIntel,59.93407252,,,,,,,,,,,,11,testing_1,zh2x,i,zh2x_i,zh2x_1_izhi.wav,zh2x_8_ixi.wav,,FALSE,TRUE,,,,,,,,,,,,,,j,0.0207,space,0.3706,,,,,,,,0,114,114,10,1,,
5a9e9fc46219a30001f54994,2023-06-16_10h23.53.481,phx_ver10,2022.2.5,MacIntel,59.93407252,,,,,,,,,,,,57,testing_3,zh2j,au,zh2j_au,zh2j_1_auzhau.wav,zh2j_1_auzhau.wav,,TRUE,FALSE,,,,,,,,,,,,,,f,0.0534,space,0.504,,,,,,,,0,115,115,56,1,,
5a9e9fc46219a30001f54994,2023-06-16_10h23.53.481,phx_ver10,2022.2.5,MacIntel,59.93407252,,,,,,,,,,,,36,testing_3,zh2sh,au,zh2sh_au,zh2sh_8_aushau.wav,zh2sh_1_auzhau.wav,,FALSE,FALSE,,,,,,,,,,,,,,j,0.3515,space,0.6885,,,,,,,,0,116,116,35,1,,
5a9e9fc46219a30001f54994,2023-06-16_10h23.53.481,phx_ver10,2022.2.5,MacIntel,59.93407252,,,,,,,,,,,,89,testing_3,j2x,ei,j2x_ei,j2x_1_eijei.wav,j2x_1_eijei.wav,,TRUE,FALSE,,,,,,,,,,,,,,f,0.0337,space,0.4359,,,,,,,,0,117,117,88,1,,
5a9e9fc46219a30001f54994,2023-06-16_10h23.53.481,phx_ver10,2022.2.5,MacIntel,59.93407252,,,,,,,,,,,,48,testing_3,zh2sh,i,zh2sh_i,zh2sh_8_ishi.wav,zh2sh_1_izhi.wav,,FALSE,FALSE,,,,,,,,,,,,,,j,0.0348,space,0.4361,,,,,,,,0,118,118,47,1,,
5a9e9fc46219a30001f54994,2023-06-16_10h23.53.481,phx_ver10,2022.2.5,MacIntel,59.93407252,,,,,,,,,,,,6,testing_1,zh2x,e,zh2x_e,zh2x_8_exe.wav,zh2x_8_exe_copy.wav,,TRUE,TRUE,,,,,,,,,,,,,,f,0.0397,space,0.4361,,,,,,,,0,119,119,5,1,,
5a9e9fc46219a30001f54994,2023-06-16_10h23.53.481,phx_ver10,2022.2.5,MacIntel,59.93407252,,,,,,,,,,,,110,testing_3,sh2x,e,sh2x_e,sh2x_8_exe.wav,sh2x_8_exe.wav,,TRUE,FALSE,,,,,,,,,,,,,,f,0.4011,space,0.7543,,,,,,,,0,120,120,109,1,,
5a9e9fc46219a30001f54994,2023-06-16_10h23.53.481,phx_ver10,2022.2.5,MacIntel,59.93407252,,,,,,,,,,,,52,testing_3,zh2j,a,zh2j_a,zh2j_8_aja.wav,zh2j_1_azha.wav,,FALSE,FALSE,,,,,,,,,,,,,,j,0.3517,space,0.7874,,,,,,,,0,121,121,51,1,,
5a9e9fc46219a30001f54994,2023-06-16_10h23.53.481,phx_ver10,2022.2.5,MacIntel,59.93407252,,,,,,,,,,,,47,testing_3,zh2sh,i,zh2sh_i,zh2sh_1_izhi.wav,zh2sh_8_ishi.wav,,FALSE,FALSE,,,,,,,,,,,,,,j,0.035,space,0.4675,,,,,,,,0,122,122,46,1,,
5a9e9fc46219a30001f54994,2023-06-16_10h23.53.481,phx_ver10,2022.2.5,MacIntel,59.93407252,,,,,,,,,,,,41,testing_3,zh2sh,ei,zh2sh_ei,zh2sh_1_eizhei.wav,zh2sh_1_eizhei.wav,,TRUE,FALSE,,,,,,,,,,,,,,f,0.1361,space,0.6355,,,,,,,,0,123,123,40,1,,
5a9e9fc46219a30001f54994,2023-06-16_10h23.53.481,phx_ver10,2022.2.5,MacIntel,59.93407252,,,,,,,,,,,,38,testing_3,zh2sh,e,zh2sh_e,zh2sh_8_eshe.wav,zh2sh_8_eshe.wav,,TRUE,FALSE,,,,,,,,,,,,,,f,0.4876,space,0.8182,,,,,,,,0,124,124,37,1,,
5a9e9fc46219a30001f54994,2023-06-16_10h23.53.481,phx_ver10,2022.2.5,MacIntel,59.93407252,,,,,,,,,,,,84,testing_3,j2x,au,j2x_au,j2x_8_auxau.wav,j2x_1_aujau.wav,,FALSE,FALSE,,,,,,,,,,,,,,j,0.1712,space,0.6223,,,,,,,,0,125,125,83,1,,
5a9e9fc46219a30001f54994,2023-06-16_10h23.53.481,phx_ver10,2022.2.5,MacIntel,59.93407252,,,,,,,,,,,,7,testing_1,zh2x,e,zh2x_e,zh2x_1_ezhe.wav,zh2x_8_exe.wav,,FALSE,TRUE,,,,,,,,,,,,,,j,0.0862,space,0.4711,,,,,,,,0,126,126,6,1,,
5a9e9fc46219a30001f54994,2023-06-16_10h23.53.481,phx_ver10,2022.2.5,MacIntel,59.93407252,,,,,,,,,,,,75,testing_3,j2x,a,j2x_a,j2x_1_aja.wav,j2x_8_axa.wav,,FALSE,FALSE,,,,,,,,,,,,,,f,0.5188,space,1.2061,,,,,,,,0,127,127,74,1,,
5a9e9fc46219a30001f54994,2023-06-16_10h23.53.481,phx_ver10,2022.2.5,MacIntel,59.93407252,,,,,,,,,,,,31,testing_3,zh2sh,ai,zh2sh_ai,zh2sh_1_aizhai.wav,zh2sh_8_aishai.wav,,FALSE,FALSE,,,,,,,,,,,,,,j,0.0344,space,0.4026,,,,,,,,0,128,128,30,1,,
5a9e9fc46219a30001f54994,2023-06-16_10h23.53.481,phx_ver10,2022.2.5,MacIntel,59.93407252,,,,,,,,,,,,95,testing_3,j2x,i,j2x_i,j2x_1_iji.wav,j2x_8_ixi.wav,,FALSE,FALSE,,,,,,,,,,,,,,j,1.6875,space,2.4517,,,,,,,,0,129,129,94,1,,
5a9e9fc46219a30001f54994,2023-06-16_10h23.53.481,phx_ver10,2022.2.5,MacIntel,59.93407252,,,,,,,,,,,,121,testing_3,sh2j,a,sh2j_a,sh2j_1_asha.wav,sh2j_1_asha.wav,,TRUE,FALSE,,,,,,,,,,,,,,f,0.5011,space,0.9208,,,,,,,,0,130,130,120,1,,
5a9e9fc46219a30001f54994,2023-06-16_10h23.53.481,phx_ver10,2022.2.5,MacIntel,59.93407252,,,,,,,,,,,,10,testing_1,zh2x,i,zh2x_i,zh2x_8_ixi.wav,zh2x_8_ixi_copy.wav,,TRUE,TRUE,,,,,,,,,,,,,,f,0.2861,space,0.7052,,,,,,,,0,131,131,9,1,,
5a9e9fc46219a30001f54994,2023-06-16_10h23.53.481,phx_ver10,2022.2.5,MacIntel,59.93407252,,,,,,,,,,,,40,testing_3,zh2sh,e,zh2sh_e,zh2sh_8_eshe.wav,zh2sh_1_ezhe.wav,,FALSE,FALSE,,,,,,,,,,,,,,j,0.7216,space,1.0865,,,,,,,,0,132,132,39,1,,
5a9e9fc46219a30001f54994,2023-06-16_10h23.53.481,phx_ver10,2022.2.5,MacIntel,59.93407252,,,,,,,,,,,,120,testing_3,sh2x,i,sh2x_i,sh2x_8_ixi.wav,sh2x_1_ishi.wav,,FALSE,FALSE,,,,,,,,,,,,,,j,0.2871,space,0.6373,,,,,,,,0,133,133,119,1,,
5a9e9fc46219a30001f54994,2023-06-16_10h23.53.481,phx_ver10,2022.2.5,MacIntel,59.93407252,,,,,,,,,,,,14,testing_2,zh2x,ai,zh2x_ai,zh2x_8_aixai.wav,zh2x_8_aixai.wav,,TRUE,FALSE,,,,,,,,,,,,,,f,0.0496,space,0.4511,,,,,,,,0,134,134,13,1,,
5a9e9fc46219a30001f54994,2023-06-16_10h23.53.481,phx_ver10,2022.2.5,MacIntel,59.93407252,,,,,,,,,,,,114,testing_3,sh2x,ei,sh2x_ei,sh2x_8_eixei.wav,sh2x_8_eixei.wav,,TRUE,FALSE,,,,,,,,,,,,,,f,0.3862,space,0.737,,,,,,,,0,135,135,113,1,,
5a9e9fc46219a30001f54994,2023-06-16_10h23.53.481,phx_ver10,2022.2.5,MacIntel,59.93407252,,,,,,,,,,,,72,testing_3,zh2j,i,zh2j_i,zh2j_8_iji.wav,zh2j_1_izhi.wav,,FALSE,FALSE,,,,,,,,,,,,,,f,0.2046,space,0.5352,,,,,,,,0,136,136,71,1,,
5a9e9fc46219a30001f54994,2023-06-16_10h23.53.481,phx_ver10,2022.2.5,MacIntel,59.93407252,,,,,,,,,,,,64,testing_3,zh2j,e,zh2j_e,zh2j_8_eje.wav,zh2j_1_ezhe.wav,,FALSE,FALSE,,,,,,,,,,,,,,j,1.0386,space,1.3518,,,,,,,,0,137,137,63,1,,
5a9e9fc46219a30001f54994,2023-06-16_10h23.53.481,phx_ver10,2022.2.5,MacIntel,59.93407252,,,,,,,,,,,,134,testing_3,sh2j,e,sh2j_e,sh2j_8_eje.wav,sh2j_8_eje.wav,,TRUE,FALSE,,,,,,,,,,,,,,f,0.1203,space,0.5035,,,,,,,,0,138,138,133,1,,
5a9e9fc46219a30001f54994,2023-06-16_10h23.53.481,phx_ver10,2022.2.5,MacIntel,59.93407252,,,,,,,,,,,,101,testing_3,sh2x,ai,sh2x_ai,sh2x_1_aishai.wav,sh2x_1_aishai.wav,,TRUE,FALSE,,,,,,,,,,,,,,f,0.1708,space,0.5178,,,,,,,,0,139,139,100,1,,
5a9e9fc46219a30001f54994,2023-06-16_10h23.53.481,phx_ver10,2022.2.5,MacIntel,59.93407252,,,,,,,,,,,,61,testing_3,zh2j,e,zh2j_e,zh2j_1_ezhe.wav,zh2j_1_ezhe.wav,,TRUE,FALSE,,,,,,,,,,,,,,f,0.4706,space,0.7738,,,,,,,,0,140,140,60,1,,
5a9e9fc46219a30001f54994,2023-06-16_10h23.53.481,phx_ver10,2022.2.5,MacIntel,59.93407252,,,,,,,,,,,,81,testing_3,j2x,au,j2x_au,j2x_1_aujau.wav,j2x_1_aujau.wav,,TRUE,FALSE,,,,,,,,,,,,,,f,0.0873,space,0.4568,,,,,,,,0,141,141,80,1,,
5a9e9fc46219a30001f54994,2023-06-16_10h23.53.481,phx_ver10,2022.2.5,MacIntel,59.93407252,,,,,,,,,,,,87,testing_3,j2x,e,j2x_e,j2x_1_eje.wav,j2x_8_exe.wav,,FALSE,FALSE,,,,,,,,,,,,,,j,0.0181,space,0.4198,,,,,,,,0,142,142,86,1,,
5a9e9fc46219a30001f54994,2023-06-16_10h23.53.481,phx_ver10,2022.2.5,MacIntel,59.93407252,,,,,,,,,,,,142,testing_3,sh2j,i,sh2j_i,sh2j_8_iji.wav,sh2j_8_iji.wav,,TRUE,FALSE,,,,,,,,,,,,,,f,0.0005,space,0.3347,,,,,,,,0,143,143,141,1,,
5a9e9fc46219a30001f54994,2023-06-16_10h23.53.481,phx_ver10,2022.2.5,MacIntel,59.93407252,,,,,,,,,,,,,,,,,,,,,,,,,,,,,,,,,,,,,,,,,,,,,,,,,,,space,4.2901
