participant,date,expName,psychopyVersion,OS,frameRate,space_1.keys,space_1.rt,space_2.keys,space_2.rt,space_train.keys,space_train.rt,training.thisRepN,training.thisTrialN,training.thisN,training.thisIndex,training.ran,token_id,task,continuum,vowel,series,sound_1,sound_2,img,same,trained,FJ_attn.keys,FJ_attn.rt,space_attn.keys,space_attn.rt,if_attn_test.thisRepN,if_attn_test.thisTrialN,if_attn_test.thisN,if_attn_test.thisIndex,if_attn_test.ran,space_trans_1.keys,space_trans_1.rt,space_trans_11.keys,space_trans_11.rt,FJ_test.keys,FJ_test.rt,space_test.keys,space_test.rt,testing_pre.thisRepN,testing_pre.thisTrialN,testing_pre.thisN,testing_pre.thisIndex,testing_pre.ran,space_trans_2.keys,space_trans_2.rt,testing_all.thisRepN,testing_all.thisTrialN,testing_all.thisN,testing_all.thisIndex,testing_all.ran,space_ending.keys,space_ending.rt
5aa8ebf089de8200013f8c48,2023-06-16_05h23.22.990,phx_ver10,2022.2.5,Win32,144.2793248,,,,,,,,,,,,,,,,,,,,,,,,,,,,,,,,,,,,,,,,,,,,,,,,,,,,
5aa8ebf089de8200013f8c48,2023-06-16_05h23.22.990,phx_ver10,2022.2.5,Win32,144.2793248,space,11.6956,,,,,,,,,,,,,,,,,,,,,,,,,,,,,,,,,,,,,,,,,,,,,,,,,,
5aa8ebf089de8200013f8c48,2023-06-16_05h23.22.990,phx_ver10,2022.2.5,Win32,144.2793248,,,space,1.6815,,,,,,,,,,,,,,,,,,,,,,,,,,,,,,,,,,,,,,,,,,,,,,,,
5aa8ebf089de8200013f8c48,2023-06-16_05h23.22.990,phx_ver10,2022.2.5,Win32,144.2793248,,,,,space,4.8837,0,0,0,47,1,48,training,zh2x,i,zh2x_i,zh2x_8_ixi.wav,,ixi.jpg,,,,,,,,,,,,,,,,,,,,,,,,,,,,,,,,,
5aa8ebf089de8200013f8c48,2023-06-16_05h23.22.990,phx_ver10,2022.2.5,Win32,144.2793248,,,,,space,3.167,0,1,1,19,1,20,training,zh2x,e,zh2x_e,zh2x_2_ezhe.wav,,ezhe.jpg,,,,,,,,,,,,,,,,,,,,,,,,,,,,,,,,,
5aa8ebf089de8200013f8c48,2023-06-16_05h23.22.990,phx_ver10,2022.2.5,Win32,144.2793248,,,,,space,3.2995,0,2,2,26,1,27,training,zh2x,e,zh2x_e,zh2x_6_exe.wav,,exe.jpg,,,,,,,,,,,,,,,,,,,,,,,,,,,,,,,,,
5aa8ebf089de8200013f8c48,2023-06-16_05h23.22.990,phx_ver10,2022.2.5,Win32,144.2793248,,,,,space,3.6335,0,3,3,11,1,12,training,zh2x,a,zh2x_a,zh2x_7_axa.wav,,axa.jpg,,,,,,,,,,,,,,,,,,,,,,,,,,,,,,,,,
5aa8ebf089de8200013f8c48,2023-06-16_05h23.22.990,phx_ver10,2022.2.5,Win32,144.2793248,,,,,space,5.1838,0,4,4,31,1,32,training,zh2x,e,zh2x_e,zh2x_8_exe.wav,,exe.jpg,,,,,,,,,,,,,,,,,,,,,,,,,,,,,,,,,
5aa8ebf089de8200013f8c48,2023-06-16_05h23.22.990,phx_ver10,2022.2.5,Win32,144.2793248,,,,,space,4.0501,0,5,5,38,1,39,training,zh2x,i,zh2x_i,zh2x_3_izhi.wav,,izhi.jpg,,,,,,,,,,,,,,,,,,,,,,,,,,,,,,,,,
5aa8ebf089de8200013f8c48,2023-06-16_05h23.22.990,phx_ver10,2022.2.5,Win32,144.2793248,,,,,,,,,,,,,attn_test,,,,zh2x_8_exe.wav,zh2x_8_ixi.wav,exe.jpg,LEFT,,f,13.6331,space,19.2662,0,0,0,0,1,,,,,,,,,,,,,,,,,,,,,,
5aa8ebf089de8200013f8c48,2023-06-16_05h23.22.990,phx_ver10,2022.2.5,Win32,144.2793248,,,,,space,0.917,0,6,6,27,1,28,training,zh2x,e,zh2x_e,zh2x_7_exe.wav,,exe.jpg,,,,,,,,,,,,,,,,,,,,,,,,,,,,,,,,,
5aa8ebf089de8200013f8c48,2023-06-16_05h23.22.990,phx_ver10,2022.2.5,Win32,144.2793248,,,,,space,0.6335,0,7,7,8,1,9,training,zh2x,a,zh2x_a,zh2x_5_axa.wav,,axa.jpg,,,,,,,,,,,,,,,,,,,,,,,,,,,,,,,,,
5aa8ebf089de8200013f8c48,2023-06-16_05h23.22.990,phx_ver10,2022.2.5,Win32,144.2793248,,,,,space,0.5006,0,8,8,23,1,24,training,zh2x,e,zh2x_e,zh2x_4_ezhe.wav,,ezhe.jpg,,,,,,,,,,,,,,,,,,,,,,,,,,,,,,,,,
5aa8ebf089de8200013f8c48,2023-06-16_05h23.22.990,phx_ver10,2022.2.5,Win32,144.2793248,,,,,space,0.3503,0,9,9,21,1,22,training,zh2x,e,zh2x_e,zh2x_3_ezhe.wav,,ezhe.jpg,,,,,,,,,,,,,,,,,,,,,,,,,,,,,,,,,
5aa8ebf089de8200013f8c48,2023-06-16_05h23.22.990,phx_ver10,2022.2.5,Win32,144.2793248,,,,,space,0.0674,0,10,10,25,1,26,training,zh2x,e,zh2x_e,zh2x_6_exe.wav,,exe.jpg,,,,,,,,,,,,,,,,,,,,,,,,,,,,,,,,,
5aa8ebf089de8200013f8c48,2023-06-16_05h23.22.990,phx_ver10,2022.2.5,Win32,144.2793248,,,,,space,0.3168,0,11,11,35,1,36,training,zh2x,i,zh2x_i,zh2x_2_izhi.wav,,izhi.jpg,,,,,,,,,,,,,,,,,,,,,,,,,,,,,,,,,
5aa8ebf089de8200013f8c48,2023-06-16_05h23.22.990,phx_ver10,2022.2.5,Win32,144.2793248,,,,,,,,,,,,,attn_test,,,,zh2x_8_axa.wav,zh2x_1_azha.wav,axa.jpg,LEFT,,f,4.7833,space,6.7339,0,0,0,0,1,,,,,,,,,,,,,,,,,,,,,,
5aa8ebf089de8200013f8c48,2023-06-16_05h23.22.990,phx_ver10,2022.2.5,Win32,144.2793248,,,,,space,1.3181,0,12,12,41,1,42,training,zh2x,i,zh2x_i,zh2x_6_ixi.wav,,ixi.jpg,,,,,,,,,,,,,,,,,,,,,,,,,,,,,,,,,
5aa8ebf089de8200013f8c48,2023-06-16_05h23.22.990,phx_ver10,2022.2.5,Win32,144.2793248,,,,,space,0.6004,0,13,13,42,1,43,training,zh2x,i,zh2x_i,zh2x_6_ixi.wav,,ixi.jpg,,,,,,,,,,,,,,,,,,,,,,,,,,,,,,,,,
5aa8ebf089de8200013f8c48,2023-06-16_05h23.22.990,phx_ver10,2022.2.5,Win32,144.2793248,,,,,space,1.1166,0,14,14,0,1,1,training,zh2x,a,zh2x_a,zh2x_1_azha.wav,,azha.jpg,,,,,,,,,,,,,,,,,,,,,,,,,,,,,,,,,
5aa8ebf089de8200013f8c48,2023-06-16_05h23.22.990,phx_ver10,2022.2.5,Win32,144.2793248,,,,,space,1.4833,0,15,15,33,1,34,training,zh2x,i,zh2x_i,zh2x_2_izhi.wav,,izhi.jpg,,,,,,,,,,,,,,,,,,,,,,,,,,,,,,,,,
5aa8ebf089de8200013f8c48,2023-06-16_05h23.22.990,phx_ver10,2022.2.5,Win32,144.2793248,,,,,space,0.3835,0,16,16,29,1,30,training,zh2x,e,zh2x_e,zh2x_7_exe.wav,,exe.jpg,,,,,,,,,,,,,,,,,,,,,,,,,,,,,,,,,
5aa8ebf089de8200013f8c48,2023-06-16_05h23.22.990,phx_ver10,2022.2.5,Win32,144.2793248,,,,,space,0.5006,0,17,17,12,1,13,training,zh2x,a,zh2x_a,zh2x_7_axa.wav,,axa.jpg,,,,,,,,,,,,,,,,,,,,,,,,,,,,,,,,,
5aa8ebf089de8200013f8c48,2023-06-16_05h23.22.990,phx_ver10,2022.2.5,Win32,144.2793248,,,,,,,,,,,,,attn_test,,,,zh2x_8_ixi.wav,zh2x_1_ezhe.wav,ixi.jpg,LEFT,,f,0.4841,space,1.2167,0,0,0,0,1,,,,,,,,,,,,,,,,,,,,,,
5aa8ebf089de8200013f8c48,2023-06-16_05h23.22.990,phx_ver10,2022.2.5,Win32,144.2793248,,,,,space,0.4173,0,18,18,5,1,6,training,zh2x,a,zh2x_a,zh2x_3_azha.wav,,azha.jpg,,,,,,,,,,,,,,,,,,,,,,,,,,,,,,,,,
5aa8ebf089de8200013f8c48,2023-06-16_05h23.22.990,phx_ver10,2022.2.5,Win32,144.2793248,,,,,space,0.334,0,19,19,45,1,46,training,zh2x,i,zh2x_i,zh2x_7_ixi.wav,,ixi.jpg,,,,,,,,,,,,,,,,,,,,,,,,,,,,,,,,,
5aa8ebf089de8200013f8c48,2023-06-16_05h23.22.990,phx_ver10,2022.2.5,Win32,144.2793248,,,,,space,0.384,0,20,20,20,1,21,training,zh2x,e,zh2x_e,zh2x_2_ezhe.wav,,ezhe.jpg,,,,,,,,,,,,,,,,,,,,,,,,,,,,,,,,,
5aa8ebf089de8200013f8c48,2023-06-16_05h23.22.990,phx_ver10,2022.2.5,Win32,144.2793248,,,,,space,0.1999,0,21,21,1,1,2,training,zh2x,a,zh2x_a,zh2x_2_azha.wav,,azha.jpg,,,,,,,,,,,,,,,,,,,,,,,,,,,,,,,,,
5aa8ebf089de8200013f8c48,2023-06-16_05h23.22.990,phx_ver10,2022.2.5,Win32,144.2793248,,,,,space,0.284,0,22,22,34,1,35,training,zh2x,i,zh2x_i,zh2x_2_izhi.wav,,izhi.jpg,,,,,,,,,,,,,,,,,,,,,,,,,,,,,,,,,
5aa8ebf089de8200013f8c48,2023-06-16_05h23.22.990,phx_ver10,2022.2.5,Win32,144.2793248,,,,,space,0.3177,0,23,23,7,1,8,training,zh2x,a,zh2x_a,zh2x_4_azha.wav,,azha.jpg,,,,,,,,,,,,,,,,,,,,,,,,,,,,,,,,,
5aa8ebf089de8200013f8c48,2023-06-16_05h23.22.990,phx_ver10,2022.2.5,Win32,144.2793248,,,,,,,,,,,,,attn_test,,,,zh2x_1_izhi.wav,zh2x_8_ixi.wav,ixi.jpg,RIGHT,,j,4.1001,space,4.4672,0,0,0,0,1,,,,,,,,,,,,,,,,,,,,,,
5aa8ebf089de8200013f8c48,2023-06-16_05h23.22.990,phx_ver10,2022.2.5,Win32,144.2793248,,,,,space,1.4499,0,24,24,40,1,41,training,zh2x,i,zh2x_i,zh2x_5_ixi.wav,,ixi.jpg,,,,,,,,,,,,,,,,,,,,,,,,,,,,,,,,,
5aa8ebf089de8200013f8c48,2023-06-16_05h23.22.990,phx_ver10,2022.2.5,Win32,144.2793248,,,,,space,0.4335,0,25,25,44,1,45,training,zh2x,i,zh2x_i,zh2x_7_ixi.wav,,ixi.jpg,,,,,,,,,,,,,,,,,,,,,,,,,,,,,,,,,
5aa8ebf089de8200013f8c48,2023-06-16_05h23.22.990,phx_ver10,2022.2.5,Win32,144.2793248,,,,,space,1.8338,0,26,26,39,1,40,training,zh2x,i,zh2x_i,zh2x_4_izhi.wav,,izhi.jpg,,,,,,,,,,,,,,,,,,,,,,,,,,,,,,,,,
5aa8ebf089de8200013f8c48,2023-06-16_05h23.22.990,phx_ver10,2022.2.5,Win32,144.2793248,,,,,space,0.3667,0,27,27,4,1,5,training,zh2x,a,zh2x_a,zh2x_2_azha.wav,,azha.jpg,,,,,,,,,,,,,,,,,,,,,,,,,,,,,,,,,
5aa8ebf089de8200013f8c48,2023-06-16_05h23.22.990,phx_ver10,2022.2.5,Win32,144.2793248,,,,,space,0.2676,0,28,28,43,1,44,training,zh2x,i,zh2x_i,zh2x_7_ixi.wav,,ixi.jpg,,,,,,,,,,,,,,,,,,,,,,,,,,,,,,,,,
5aa8ebf089de8200013f8c48,2023-06-16_05h23.22.990,phx_ver10,2022.2.5,Win32,144.2793248,,,,,space,0.3669,0,29,29,16,1,17,training,zh2x,e,zh2x_e,zh2x_1_ezhe.wav,,ezhe.jpg,,,,,,,,,,,,,,,,,,,,,,,,,,,,,,,,,
5aa8ebf089de8200013f8c48,2023-06-16_05h23.22.990,phx_ver10,2022.2.5,Win32,144.2793248,,,,,,,,,,,,,attn_test,,,,zh2x_1_izhi.wav,zh2x_1_azha.wav,azha.jpg,RIGHT,,j,1.3672,space,1.7341,0,0,0,0,1,,,,,,,,,,,,,,,,,,,,,,
5aa8ebf089de8200013f8c48,2023-06-16_05h23.22.990,phx_ver10,2022.2.5,Win32,144.2793248,,,,,space,0.4172,0,30,30,28,1,29,training,zh2x,e,zh2x_e,zh2x_7_exe.wav,,exe.jpg,,,,,,,,,,,,,,,,,,,,,,,,,,,,,,,,,
5aa8ebf089de8200013f8c48,2023-06-16_05h23.22.990,phx_ver10,2022.2.5,Win32,144.2793248,,,,,space,0.4838,0,31,31,13,1,14,training,zh2x,a,zh2x_a,zh2x_7_axa.wav,,axa.jpg,,,,,,,,,,,,,,,,,,,,,,,,,,,,,,,,,
5aa8ebf089de8200013f8c48,2023-06-16_05h23.22.990,phx_ver10,2022.2.5,Win32,144.2793248,,,,,space,0.5504,0,32,32,24,1,25,training,zh2x,e,zh2x_e,zh2x_5_exe.wav,,exe.jpg,,,,,,,,,,,,,,,,,,,,,,,,,,,,,,,,,
5aa8ebf089de8200013f8c48,2023-06-16_05h23.22.990,phx_ver10,2022.2.5,Win32,144.2793248,,,,,space,0.2809,0,33,33,46,1,47,training,zh2x,i,zh2x_i,zh2x_7_ixi.wav,,ixi.jpg,,,,,,,,,,,,,,,,,,,,,,,,,,,,,,,,,
5aa8ebf089de8200013f8c48,2023-06-16_05h23.22.990,phx_ver10,2022.2.5,Win32,144.2793248,,,,,space,0.8168,0,34,34,22,1,23,training,zh2x,e,zh2x_e,zh2x_3_ezhe.wav,,ezhe.jpg,,,,,,,,,,,,,,,,,,,,,,,,,,,,,,,,,
5aa8ebf089de8200013f8c48,2023-06-16_05h23.22.990,phx_ver10,2022.2.5,Win32,144.2793248,,,,,space,0.6511,0,35,35,36,1,37,training,zh2x,i,zh2x_i,zh2x_2_izhi.wav,,izhi.jpg,,,,,,,,,,,,,,,,,,,,,,,,,,,,,,,,,
5aa8ebf089de8200013f8c48,2023-06-16_05h23.22.990,phx_ver10,2022.2.5,Win32,144.2793248,,,,,,,,,,,,,attn_test,,,,zh2x_8_ixi.wav,zh2x_8_axa.wav,ixi.jpg,LEFT,,f,0.4338,space,2.4003,0,0,0,0,1,,,,,,,,,,,,,,,,,,,,,,
5aa8ebf089de8200013f8c48,2023-06-16_05h23.22.990,phx_ver10,2022.2.5,Win32,144.2793248,,,,,space,0.4018,0,36,36,3,1,4,training,zh2x,a,zh2x_a,zh2x_2_azha.wav,,azha.jpg,,,,,,,,,,,,,,,,,,,,,,,,,,,,,,,,,
5aa8ebf089de8200013f8c48,2023-06-16_05h23.22.990,phx_ver10,2022.2.5,Win32,144.2793248,,,,,space,0.2006,0,37,37,14,1,15,training,zh2x,a,zh2x_a,zh2x_7_axa.wav,,axa.jpg,,,,,,,,,,,,,,,,,,,,,,,,,,,,,,,,,
5aa8ebf089de8200013f8c48,2023-06-16_05h23.22.990,phx_ver10,2022.2.5,Win32,144.2793248,,,,,space,0.1167,0,38,38,9,1,10,training,zh2x,a,zh2x_a,zh2x_6_axa.wav,,axa.jpg,,,,,,,,,,,,,,,,,,,,,,,,,,,,,,,,,
5aa8ebf089de8200013f8c48,2023-06-16_05h23.22.990,phx_ver10,2022.2.5,Win32,144.2793248,,,,,space,0.2835,0,39,39,17,1,18,training,zh2x,e,zh2x_e,zh2x_2_ezhe.wav,,ezhe.jpg,,,,,,,,,,,,,,,,,,,,,,,,,,,,,,,,,
5aa8ebf089de8200013f8c48,2023-06-16_05h23.22.990,phx_ver10,2022.2.5,Win32,144.2793248,,,,,space,0.334,0,40,40,18,1,19,training,zh2x,e,zh2x_e,zh2x_2_ezhe.wav,,ezhe.jpg,,,,,,,,,,,,,,,,,,,,,,,,,,,,,,,,,
5aa8ebf089de8200013f8c48,2023-06-16_05h23.22.990,phx_ver10,2022.2.5,Win32,144.2793248,,,,,space,0.3499,0,41,41,37,1,38,training,zh2x,i,zh2x_i,zh2x_3_izhi.wav,,izhi.jpg,,,,,,,,,,,,,,,,,,,,,,,,,,,,,,,,,
5aa8ebf089de8200013f8c48,2023-06-16_05h23.22.990,phx_ver10,2022.2.5,Win32,144.2793248,,,,,,,,,,,,,attn_test,,,,zh2x_8_ixi.wav,zh2x_1_azha.wav,azha.jpg,RIGHT,,j,1.2667,space,1.7166,0,0,0,0,1,,,,,,,,,,,,,,,,,,,,,,
5aa8ebf089de8200013f8c48,2023-06-16_05h23.22.990,phx_ver10,2022.2.5,Win32,144.2793248,,,,,space,0.5341,0,42,42,10,1,11,training,zh2x,a,zh2x_a,zh2x_6_axa.wav,,axa.jpg,,,,,,,,,,,,,,,,,,,,,,,,,,,,,,,,,
5aa8ebf089de8200013f8c48,2023-06-16_05h23.22.990,phx_ver10,2022.2.5,Win32,144.2793248,,,,,space,0.6339,0,43,43,32,1,33,training,zh2x,i,zh2x_i,zh2x_1_izhi.wav,,izhi.jpg,,,,,,,,,,,,,,,,,,,,,,,,,,,,,,,,,
5aa8ebf089de8200013f8c48,2023-06-16_05h23.22.990,phx_ver10,2022.2.5,Win32,144.2793248,,,,,space,0.3846,0,44,44,30,1,31,training,zh2x,e,zh2x_e,zh2x_7_exe.wav,,exe.jpg,,,,,,,,,,,,,,,,,,,,,,,,,,,,,,,,,
5aa8ebf089de8200013f8c48,2023-06-16_05h23.22.990,phx_ver10,2022.2.5,Win32,144.2793248,,,,,space,0.8002,0,45,45,6,1,7,training,zh2x,a,zh2x_a,zh2x_3_azha.wav,,azha.jpg,,,,,,,,,,,,,,,,,,,,,,,,,,,,,,,,,
5aa8ebf089de8200013f8c48,2023-06-16_05h23.22.990,phx_ver10,2022.2.5,Win32,144.2793248,,,,,space,0.467,0,46,46,15,1,16,training,zh2x,a,zh2x_a,zh2x_8_axa.wav,,axa.jpg,,,,,,,,,,,,,,,,,,,,,,,,,,,,,,,,,
5aa8ebf089de8200013f8c48,2023-06-16_05h23.22.990,phx_ver10,2022.2.5,Win32,144.2793248,,,,,space,0.2667,0,47,47,2,1,3,training,zh2x,a,zh2x_a,zh2x_2_azha.wav,,azha.jpg,,,,,,,,,,,,,,,,,,,,,,,,,,,,,,,,,
5aa8ebf089de8200013f8c48,2023-06-16_05h23.22.990,phx_ver10,2022.2.5,Win32,144.2793248,,,,,,,,,,,,,attn_test,,,,zh2x_8_axa.wav,zh2x_8_exe.wav,axa.jpg,LEFT,,f,0.434,space,14.1502,,,,,,,,,,,,,,,,,,,,,,,,,,,
5aa8ebf089de8200013f8c48,2023-06-16_05h23.22.990,phx_ver10,2022.2.5,Win32,144.2793248,,,,,,,,,,,,,,,,,,,,,,,,,,,,,,,space,0.8661,,,,,,,,,,,,,,,,,,,,
5aa8ebf089de8200013f8c48,2023-06-16_05h23.22.990,phx_ver10,2022.2.5,Win32,144.2793248,,,,,,,,,,,,,,,,,,,,,,,,,,,,,,,,,space,17.6334,,,,,,,,,,,,,,,,,,
5aa8ebf089de8200013f8c48,2023-06-16_05h23.22.990,phx_ver10,2022.2.5,Win32,144.2793248,,,,,,,,,,,,1,testing_pre,,,,ifi.wav,ifi.wav,,TRUE,,,,,,,,,,,,,,,f,1.9665,space,2.9834,0,0,0,0,1,,,,,,,,,
5aa8ebf089de8200013f8c48,2023-06-16_05h23.22.990,phx_ver10,2022.2.5,Win32,144.2793248,,,,,,,,,,,,3,testing_pre,,,,afa.wav,aha.wav,,FALSE,,,,,,,,,,,,,,,j,0.6341,space,1.8344,0,1,1,2,1,,,,,,,,,
5aa8ebf089de8200013f8c48,2023-06-16_05h23.22.990,phx_ver10,2022.2.5,Win32,144.2793248,,,,,,,,,,,,2,testing_pre,,,,auhau.wav,aufau.wav,,FALSE,,,,,,,,,,,,,,,j,0.3668,space,0.7159,0,2,2,1,1,,,,,,,,,
5aa8ebf089de8200013f8c48,2023-06-16_05h23.22.990,phx_ver10,2022.2.5,Win32,144.2793248,,,,,,,,,,,,4,testing_pre,,,,eihei.wav,eihei.wav,,TRUE,,,,,,,,,,,,,,,f,0.2501,space,0.5668,0,3,3,3,1,,,,,,,,,
5aa8ebf089de8200013f8c48,2023-06-16_05h23.22.990,phx_ver10,2022.2.5,Win32,144.2793248,,,,,,,,,,,,5,testing_pre,,,,ihi.wav,ifi.wav,,FALSE,,,,,,,,,,,,,,,j,0.1681,space,0.5184,0,4,4,4,1,,,,,,,,,
5aa8ebf089de8200013f8c48,2023-06-16_05h23.22.990,phx_ver10,2022.2.5,Win32,144.2793248,,,,,,,,,,,,,,,,,,,,,,,,,,,,,,,,,,,,,,,,,,,,space,0.7665,,,,,,,
5aa8ebf089de8200013f8c48,2023-06-16_05h23.22.990,phx_ver10,2022.2.5,Win32,144.2793248,,,,,,,,,,,,7,testing_1,zh2x,e,zh2x_e,zh2x_1_ezhe.wav,zh2x_8_exe.wav,,FALSE,TRUE,,,,,,,,,,,,,,j,0.2826,space,0.6501,,,,,,,,0,0,0,6,1,,
5aa8ebf089de8200013f8c48,2023-06-16_05h23.22.990,phx_ver10,2022.2.5,Win32,144.2793248,,,,,,,,,,,,113,testing_3,sh2x,ei,sh2x_ei,sh2x_1_eishei.wav,sh2x_1_eishei.wav,,TRUE,FALSE,,,,,,,,,,,,,,f,0.2338,space,0.6833,,,,,,,,0,1,1,112,1,,
5aa8ebf089de8200013f8c48,2023-06-16_05h23.22.990,phx_ver10,2022.2.5,Win32,144.2793248,,,,,,,,,,,,45,testing_3,zh2sh,i,zh2sh_i,zh2sh_1_izhi.wav,zh2sh_1_izhi.wav,,TRUE,FALSE,,,,,,,,,,,,,,f,0.3005,space,0.5837,,,,,,,,0,2,2,44,1,,
5aa8ebf089de8200013f8c48,2023-06-16_05h23.22.990,phx_ver10,2022.2.5,Win32,144.2793248,,,,,,,,,,,,52,testing_3,zh2j,a,zh2j_a,zh2j_8_aja.wav,zh2j_1_azha.wav,,FALSE,FALSE,,,,,,,,,,,,,,f,0.2669,space,0.5334,,,,,,,,0,3,3,51,1,,
5aa8ebf089de8200013f8c48,2023-06-16_05h23.22.990,phx_ver10,2022.2.5,Win32,144.2793248,,,,,,,,,,,,1,testing_1,zh2x,a,zh2x_a,zh2x_1_azha.wav,zh2x_1_azha_copy.wav,,TRUE,TRUE,,,,,,,,,,,,,,f,0.4504,space,0.6834,,,,,,,,0,4,4,0,1,,
5aa8ebf089de8200013f8c48,2023-06-16_05h23.22.990,phx_ver10,2022.2.5,Win32,144.2793248,,,,,,,,,,,,108,testing_3,sh2x,au,sh2x_au,sh2x_8_auxau.wav,sh2x_1_aushau.wav,,FALSE,FALSE,,,,,,,,,,,,,,j,0.1841,space,0.5834,,,,,,,,0,5,5,107,1,,
5aa8ebf089de8200013f8c48,2023-06-16_05h23.22.990,phx_ver10,2022.2.5,Win32,144.2793248,,,,,,,,,,,,104,testing_3,sh2x,ai,sh2x_ai,sh2x_8_aixai.wav,sh2x_1_aishai.wav,,FALSE,FALSE,,,,,,,,,,,,,,j,0.2005,space,0.4673,,,,,,,,0,6,6,103,1,,
5aa8ebf089de8200013f8c48,2023-06-16_05h23.22.990,phx_ver10,2022.2.5,Win32,144.2793248,,,,,,,,,,,,130,testing_3,sh2j,au,sh2j_au,sh2j_8_aujau.wav,sh2j_8_aujau.wav,,TRUE,FALSE,,,,,,,,,,,,,,f,0.3171,space,0.5672,,,,,,,,0,7,7,129,1,,
5aa8ebf089de8200013f8c48,2023-06-16_05h23.22.990,phx_ver10,2022.2.5,Win32,144.2793248,,,,,,,,,,,,22,testing_2,zh2x,ei,zh2x_ei,zh2x_8_eixei.wav,zh2x_8_eixei.wav,,TRUE,FALSE,,,,,,,,,,,,,,f,0.2168,space,0.5673,,,,,,,,0,8,8,21,1,,
5aa8ebf089de8200013f8c48,2023-06-16_05h23.22.990,phx_ver10,2022.2.5,Win32,144.2793248,,,,,,,,,,,,125,testing_3,sh2j,ai,sh2j_ai,sh2j_1_aishai.wav,sh2j_1_aishai.wav,,TRUE,FALSE,,,,,,,,,,,,,,f,0.3167,space,0.5339,,,,,,,,0,9,9,124,1,,
5aa8ebf089de8200013f8c48,2023-06-16_05h23.22.990,phx_ver10,2022.2.5,Win32,144.2793248,,,,,,,,,,,,53,testing_3,zh2j,ai,zh2j_ai,zh2j_1_aizhai.wav,zh2j_1_aizhai.wav,,TRUE,FALSE,,,,,,,,,,,,,,f,0.2827,space,0.5001,,,,,,,,0,10,10,52,1,,
5aa8ebf089de8200013f8c48,2023-06-16_05h23.22.990,phx_ver10,2022.2.5,Win32,144.2793248,,,,,,,,,,,,8,testing_1,zh2x,e,zh2x_e,zh2x_8_exe.wav,zh2x_1_ezhe.wav,,FALSE,TRUE,,,,,,,,,,,,,,j,0.134,space,0.4006,,,,,,,,0,11,11,7,1,,
5aa8ebf089de8200013f8c48,2023-06-16_05h23.22.990,phx_ver10,2022.2.5,Win32,144.2793248,,,,,,,,,,,,26,testing_3,zh2sh,a,zh2sh_a,zh2sh_8_asha.wav,zh2sh_8_asha.wav,,TRUE,FALSE,,,,,,,,,,,,,,f,0.3,space,0.6506,,,,,,,,0,12,12,25,1,,
5aa8ebf089de8200013f8c48,2023-06-16_05h23.22.990,phx_ver10,2022.2.5,Win32,144.2793248,,,,,,,,,,,,28,testing_3,zh2sh,a,zh2sh_a,zh2sh_8_asha.wav,zh2sh_1_azha.wav,,FALSE,FALSE,,,,,,,,,,,,,,j,0.2663,space,0.4673,,,,,,,,0,13,13,27,1,,
5aa8ebf089de8200013f8c48,2023-06-16_05h23.22.990,phx_ver10,2022.2.5,Win32,144.2793248,,,,,,,,,,,,88,testing_3,j2x,e,j2x_e,j2x_8_exe.wav,j2x_1_eje.wav,,FALSE,FALSE,,,,,,,,,,,,,,j,0.1501,space,0.4168,,,,,,,,0,14,14,87,1,,
5aa8ebf089de8200013f8c48,2023-06-16_05h23.22.990,phx_ver10,2022.2.5,Win32,144.2793248,,,,,,,,,,,,33,testing_3,zh2sh,au,zh2sh_au,zh2sh_1_auzhau.wav,zh2sh_1_auzhau.wav,,TRUE,FALSE,,,,,,,,,,,,,,f,0.2171,space,0.4838,,,,,,,,0,15,15,32,1,,
5aa8ebf089de8200013f8c48,2023-06-16_05h23.22.990,phx_ver10,2022.2.5,Win32,144.2793248,,,,,,,,,,,,32,testing_3,zh2sh,ai,zh2sh_ai,zh2sh_8_aishai.wav,zh2sh_1_aizhai.wav,,FALSE,FALSE,,,,,,,,,,,,,,j,0.1669,space,0.4501,,,,,,,,0,16,16,31,1,,
5aa8ebf089de8200013f8c48,2023-06-16_05h23.22.990,phx_ver10,2022.2.5,Win32,144.2793248,,,,,,,,,,,,19,testing_2,zh2x,au,zh2x_au,zh2x_1_auzhau.wav,zh2x_8_auxau.wav,,FALSE,FALSE,,,,,,,,,,,,,,j,0.1507,space,0.3673,,,,,,,,0,17,17,18,1,,
5aa8ebf089de8200013f8c48,2023-06-16_05h23.22.990,phx_ver10,2022.2.5,Win32,144.2793248,,,,,,,,,,,,10,testing_1,zh2x,i,zh2x_i,zh2x_8_ixi.wav,zh2x_8_ixi_copy.wav,,TRUE,TRUE,,,,,,,,,,,,,,f,0.2833,space,0.4826,,,,,,,,0,18,18,9,1,,
5aa8ebf089de8200013f8c48,2023-06-16_05h23.22.990,phx_ver10,2022.2.5,Win32,144.2793248,,,,,,,,,,,,86,testing_3,j2x,e,j2x_e,j2x_8_exe.wav,j2x_8_exe.wav,,TRUE,FALSE,,,,,,,,,,,,,,f,0.1838,space,0.4047,,,,,,,,0,19,19,85,1,,
5aa8ebf089de8200013f8c48,2023-06-16_05h23.22.990,phx_ver10,2022.2.5,Win32,144.2793248,,,,,,,,,,,,116,testing_3,sh2x,ei,sh2x_ei,sh2x_8_eixei.wav,sh2x_1_eishei.wav,,FALSE,FALSE,,,,,,,,,,,,,,j,0.8687,space,1.1353,,,,,,,,0,20,20,115,1,,
5aa8ebf089de8200013f8c48,2023-06-16_05h23.22.990,phx_ver10,2022.2.5,Win32,144.2793248,,,,,,,,,,,,44,testing_3,zh2sh,ei,zh2sh_ei,zh2sh_8_eishei.wav,zh2sh_1_eizhei.wav,,FALSE,FALSE,,,,,,,,,,,,,,j,1.1838,space,2.0166,,,,,,,,0,21,21,43,1,,
5aa8ebf089de8200013f8c48,2023-06-16_05h23.22.990,phx_ver10,2022.2.5,Win32,144.2793248,,,,,,,,,,,,137,testing_3,sh2j,ei,sh2j_ei,sh2j_1_eishei.wav,sh2j_1_eishei.wav,,TRUE,FALSE,,,,,,,,,,,,,,f,0.2169,space,0.4173,,,,,,,,0,22,22,136,1,,
5aa8ebf089de8200013f8c48,2023-06-16_05h23.22.990,phx_ver10,2022.2.5,Win32,144.2793248,,,,,,,,,,,,2,testing_1,zh2x,a,zh2x_a,zh2x_8_axa.wav,zh2x_8_axa_copy.wav,,TRUE,TRUE,,,,,,,,,,,,,,f,0.4167,space,0.6,,,,,,,,0,23,23,1,1,,
5aa8ebf089de8200013f8c48,2023-06-16_05h23.22.990,phx_ver10,2022.2.5,Win32,144.2793248,,,,,,,,,,,,111,testing_3,sh2x,e,sh2x_e,sh2x_1_eshe.wav,sh2x_8_exe.wav,,FALSE,FALSE,,,,,,,,,,,,,,j,0.1501,space,0.4167,,,,,,,,0,24,24,110,1,,
5aa8ebf089de8200013f8c48,2023-06-16_05h23.22.990,phx_ver10,2022.2.5,Win32,144.2793248,,,,,,,,,,,,142,testing_3,sh2j,i,sh2j_i,sh2j_8_iji.wav,sh2j_8_iji.wav,,TRUE,FALSE,,,,,,,,,,,,,,f,0.3834,space,0.6337,,,,,,,,0,25,25,141,1,,
5aa8ebf089de8200013f8c48,2023-06-16_05h23.22.990,phx_ver10,2022.2.5,Win32,144.2793248,,,,,,,,,,,,72,testing_3,zh2j,i,zh2j_i,zh2j_8_iji.wav,zh2j_1_izhi.wav,,FALSE,FALSE,,,,,,,,,,,,,,f,0.3179,space,0.4846,,,,,,,,0,26,26,71,1,,
5aa8ebf089de8200013f8c48,2023-06-16_05h23.22.990,phx_ver10,2022.2.5,Win32,144.2793248,,,,,,,,,,,,81,testing_3,j2x,au,j2x_au,j2x_1_aujau.wav,j2x_1_aujau.wav,,TRUE,FALSE,,,,,,,,,,,,,,f,0.3006,space,0.4679,,,,,,,,0,27,27,80,1,,
5aa8ebf089de8200013f8c48,2023-06-16_05h23.22.990,phx_ver10,2022.2.5,Win32,144.2793248,,,,,,,,,,,,107,testing_3,sh2x,au,sh2x_au,sh2x_1_aushau.wav,sh2x_8_auxau.wav,,FALSE,FALSE,,,,,,,,,,,,,,j,1.0507,space,1.2672,,,,,,,,0,28,28,106,1,,
5aa8ebf089de8200013f8c48,2023-06-16_05h23.22.990,phx_ver10,2022.2.5,Win32,144.2793248,,,,,,,,,,,,132,testing_3,sh2j,au,sh2j_au,sh2j_8_aujau.wav,sh2j_1_aushau.wav,,FALSE,FALSE,,,,,,,,,,,,,,j,0.2172,space,0.4178,,,,,,,,0,29,29,131,1,,
5aa8ebf089de8200013f8c48,2023-06-16_05h23.22.990,phx_ver10,2022.2.5,Win32,144.2793248,,,,,,,,,,,,134,testing_3,sh2j,e,sh2j_e,sh2j_8_eje.wav,sh2j_8_eje.wav,,TRUE,FALSE,,,,,,,,,,,,,,f,0.35,space,0.6503,,,,,,,,0,30,30,133,1,,
5aa8ebf089de8200013f8c48,2023-06-16_05h23.22.990,phx_ver10,2022.2.5,Win32,144.2793248,,,,,,,,,,,,20,testing_2,zh2x,au,zh2x_au,zh2x_8_auxau.wav,zh2x_1_auzhau.wav,,FALSE,FALSE,,,,,,,,,,,,,,j,0.0825,space,0.3837,,,,,,,,0,31,31,19,1,,
5aa8ebf089de8200013f8c48,2023-06-16_05h23.22.990,phx_ver10,2022.2.5,Win32,144.2793248,,,,,,,,,,,,115,testing_3,sh2x,ei,sh2x_ei,sh2x_1_eishei.wav,sh2x_8_eixei.wav,,FALSE,FALSE,,,,,,,,,,,,,,j,0.1005,space,0.3508,,,,,,,,0,32,32,114,1,,
5aa8ebf089de8200013f8c48,2023-06-16_05h23.22.990,phx_ver10,2022.2.5,Win32,144.2793248,,,,,,,,,,,,69,testing_3,zh2j,i,zh2j_i,zh2j_1_izhi.wav,zh2j_1_izhi.wav,,TRUE,FALSE,,,,,,,,,,,,,,f,0.3177,space,0.6004,,,,,,,,0,33,33,68,1,,
5aa8ebf089de8200013f8c48,2023-06-16_05h23.22.990,phx_ver10,2022.2.5,Win32,144.2793248,,,,,,,,,,,,13,testing_2,zh2x,ai,zh2x_ai,zh2x_1_aizhai.wav,zh2x_1_aizhai.wav,,TRUE,FALSE,,,,,,,,,,,,,,f,0.3347,space,0.5851,,,,,,,,0,34,34,12,1,,
5aa8ebf089de8200013f8c48,2023-06-16_05h23.22.990,phx_ver10,2022.2.5,Win32,144.2793248,,,,,,,,,,,,43,testing_3,zh2sh,ei,zh2sh_ei,zh2sh_1_eizhei.wav,zh2sh_8_eishei.wav,,FALSE,FALSE,,,,,,,,,,,,,,j,0.1833,space,0.4839,,,,,,,,0,35,35,42,1,,
5aa8ebf089de8200013f8c48,2023-06-16_05h23.22.990,phx_ver10,2022.2.5,Win32,144.2793248,,,,,,,,,,,,77,testing_3,j2x,ai,j2x_ai,j2x_1_aijai.wav,j2x_1_aijai.wav,,TRUE,FALSE,,,,,,,,,,,,,,f,0.5171,space,0.7506,,,,,,,,0,36,36,76,1,,
5aa8ebf089de8200013f8c48,2023-06-16_05h23.22.990,phx_ver10,2022.2.5,Win32,144.2793248,,,,,,,,,,,,126,testing_3,sh2j,ai,sh2j_ai,sh2j_8_aijai.wav,sh2j_8_aijai.wav,,TRUE,FALSE,,,,,,,,,,,,,,f,0.35,space,0.5506,,,,,,,,0,37,37,125,1,,
5aa8ebf089de8200013f8c48,2023-06-16_05h23.22.990,phx_ver10,2022.2.5,Win32,144.2793248,,,,,,,,,,,,91,testing_3,j2x,ei,j2x_ei,j2x_1_eijei.wav,j2x_8_eixei.wav,,FALSE,FALSE,,,,,,,,,,,,,,j,0.0835,space,0.4336,,,,,,,,0,38,38,90,1,,
5aa8ebf089de8200013f8c48,2023-06-16_05h23.22.990,phx_ver10,2022.2.5,Win32,144.2793248,,,,,,,,,,,,120,testing_3,sh2x,i,sh2x_i,sh2x_8_ixi.wav,sh2x_1_ishi.wav,,FALSE,FALSE,,,,,,,,,,,,,,j,1.1837,space,1.3333,,,,,,,,0,39,39,119,1,,
5aa8ebf089de8200013f8c48,2023-06-16_05h23.22.990,phx_ver10,2022.2.5,Win32,144.2793248,,,,,,,,,,,,99,testing_3,sh2x,a,sh2x_a,sh2x_1_asha.wav,sh2x_8_axa.wav,,FALSE,FALSE,,,,,,,,,,,,,,j,0.2833,space,0.4666,,,,,,,,0,40,40,98,1,,
5aa8ebf089de8200013f8c48,2023-06-16_05h23.22.990,phx_ver10,2022.2.5,Win32,144.2793248,,,,,,,,,,,,6,testing_1,zh2x,e,zh2x_e,zh2x_8_exe.wav,zh2x_8_exe_copy.wav,,TRUE,TRUE,,,,,,,,,,,,,,f,0.3832,space,0.6006,,,,,,,,0,41,41,5,1,,
5aa8ebf089de8200013f8c48,2023-06-16_05h23.22.990,phx_ver10,2022.2.5,Win32,144.2793248,,,,,,,,,,,,39,testing_3,zh2sh,e,zh2sh_e,zh2sh_1_ezhe.wav,zh2sh_8_eshe.wav,,FALSE,FALSE,,,,,,,,,,,,,,j,0.134,space,0.4172,,,,,,,,0,42,42,38,1,,
5aa8ebf089de8200013f8c48,2023-06-16_05h23.22.990,phx_ver10,2022.2.5,Win32,144.2793248,,,,,,,,,,,,96,testing_3,j2x,i,j2x_i,j2x_8_ixi.wav,j2x_1_iji.wav,,FALSE,FALSE,,,,,,,,,,,,,,j,0.1668,space,0.4004,,,,,,,,0,43,43,95,1,,
5aa8ebf089de8200013f8c48,2023-06-16_05h23.22.990,phx_ver10,2022.2.5,Win32,144.2793248,,,,,,,,,,,,76,testing_3,j2x,a,j2x_a,j2x_8_axa.wav,j2x_1_aja.wav,,FALSE,FALSE,,,,,,,,,,,,,,j,0.1172,space,0.3678,,,,,,,,0,44,44,75,1,,
5aa8ebf089de8200013f8c48,2023-06-16_05h23.22.990,phx_ver10,2022.2.5,Win32,144.2793248,,,,,,,,,,,,5,testing_1,zh2x,e,zh2x_e,zh2x_1_ezhe.wav,zh2x_1_ezhe_copy.wav,,TRUE,TRUE,,,,,,,,,,,,,,f,0.2501,space,0.4696,,,,,,,,0,45,45,4,1,,
5aa8ebf089de8200013f8c48,2023-06-16_05h23.22.990,phx_ver10,2022.2.5,Win32,144.2793248,,,,,,,,,,,,79,testing_3,j2x,ai,j2x_ai,j2x_1_aijai.wav,j2x_8_aixai.wav,,FALSE,FALSE,,,,,,,,,,,,,,j,0.1999,space,0.4338,,,,,,,,0,46,46,78,1,,
5aa8ebf089de8200013f8c48,2023-06-16_05h23.22.990,phx_ver10,2022.2.5,Win32,144.2793248,,,,,,,,,,,,35,testing_3,zh2sh,au,zh2sh_au,zh2sh_1_auzhau.wav,zh2sh_8_aushau.wav,,FALSE,FALSE,,,,,,,,,,,,,,j,0.0667,space,0.3666,,,,,,,,0,47,47,34,1,,
5aa8ebf089de8200013f8c48,2023-06-16_05h23.22.990,phx_ver10,2022.2.5,Win32,144.2793248,,,,,,,,,,,,18,testing_2,zh2x,au,zh2x_au,zh2x_8_auxau.wav,zh2x_8_auxau.wav,,TRUE,FALSE,,,,,,,,,,,,,,f,0.4013,space,0.6681,,,,,,,,0,48,48,17,1,,
5aa8ebf089de8200013f8c48,2023-06-16_05h23.22.990,phx_ver10,2022.2.5,Win32,144.2793248,,,,,,,,,,,,118,testing_3,sh2x,i,sh2x_i,sh2x_8_ixi.wav,sh2x_8_ixi.wav,,TRUE,FALSE,,,,,,,,,,,,,,f,1.7833,space,2.1169,,,,,,,,0,49,49,117,1,,
5aa8ebf089de8200013f8c48,2023-06-16_05h23.22.990,phx_ver10,2022.2.5,Win32,144.2793248,,,,,,,,,,,,15,testing_2,zh2x,ai,zh2x_ai,zh2x_1_aizhai.wav,zh2x_8_aixai.wav,,FALSE,FALSE,,,,,,,,,,,,,,j,0.1666,space,0.3999,,,,,,,,0,50,50,14,1,,
5aa8ebf089de8200013f8c48,2023-06-16_05h23.22.990,phx_ver10,2022.2.5,Win32,144.2793248,,,,,,,,,,,,16,testing_2,zh2x,ai,zh2x_ai,zh2x_8_aixai.wav,zh2x_1_aizhai.wav,,FALSE,FALSE,,,,,,,,,,,,,,j,0.0674,space,0.4179,,,,,,,,0,51,51,15,1,,
5aa8ebf089de8200013f8c48,2023-06-16_05h23.22.990,phx_ver10,2022.2.5,Win32,144.2793248,,,,,,,,,,,,68,testing_3,zh2j,ei,zh2j_ei,zh2j_8_eijei.wav,zh2j_1_eizhei.wav,,FALSE,FALSE,,,,,,,,,,,,,,f,0.1501,space,0.4006,,,,,,,,0,52,52,67,1,,
5aa8ebf089de8200013f8c48,2023-06-16_05h23.22.990,phx_ver10,2022.2.5,Win32,144.2793248,,,,,,,,,,,,12,testing_1,zh2x,i,zh2x_i,zh2x_8_ixi.wav,zh2x_1_izhi.wav,,FALSE,TRUE,,,,,,,,,,,,,,j,0.2501,space,0.4668,,,,,,,,0,53,53,11,1,,
5aa8ebf089de8200013f8c48,2023-06-16_05h23.22.990,phx_ver10,2022.2.5,Win32,144.2793248,,,,,,,,,,,,89,testing_3,j2x,ei,j2x_ei,j2x_1_eijei.wav,j2x_1_eijei.wav,,TRUE,FALSE,,,,,,,,,,,,,,f,0.4173,space,0.8007,,,,,,,,0,54,54,88,1,,
5aa8ebf089de8200013f8c48,2023-06-16_05h23.22.990,phx_ver10,2022.2.5,Win32,144.2793248,,,,,,,,,,,,84,testing_3,j2x,au,j2x_au,j2x_8_auxau.wav,j2x_1_aujau.wav,,FALSE,FALSE,,,,,,,,,,,,,,j,0.1498,space,0.4337,,,,,,,,0,55,55,83,1,,
5aa8ebf089de8200013f8c48,2023-06-16_05h23.22.990,phx_ver10,2022.2.5,Win32,144.2793248,,,,,,,,,,,,80,testing_3,j2x,ai,j2x_ai,j2x_8_aixai.wav,j2x_1_aijai.wav,,FALSE,FALSE,,,,,,,,,,,,,,j,0.0669,space,0.3838,,,,,,,,0,56,56,79,1,,
5aa8ebf089de8200013f8c48,2023-06-16_05h23.22.990,phx_ver10,2022.2.5,Win32,144.2793248,,,,,,,,,,,,31,testing_3,zh2sh,ai,zh2sh_ai,zh2sh_1_aizhai.wav,zh2sh_8_aishai.wav,,FALSE,FALSE,,,,,,,,,,,,,,j,0.2005,space,0.4173,,,,,,,,0,57,57,30,1,,
5aa8ebf089de8200013f8c48,2023-06-16_05h23.22.990,phx_ver10,2022.2.5,Win32,144.2793248,,,,,,,,,,,,17,testing_2,zh2x,au,zh2x_au,zh2x_1_auzhau.wav,zh2x_1_auzhau.wav,,TRUE,FALSE,,,,,,,,,,,,,,f,0.2839,space,0.5167,,,,,,,,0,58,58,16,1,,
5aa8ebf089de8200013f8c48,2023-06-16_05h23.22.990,phx_ver10,2022.2.5,Win32,144.2793248,,,,,,,,,,,,129,testing_3,sh2j,au,sh2j_au,sh2j_1_aushau.wav,sh2j_1_aushau.wav,,TRUE,FALSE,,,,,,,,,,,,,,f,0.1806,space,0.398,,,,,,,,0,59,59,128,1,,
5aa8ebf089de8200013f8c48,2023-06-16_05h23.22.990,phx_ver10,2022.2.5,Win32,144.2793248,,,,,,,,,,,,71,testing_3,zh2j,i,zh2j_i,zh2j_1_izhi.wav,zh2j_8_iji.wav,,FALSE,FALSE,,,,,,,,,,,,,,f,0.1501,space,0.4835,,,,,,,,0,60,60,70,1,,
5aa8ebf089de8200013f8c48,2023-06-16_05h23.22.990,phx_ver10,2022.2.5,Win32,144.2793248,,,,,,,,,,,,47,testing_3,zh2sh,i,zh2sh_i,zh2sh_1_izhi.wav,zh2sh_8_ishi.wav,,FALSE,FALSE,,,,,,,,,,,,,,j,0.1515,space,0.4521,,,,,,,,0,61,61,46,1,,
5aa8ebf089de8200013f8c48,2023-06-16_05h23.22.990,phx_ver10,2022.2.5,Win32,144.2793248,,,,,,,,,,,,139,testing_3,sh2j,ei,sh2j_ei,sh2j_1_eishei.wav,sh2j_8_eijei.wav,,FALSE,FALSE,,,,,,,,,,,,,,j,0.1506,space,0.4174,,,,,,,,0,62,62,138,1,,
5aa8ebf089de8200013f8c48,2023-06-16_05h23.22.990,phx_ver10,2022.2.5,Win32,144.2793248,,,,,,,,,,,,102,testing_3,sh2x,ai,sh2x_ai,sh2x_8_aixai.wav,sh2x_8_aixai.wav,,TRUE,FALSE,,,,,,,,,,,,,,f,0.2332,space,0.4665,,,,,,,,0,63,63,101,1,,
5aa8ebf089de8200013f8c48,2023-06-16_05h23.22.990,phx_ver10,2022.2.5,Win32,144.2793248,,,,,,,,,,,,59,testing_3,zh2j,au,zh2j_au,zh2j_1_auzhau.wav,zh2j_8_aujau.wav,,FALSE,FALSE,,,,,,,,,,,,,,f,0.2332,space,0.4502,,,,,,,,0,64,64,58,1,,
5aa8ebf089de8200013f8c48,2023-06-16_05h23.22.990,phx_ver10,2022.2.5,Win32,144.2793248,,,,,,,,,,,,143,testing_3,sh2j,i,sh2j_i,sh2j_1_ishi.wav,sh2j_8_iji.wav,,FALSE,FALSE,,,,,,,,,,,,,,j,0.1668,space,0.3839,,,,,,,,0,65,65,142,1,,
5aa8ebf089de8200013f8c48,2023-06-16_05h23.22.990,phx_ver10,2022.2.5,Win32,144.2793248,,,,,,,,,,,,29,testing_3,zh2sh,ai,zh2sh_ai,zh2sh_1_aizhai.wav,zh2sh_1_aizhai.wav,,TRUE,FALSE,,,,,,,,,,,,,,f,0.2177,space,0.3996,,,,,,,,0,66,66,28,1,,
5aa8ebf089de8200013f8c48,2023-06-16_05h23.22.990,phx_ver10,2022.2.5,Win32,144.2793248,,,,,,,,,,,,65,testing_3,zh2j,ei,zh2j_ei,zh2j_1_eizhei.wav,zh2j_1_eizhei.wav,,TRUE,FALSE,,,,,,,,,,,,,,f,0.0999,space,0.4503,,,,,,,,0,67,67,64,1,,
5aa8ebf089de8200013f8c48,2023-06-16_05h23.22.990,phx_ver10,2022.2.5,Win32,144.2793248,,,,,,,,,,,,141,testing_3,sh2j,i,sh2j_i,sh2j_1_ishi.wav,sh2j_1_ishi.wav,,TRUE,FALSE,,,,,,,,,,,,,,f,0.0351,space,0.2663,,,,,,,,0,68,68,140,1,,
5aa8ebf089de8200013f8c48,2023-06-16_05h23.22.990,phx_ver10,2022.2.5,Win32,144.2793248,,,,,,,,,,,,21,testing_2,zh2x,ei,zh2x_ei,zh2x_1_eizhei.wav,zh2x_1_eizhei.wav,,TRUE,FALSE,,,,,,,,,,,,,,f,0.0666,space,0.3504,,,,,,,,0,69,69,20,1,,
5aa8ebf089de8200013f8c48,2023-06-16_05h23.22.990,phx_ver10,2022.2.5,Win32,144.2793248,,,,,,,,,,,,92,testing_3,j2x,ei,j2x_ei,j2x_8_eixei.wav,j2x_1_eijei.wav,,FALSE,FALSE,,,,,,,,,,,,,,j,1.6663,space,1.8502,,,,,,,,0,70,70,91,1,,
5aa8ebf089de8200013f8c48,2023-06-16_05h23.22.990,phx_ver10,2022.2.5,Win32,144.2793248,,,,,,,,,,,,51,testing_3,zh2j,a,zh2j_a,zh2j_1_azha.wav,zh2j_8_aja.wav,,FALSE,FALSE,,,,,,,,,,,,,,j,1.8,space,2.4501,,,,,,,,0,71,71,50,1,,
5aa8ebf089de8200013f8c48,2023-06-16_05h23.22.990,phx_ver10,2022.2.5,Win32,144.2793248,,,,,,,,,,,,117,testing_3,sh2x,i,sh2x_i,sh2x_1_ishi.wav,sh2x_1_ishi.wav,,TRUE,FALSE,,,,,,,,,,,,,,f,0.1004,space,0.3674,,,,,,,,0,72,72,116,1,,
5aa8ebf089de8200013f8c48,2023-06-16_05h23.22.990,phx_ver10,2022.2.5,Win32,144.2793248,,,,,,,,,,,,119,testing_3,sh2x,i,sh2x_i,sh2x_1_ishi.wav,sh2x_8_ixi.wav,,FALSE,FALSE,,,,,,,,,,,,,,j,0.0835,space,0.3333,,,,,,,,0,73,73,118,1,,
5aa8ebf089de8200013f8c48,2023-06-16_05h23.22.990,phx_ver10,2022.2.5,Win32,144.2793248,,,,,,,,,,,,70,testing_3,zh2j,i,zh2j_i,zh2j_8_iji.wav,zh2j_8_iji.wav,,TRUE,FALSE,,,,,,,,,,,,,,f,0.1513,space,0.3513,,,,,,,,0,74,74,69,1,,
5aa8ebf089de8200013f8c48,2023-06-16_05h23.22.990,phx_ver10,2022.2.5,Win32,144.2793248,,,,,,,,,,,,106,testing_3,sh2x,au,sh2x_au,sh2x_8_auxau.wav,sh2x_8_auxau.wav,,TRUE,FALSE,,,,,,,,,,,,,,f,0.1335,space,0.3168,,,,,,,,0,75,75,105,1,,
5aa8ebf089de8200013f8c48,2023-06-16_05h23.22.990,phx_ver10,2022.2.5,Win32,144.2793248,,,,,,,,,,,,103,testing_3,sh2x,ai,sh2x_ai,sh2x_1_aishai.wav,sh2x_8_aixai.wav,,FALSE,FALSE,,,,,,,,,,,,,,f,1.2176,space,1.4838,,,,,,,,0,76,76,102,1,,
5aa8ebf089de8200013f8c48,2023-06-16_05h23.22.990,phx_ver10,2022.2.5,Win32,144.2793248,,,,,,,,,,,,34,testing_3,zh2sh,au,zh2sh_au,zh2sh_8_aushau.wav,zh2sh_8_aushau.wav,,TRUE,FALSE,,,,,,,,,,,,,,f,0.1671,space,0.3338,,,,,,,,0,77,77,33,1,,
5aa8ebf089de8200013f8c48,2023-06-16_05h23.22.990,phx_ver10,2022.2.5,Win32,144.2793248,,,,,,,,,,,,78,testing_3,j2x,ai,j2x_ai,j2x_8_aixai.wav,j2x_8_aixai.wav,,TRUE,FALSE,,,,,,,,,,,,,,f,0.1475,space,0.3641,,,,,,,,0,78,78,77,1,,
5aa8ebf089de8200013f8c48,2023-06-16_05h23.22.990,phx_ver10,2022.2.5,Win32,144.2793248,,,,,,,,,,,,30,testing_3,zh2sh,ai,zh2sh_ai,zh2sh_8_aishai.wav,zh2sh_8_aishai.wav,,TRUE,FALSE,,,,,,,,,,,,,,f,0.9338,space,1.3005,,,,,,,,0,79,79,29,1,,
5aa8ebf089de8200013f8c48,2023-06-16_05h23.22.990,phx_ver10,2022.2.5,Win32,144.2793248,,,,,,,,,,,,14,testing_2,zh2x,ai,zh2x_ai,zh2x_8_aixai.wav,zh2x_8_aixai.wav,,TRUE,FALSE,,,,,,,,,,,,,,f,0.2012,space,0.5012,,,,,,,,0,80,80,13,1,,
5aa8ebf089de8200013f8c48,2023-06-16_05h23.22.990,phx_ver10,2022.2.5,Win32,144.2793248,,,,,,,,,,,,83,testing_3,j2x,au,j2x_au,j2x_1_aujau.wav,j2x_8_auxau.wav,,FALSE,FALSE,,,,,,,,,,,,,,j,0.1838,space,0.4031,,,,,,,,0,81,81,82,1,,
5aa8ebf089de8200013f8c48,2023-06-16_05h23.22.990,phx_ver10,2022.2.5,Win32,144.2793248,,,,,,,,,,,,98,testing_3,sh2x,a,sh2x_a,sh2x_8_axa.wav,sh2x_8_axa.wav,,TRUE,FALSE,,,,,,,,,,,,,,f,0.1673,space,0.616,,,,,,,,0,82,82,97,1,,
5aa8ebf089de8200013f8c48,2023-06-16_05h23.22.990,phx_ver10,2022.2.5,Win32,144.2793248,,,,,,,,,,,,85,testing_3,j2x,e,j2x_e,j2x_1_eje.wav,j2x_1_eje.wav,,TRUE,FALSE,,,,,,,,,,,,,,f,0.1674,space,0.5839,,,,,,,,0,83,83,84,1,,
5aa8ebf089de8200013f8c48,2023-06-16_05h23.22.990,phx_ver10,2022.2.5,Win32,144.2793248,,,,,,,,,,,,121,testing_3,sh2j,a,sh2j_a,sh2j_1_asha.wav,sh2j_1_asha.wav,,TRUE,FALSE,,,,,,,,,,,,,,f,0.3173,space,0.5668,,,,,,,,0,84,84,120,1,,
5aa8ebf089de8200013f8c48,2023-06-16_05h23.22.990,phx_ver10,2022.2.5,Win32,144.2793248,,,,,,,,,,,,110,testing_3,sh2x,e,sh2x_e,sh2x_8_exe.wav,sh2x_8_exe.wav,,TRUE,FALSE,,,,,,,,,,,,,,f,0.1846,space,0.5344,,,,,,,,0,85,85,109,1,,
5aa8ebf089de8200013f8c48,2023-06-16_05h23.22.990,phx_ver10,2022.2.5,Win32,144.2793248,,,,,,,,,,,,138,testing_3,sh2j,ei,sh2j_ei,sh2j_8_eijei.wav,sh2j_8_eijei.wav,,TRUE,FALSE,,,,,,,,,,,,,,f,0.6676,space,1.0174,,,,,,,,0,86,86,137,1,,
5aa8ebf089de8200013f8c48,2023-06-16_05h23.22.990,phx_ver10,2022.2.5,Win32,144.2793248,,,,,,,,,,,,122,testing_3,sh2j,a,sh2j_a,sh2j_8_aja.wav,sh2j_8_aja.wav,,TRUE,FALSE,,,,,,,,,,,,,,f,0.3014,space,0.6013,,,,,,,,0,87,87,121,1,,
5aa8ebf089de8200013f8c48,2023-06-16_05h23.22.990,phx_ver10,2022.2.5,Win32,144.2793248,,,,,,,,,,,,55,testing_3,zh2j,ai,zh2j_ai,zh2j_1_aizhai.wav,zh2j_8_aijai.wav,,FALSE,FALSE,,,,,,,,,,,,,,f,0.5505,space,0.7998,,,,,,,,0,88,88,54,1,,
5aa8ebf089de8200013f8c48,2023-06-16_05h23.22.990,phx_ver10,2022.2.5,Win32,144.2793248,,,,,,,,,,,,75,testing_3,j2x,a,j2x_a,j2x_1_aja.wav,j2x_8_axa.wav,,FALSE,FALSE,,,,,,,,,,,,,,j,0.3173,space,0.5671,,,,,,,,0,89,89,74,1,,
5aa8ebf089de8200013f8c48,2023-06-16_05h23.22.990,phx_ver10,2022.2.5,Win32,144.2793248,,,,,,,,,,,,144,testing_3,sh2j,i,sh2j_i,sh2j_8_iji.wav,sh2j_1_ishi.wav,,FALSE,FALSE,,,,,,,,,,,,,,j,0.1838,space,0.4668,,,,,,,,0,90,90,143,1,,
5aa8ebf089de8200013f8c48,2023-06-16_05h23.22.990,phx_ver10,2022.2.5,Win32,144.2793248,,,,,,,,,,,,48,testing_3,zh2sh,i,zh2sh_i,zh2sh_8_ishi.wav,zh2sh_1_izhi.wav,,FALSE,FALSE,,,,,,,,,,,,,,j,0.7681,space,1.1015,,,,,,,,0,91,91,47,1,,
5aa8ebf089de8200013f8c48,2023-06-16_05h23.22.990,phx_ver10,2022.2.5,Win32,144.2793248,,,,,,,,,,,,128,testing_3,sh2j,ai,sh2j_ai,sh2j_8_aijai.wav,sh2j_1_aishai.wav,,FALSE,FALSE,,,,,,,,,,,,,,j,0.1339,space,0.517,,,,,,,,0,92,92,127,1,,
5aa8ebf089de8200013f8c48,2023-06-16_05h23.22.990,phx_ver10,2022.2.5,Win32,144.2793248,,,,,,,,,,,,97,testing_3,sh2x,a,sh2x_a,sh2x_1_asha.wav,sh2x_1_asha.wav,,TRUE,FALSE,,,,,,,,,,,,,,f,0.2505,space,0.4844,,,,,,,,0,93,93,96,1,,
5aa8ebf089de8200013f8c48,2023-06-16_05h23.22.990,phx_ver10,2022.2.5,Win32,144.2793248,,,,,,,,,,,,87,testing_3,j2x,e,j2x_e,j2x_1_eje.wav,j2x_8_exe.wav,,FALSE,FALSE,,,,,,,,,,,,,,j,0.2166,space,0.4005,,,,,,,,0,94,94,86,1,,
5aa8ebf089de8200013f8c48,2023-06-16_05h23.22.990,phx_ver10,2022.2.5,Win32,144.2793248,,,,,,,,,,,,57,testing_3,zh2j,au,zh2j_au,zh2j_1_auzhau.wav,zh2j_1_auzhau.wav,,TRUE,FALSE,,,,,,,,,,,,,,f,0.3681,space,0.6018,,,,,,,,0,95,95,56,1,,
5aa8ebf089de8200013f8c48,2023-06-16_05h23.22.990,phx_ver10,2022.2.5,Win32,144.2793248,,,,,,,,,,,,124,testing_3,sh2j,a,sh2j_a,sh2j_8_aja.wav,sh2j_1_asha.wav,,FALSE,FALSE,,,,,,,,,,,,,,j,0.1839,space,0.5337,,,,,,,,0,96,96,123,1,,
5aa8ebf089de8200013f8c48,2023-06-16_05h23.22.990,phx_ver10,2022.2.5,Win32,144.2793248,,,,,,,,,,,,24,testing_2,zh2x,ei,zh2x_ei,zh2x_8_eixei.wav,zh2x_1_eizhei.wav,,FALSE,FALSE,,,,,,,,,,,,,,j,0.1854,space,0.4172,,,,,,,,0,97,97,23,1,,
5aa8ebf089de8200013f8c48,2023-06-16_05h23.22.990,phx_ver10,2022.2.5,Win32,144.2793248,,,,,,,,,,,,74,testing_3,j2x,a,j2x_a,j2x_8_axa.wav,j2x_8_axa.wav,,TRUE,FALSE,,,,,,,,,,,,,,f,0.2335,space,0.4503,,,,,,,,0,98,98,73,1,,
5aa8ebf089de8200013f8c48,2023-06-16_05h23.22.990,phx_ver10,2022.2.5,Win32,144.2793248,,,,,,,,,,,,90,testing_3,j2x,ei,j2x_ei,j2x_8_eixei.wav,j2x_8_eixei.wav,,TRUE,FALSE,,,,,,,,,,,,,,f,0.234,space,0.6341,,,,,,,,0,99,99,89,1,,
5aa8ebf089de8200013f8c48,2023-06-16_05h23.22.990,phx_ver10,2022.2.5,Win32,144.2793248,,,,,,,,,,,,61,testing_3,zh2j,e,zh2j_e,zh2j_1_ezhe.wav,zh2j_1_ezhe.wav,,TRUE,FALSE,,,,,,,,,,,,,,f,0.5847,space,0.8842,,,,,,,,0,100,100,60,1,,
5aa8ebf089de8200013f8c48,2023-06-16_05h23.22.990,phx_ver10,2022.2.5,Win32,144.2793248,,,,,,,,,,,,37,testing_3,zh2sh,e,zh2sh_e,zh2sh_1_ezhe.wav,zh2sh_1_ezhe.wav,,TRUE,FALSE,,,,,,,,,,,,,,f,0.2679,space,0.5342,,,,,,,,0,101,101,36,1,,
5aa8ebf089de8200013f8c48,2023-06-16_05h23.22.990,phx_ver10,2022.2.5,Win32,144.2793248,,,,,,,,,,,,82,testing_3,j2x,au,j2x_au,j2x_8_auxau.wav,j2x_8_auxau.wav,,TRUE,FALSE,,,,,,,,,,,,,,f,0.1832,space,0.5839,,,,,,,,0,102,102,81,1,,
5aa8ebf089de8200013f8c48,2023-06-16_05h23.22.990,phx_ver10,2022.2.5,Win32,144.2793248,,,,,,,,,,,,123,testing_3,sh2j,a,sh2j_a,sh2j_1_asha.wav,sh2j_8_aja.wav,,FALSE,FALSE,,,,,,,,,,,,,,j,0.2165,space,0.4838,,,,,,,,0,103,103,122,1,,
5aa8ebf089de8200013f8c48,2023-06-16_05h23.22.990,phx_ver10,2022.2.5,Win32,144.2793248,,,,,,,,,,,,101,testing_3,sh2x,ai,sh2x_ai,sh2x_1_aishai.wav,sh2x_1_aishai.wav,,TRUE,FALSE,,,,,,,,,,,,,,f,0.2334,space,0.7173,,,,,,,,0,104,104,100,1,,
5aa8ebf089de8200013f8c48,2023-06-16_05h23.22.990,phx_ver10,2022.2.5,Win32,144.2793248,,,,,,,,,,,,93,testing_3,j2x,i,j2x_i,j2x_1_iji.wav,j2x_1_iji.wav,,TRUE,FALSE,,,,,,,,,,,,,,f,0.3174,space,0.6002,,,,,,,,0,105,105,92,1,,
5aa8ebf089de8200013f8c48,2023-06-16_05h23.22.990,phx_ver10,2022.2.5,Win32,144.2793248,,,,,,,,,,,,40,testing_3,zh2sh,e,zh2sh_e,zh2sh_8_eshe.wav,zh2sh_1_ezhe.wav,,FALSE,FALSE,,,,,,,,,,,,,,j,0.2205,space,0.4352,,,,,,,,0,106,106,39,1,,
5aa8ebf089de8200013f8c48,2023-06-16_05h23.22.990,phx_ver10,2022.2.5,Win32,144.2793248,,,,,,,,,,,,36,testing_3,zh2sh,au,zh2sh_au,zh2sh_8_aushau.wav,zh2sh_1_auzhau.wav,,FALSE,FALSE,,,,,,,,,,,,,,j,0.2005,space,0.4168,,,,,,,,0,107,107,35,1,,
5aa8ebf089de8200013f8c48,2023-06-16_05h23.22.990,phx_ver10,2022.2.5,Win32,144.2793248,,,,,,,,,,,,133,testing_3,sh2j,e,sh2j_e,sh2j_1_eshe.wav,sh2j_1_eshe.wav,,TRUE,FALSE,,,,,,,,,,,,,,f,0.1833,space,0.45,,,,,,,,0,108,108,132,1,,
5aa8ebf089de8200013f8c48,2023-06-16_05h23.22.990,phx_ver10,2022.2.5,Win32,144.2793248,,,,,,,,,,,,38,testing_3,zh2sh,e,zh2sh_e,zh2sh_8_eshe.wav,zh2sh_8_eshe.wav,,TRUE,FALSE,,,,,,,,,,,,,,f,0.251,space,0.5339,,,,,,,,0,109,109,37,1,,
5aa8ebf089de8200013f8c48,2023-06-16_05h23.22.990,phx_ver10,2022.2.5,Win32,144.2793248,,,,,,,,,,,,41,testing_3,zh2sh,ei,zh2sh_ei,zh2sh_1_eizhei.wav,zh2sh_1_eizhei.wav,,TRUE,FALSE,,,,,,,,,,,,,,f,0.8843,space,1.1171,,,,,,,,0,110,110,40,1,,
5aa8ebf089de8200013f8c48,2023-06-16_05h23.22.990,phx_ver10,2022.2.5,Win32,144.2793248,,,,,,,,,,,,100,testing_3,sh2x,a,sh2x_a,sh2x_8_axa.wav,sh2x_1_asha.wav,,FALSE,FALSE,,,,,,,,,,,,,,j,3.5332,space,4.5167,,,,,,,,0,111,111,99,1,,
5aa8ebf089de8200013f8c48,2023-06-16_05h23.22.990,phx_ver10,2022.2.5,Win32,144.2793248,,,,,,,,,,,,127,testing_3,sh2j,ai,sh2j_ai,sh2j_1_aishai.wav,sh2j_8_aijai.wav,,FALSE,FALSE,,,,,,,,,,,,,,j,0.1341,space,0.501,,,,,,,,0,112,112,126,1,,
5aa8ebf089de8200013f8c48,2023-06-16_05h23.22.990,phx_ver10,2022.2.5,Win32,144.2793248,,,,,,,,,,,,27,testing_3,zh2sh,a,zh2sh_a,zh2sh_1_azha.wav,zh2sh_8_asha.wav,,FALSE,FALSE,,,,,,,,,,,,,,j,0.1837,space,0.4006,,,,,,,,0,113,113,26,1,,
5aa8ebf089de8200013f8c48,2023-06-16_05h23.22.990,phx_ver10,2022.2.5,Win32,144.2793248,,,,,,,,,,,,140,testing_3,sh2j,ei,sh2j_ei,sh2j_8_eijei.wav,sh2j_1_eishei.wav,,FALSE,FALSE,,,,,,,,,,,,,,j,0.216,space,0.4337,,,,,,,,0,114,114,139,1,,
5aa8ebf089de8200013f8c48,2023-06-16_05h23.22.990,phx_ver10,2022.2.5,Win32,144.2793248,,,,,,,,,,,,95,testing_3,j2x,i,j2x_i,j2x_1_iji.wav,j2x_8_ixi.wav,,FALSE,FALSE,,,,,,,,,,,,,,j,0.2341,space,0.534,,,,,,,,0,115,115,94,1,,
5aa8ebf089de8200013f8c48,2023-06-16_05h23.22.990,phx_ver10,2022.2.5,Win32,144.2793248,,,,,,,,,,,,63,testing_3,zh2j,e,zh2j_e,zh2j_1_ezhe.wav,zh2j_8_eje.wav,,FALSE,FALSE,,,,,,,,,,,,,,f,0.7672,space,1.2005,,,,,,,,0,116,116,62,1,,
5aa8ebf089de8200013f8c48,2023-06-16_05h23.22.990,phx_ver10,2022.2.5,Win32,144.2793248,,,,,,,,,,,,66,testing_3,zh2j,ei,zh2j_ei,zh2j_8_eijei.wav,zh2j_8_eijei.wav,,TRUE,FALSE,,,,,,,,,,,,,,f,0.2015,space,0.5683,,,,,,,,0,117,117,65,1,,
5aa8ebf089de8200013f8c48,2023-06-16_05h23.22.990,phx_ver10,2022.2.5,Win32,144.2793248,,,,,,,,,,,,42,testing_3,zh2sh,ei,zh2sh_ei,zh2sh_8_eishei.wav,zh2sh_8_eishei.wav,,TRUE,FALSE,,,,,,,,,,,,,,f,0.2169,space,0.5005,,,,,,,,0,118,118,41,1,,
5aa8ebf089de8200013f8c48,2023-06-16_05h23.22.990,phx_ver10,2022.2.5,Win32,144.2793248,,,,,,,,,,,,105,testing_3,sh2x,au,sh2x_au,sh2x_1_aushau.wav,sh2x_1_aushau.wav,,TRUE,FALSE,,,,,,,,,,,,,,f,0.2335,space,0.5171,,,,,,,,0,119,119,104,1,,
5aa8ebf089de8200013f8c48,2023-06-16_05h23.22.990,phx_ver10,2022.2.5,Win32,144.2793248,,,,,,,,,,,,60,testing_3,zh2j,au,zh2j_au,zh2j_8_aujau.wav,zh2j_1_auzhau.wav,,FALSE,FALSE,,,,,,,,,,,,,,f,0.1838,space,0.4505,,,,,,,,0,120,120,59,1,,
5aa8ebf089de8200013f8c48,2023-06-16_05h23.22.990,phx_ver10,2022.2.5,Win32,144.2793248,,,,,,,,,,,,58,testing_3,zh2j,au,zh2j_au,zh2j_8_aujau.wav,zh2j_8_aujau.wav,,TRUE,FALSE,,,,,,,,,,,,,,f,0.3001,space,0.5169,,,,,,,,0,121,121,57,1,,
5aa8ebf089de8200013f8c48,2023-06-16_05h23.22.990,phx_ver10,2022.2.5,Win32,144.2793248,,,,,,,,,,,,73,testing_3,j2x,a,j2x_a,j2x_1_aja.wav,j2x_1_aja.wav,,TRUE,FALSE,,,,,,,,,,,,,,f,0.4491,space,0.6992,,,,,,,,0,122,122,72,1,,
5aa8ebf089de8200013f8c48,2023-06-16_05h23.22.990,phx_ver10,2022.2.5,Win32,144.2793248,,,,,,,,,,,,94,testing_3,j2x,i,j2x_i,j2x_8_ixi.wav,j2x_8_ixi.wav,,TRUE,FALSE,,,,,,,,,,,,,,f,0.2014,space,0.4849,,,,,,,,0,123,123,93,1,,
5aa8ebf089de8200013f8c48,2023-06-16_05h23.22.990,phx_ver10,2022.2.5,Win32,144.2793248,,,,,,,,,,,,56,testing_3,zh2j,ai,zh2j_ai,zh2j_8_aijai.wav,zh2j_1_aizhai.wav,,FALSE,FALSE,,,,,,,,,,,,,,f,0.2017,space,0.4648,,,,,,,,0,124,124,55,1,,
5aa8ebf089de8200013f8c48,2023-06-16_05h23.22.990,phx_ver10,2022.2.5,Win32,144.2793248,,,,,,,,,,,,3,testing_1,zh2x,a,zh2x_a,zh2x_1_azha.wav,zh2x_8_axa.wav,,FALSE,TRUE,,,,,,,,,,,,,,j,0.2501,space,0.5335,,,,,,,,0,125,125,2,1,,
5aa8ebf089de8200013f8c48,2023-06-16_05h23.22.990,phx_ver10,2022.2.5,Win32,144.2793248,,,,,,,,,,,,25,testing_3,zh2sh,a,zh2sh_a,zh2sh_1_azha.wav,zh2sh_1_azha.wav,,TRUE,FALSE,,,,,,,,,,,,,,f,0.284,space,0.5673,,,,,,,,0,126,126,24,1,,
5aa8ebf089de8200013f8c48,2023-06-16_05h23.22.990,phx_ver10,2022.2.5,Win32,144.2793248,,,,,,,,,,,,49,testing_3,zh2j,a,zh2j_a,zh2j_1_azha.wav,zh2j_1_azha.wav,,TRUE,FALSE,,,,,,,,,,,,,,f,0.3166,space,0.5006,,,,,,,,0,127,127,48,1,,
5aa8ebf089de8200013f8c48,2023-06-16_05h23.22.990,phx_ver10,2022.2.5,Win32,144.2793248,,,,,,,,,,,,23,testing_2,zh2x,ei,zh2x_ei,zh2x_1_eizhei.wav,zh2x_8_eixei.wav,,FALSE,FALSE,,,,,,,,,,,,,,j,0.1667,space,0.4334,,,,,,,,0,128,128,22,1,,
5aa8ebf089de8200013f8c48,2023-06-16_05h23.22.990,phx_ver10,2022.2.5,Win32,144.2793248,,,,,,,,,,,,54,testing_3,zh2j,ai,zh2j_ai,zh2j_8_aijai.wav,zh2j_8_aijai.wav,,TRUE,FALSE,,,,,,,,,,,,,,f,0.1835,space,0.4671,,,,,,,,0,129,129,53,1,,
5aa8ebf089de8200013f8c48,2023-06-16_05h23.22.990,phx_ver10,2022.2.5,Win32,144.2793248,,,,,,,,,,,,4,testing_1,zh2x,a,zh2x_a,zh2x_8_axa.wav,zh2x_1_azha.wav,,FALSE,TRUE,,,,,,,,,,,,,,j,0.1667,space,0.4166,,,,,,,,0,130,130,3,1,,
5aa8ebf089de8200013f8c48,2023-06-16_05h23.22.990,phx_ver10,2022.2.5,Win32,144.2793248,,,,,,,,,,,,67,testing_3,zh2j,ei,zh2j_ei,zh2j_1_eizhei.wav,zh2j_8_eijei.wav,,FALSE,FALSE,,,,,,,,,,,,,,f,1.1666,space,1.4338,,,,,,,,0,131,131,66,1,,
5aa8ebf089de8200013f8c48,2023-06-16_05h23.22.990,phx_ver10,2022.2.5,Win32,144.2793248,,,,,,,,,,,,109,testing_3,sh2x,e,sh2x_e,sh2x_1_eshe.wav,sh2x_1_eshe.wav,,TRUE,FALSE,,,,,,,,,,,,,,f,0.1837,space,0.4511,,,,,,,,0,132,132,108,1,,
5aa8ebf089de8200013f8c48,2023-06-16_05h23.22.990,phx_ver10,2022.2.5,Win32,144.2793248,,,,,,,,,,,,50,testing_3,zh2j,a,zh2j_a,zh2j_8_aja.wav,zh2j_8_aja.wav,,TRUE,FALSE,,,,,,,,,,,,,,f,0.5339,space,10.2344,,,,,,,,0,133,133,49,1,,
5aa8ebf089de8200013f8c48,2023-06-16_05h23.22.990,phx_ver10,2022.2.5,Win32,144.2793248,,,,,,,,,,,,62,testing_3,zh2j,e,zh2j_e,zh2j_8_eje.wav,zh2j_8_eje.wav,,TRUE,FALSE,,,,,,,,,,,,,,f,0.3002,space,0.5173,,,,,,,,0,134,134,61,1,,
5aa8ebf089de8200013f8c48,2023-06-16_05h23.22.990,phx_ver10,2022.2.5,Win32,144.2793248,,,,,,,,,,,,11,testing_1,zh2x,i,zh2x_i,zh2x_1_izhi.wav,zh2x_8_ixi.wav,,FALSE,TRUE,,,,,,,,,,,,,,j,0.0839,space,0.4669,,,,,,,,0,135,135,10,1,,
5aa8ebf089de8200013f8c48,2023-06-16_05h23.22.990,phx_ver10,2022.2.5,Win32,144.2793248,,,,,,,,,,,,64,testing_3,zh2j,e,zh2j_e,zh2j_8_eje.wav,zh2j_1_ezhe.wav,,FALSE,FALSE,,,,,,,,,,,,,,f,0.2172,space,0.4172,,,,,,,,0,136,136,63,1,,
5aa8ebf089de8200013f8c48,2023-06-16_05h23.22.990,phx_ver10,2022.2.5,Win32,144.2793248,,,,,,,,,,,,46,testing_3,zh2sh,i,zh2sh_i,zh2sh_8_ishi.wav,zh2sh_8_ishi.wav,,TRUE,FALSE,,,,,,,,,,,,,,f,0.1833,space,0.3831,,,,,,,,0,137,137,45,1,,
5aa8ebf089de8200013f8c48,2023-06-16_05h23.22.990,phx_ver10,2022.2.5,Win32,144.2793248,,,,,,,,,,,,135,testing_3,sh2j,e,sh2j_e,sh2j_1_eshe.wav,sh2j_8_eje.wav,,FALSE,FALSE,,,,,,,,,,,,,,j,0.2016,space,0.4177,,,,,,,,0,138,138,134,1,,
5aa8ebf089de8200013f8c48,2023-06-16_05h23.22.990,phx_ver10,2022.2.5,Win32,144.2793248,,,,,,,,,,,,136,testing_3,sh2j,e,sh2j_e,sh2j_8_eje.wav,sh2j_1_eshe.wav,,FALSE,FALSE,,,,,,,,,,,,,,j,0.2169,space,0.4004,,,,,,,,0,139,139,135,1,,
5aa8ebf089de8200013f8c48,2023-06-16_05h23.22.990,phx_ver10,2022.2.5,Win32,144.2793248,,,,,,,,,,,,114,testing_3,sh2x,ei,sh2x_ei,sh2x_8_eixei.wav,sh2x_8_eixei.wav,,TRUE,FALSE,,,,,,,,,,,,,,f,0.6671,space,0.8836,,,,,,,,0,140,140,113,1,,
5aa8ebf089de8200013f8c48,2023-06-16_05h23.22.990,phx_ver10,2022.2.5,Win32,144.2793248,,,,,,,,,,,,112,testing_3,sh2x,e,sh2x_e,sh2x_8_exe.wav,sh2x_1_eshe.wav,,FALSE,FALSE,,,,,,,,,,,,,,f,0.3014,space,0.4679,,,,,,,,0,141,141,111,1,,
5aa8ebf089de8200013f8c48,2023-06-16_05h23.22.990,phx_ver10,2022.2.5,Win32,144.2793248,,,,,,,,,,,,131,testing_3,sh2j,au,sh2j_au,sh2j_1_aushau.wav,sh2j_8_aujau.wav,,FALSE,FALSE,,,,,,,,,,,,,,j,0.0838,space,0.4332,,,,,,,,0,142,142,130,1,,
5aa8ebf089de8200013f8c48,2023-06-16_05h23.22.990,phx_ver10,2022.2.5,Win32,144.2793248,,,,,,,,,,,,9,testing_1,zh2x,i,zh2x_i,zh2x_1_izhi.wav,zh2x_1_izhi_copy.wav,,TRUE,TRUE,,,,,,,,,,,,,,f,0.2477,space,0.4644,,,,,,,,0,143,143,8,1,,
5aa8ebf089de8200013f8c48,2023-06-16_05h23.22.990,phx_ver10,2022.2.5,Win32,144.2793248,,,,,,,,,,,,,,,,,,,,,,,,,,,,,,,,,,,,,,,,,,,,,,,,,,,space,4.6829
