participant,date,expName,psychopyVersion,OS,frameRate,space_1.keys,space_1.rt,space_2.keys,space_2.rt,space_train.keys,space_train.rt,training.thisRepN,training.thisTrialN,training.thisN,training.thisIndex,training.ran,token_id,task,continuum,vowel,series,sound_1,sound_2,img,same,trained,FJ_attn.keys,FJ_attn.rt,space_attn.keys,space_attn.rt,if_attn_test.thisRepN,if_attn_test.thisTrialN,if_attn_test.thisN,if_attn_test.thisIndex,if_attn_test.ran,space_trans_1.keys,space_trans_1.rt,space_trans_11.keys,space_trans_11.rt,FJ_test.keys,FJ_test.rt,space_test.keys,space_test.rt,testing_pre.thisRepN,testing_pre.thisTrialN,testing_pre.thisN,testing_pre.thisIndex,testing_pre.ran,space_trans_2.keys,space_trans_2.rt,testing_all.thisRepN,testing_all.thisTrialN,testing_all.thisN,testing_all.thisIndex,testing_all.ran,space_ending.keys,space_ending.rt
5b216d7dc33f820001a2e1ef,2023-06-16_10h02.39.207,phx_ver10,2022.2.5,Win32,61.2257393,,,,,,,,,,,,,,,,,,,,,,,,,,,,,,,,,,,,,,,,,,,,,,,,,,,,
5b216d7dc33f820001a2e1ef,2023-06-16_10h02.39.207,phx_ver10,2022.2.5,Win32,61.2257393,space,3.7518,,,,,,,,,,,,,,,,,,,,,,,,,,,,,,,,,,,,,,,,,,,,,,,,,,
5b216d7dc33f820001a2e1ef,2023-06-16_10h02.39.207,phx_ver10,2022.2.5,Win32,61.2257393,,,space,5.7427,,,,,,,,,,,,,,,,,,,,,,,,,,,,,,,,,,,,,,,,,,,,,,,,
5b216d7dc33f820001a2e1ef,2023-06-16_10h02.39.207,phx_ver10,2022.2.5,Win32,61.2257393,,,,,space,1.3695,0,0,0,0,1,1,training,zh2x,a,zh2x_a,zh2x_1_azha.wav,,azha.jpg,,,,,,,,,,,,,,,,,,,,,,,,,,,,,,,,,
5b216d7dc33f820001a2e1ef,2023-06-16_10h02.39.207,phx_ver10,2022.2.5,Win32,61.2257393,,,,,space,0.3029,0,1,1,45,1,46,training,zh2x,i,zh2x_i,zh2x_7_ixi.wav,,ixi.jpg,,,,,,,,,,,,,,,,,,,,,,,,,,,,,,,,,
5b216d7dc33f820001a2e1ef,2023-06-16_10h02.39.207,phx_ver10,2022.2.5,Win32,61.2257393,,,,,space,0.2636,0,2,2,46,1,47,training,zh2x,i,zh2x_i,zh2x_7_ixi.wav,,ixi.jpg,,,,,,,,,,,,,,,,,,,,,,,,,,,,,,,,,
5b216d7dc33f820001a2e1ef,2023-06-16_10h02.39.207,phx_ver10,2022.2.5,Win32,61.2257393,,,,,space,0.3406,0,3,3,9,1,10,training,zh2x,a,zh2x_a,zh2x_6_axa.wav,,axa.jpg,,,,,,,,,,,,,,,,,,,,,,,,,,,,,,,,,
5b216d7dc33f820001a2e1ef,2023-06-16_10h02.39.207,phx_ver10,2022.2.5,Win32,61.2257393,,,,,space,0.2748,0,4,4,13,1,14,training,zh2x,a,zh2x_a,zh2x_7_axa.wav,,axa.jpg,,,,,,,,,,,,,,,,,,,,,,,,,,,,,,,,,
5b216d7dc33f820001a2e1ef,2023-06-16_10h02.39.207,phx_ver10,2022.2.5,Win32,61.2257393,,,,,space,0.3372,0,5,5,42,1,43,training,zh2x,i,zh2x_i,zh2x_6_ixi.wav,,ixi.jpg,,,,,,,,,,,,,,,,,,,,,,,,,,,,,,,,,
5b216d7dc33f820001a2e1ef,2023-06-16_10h02.39.207,phx_ver10,2022.2.5,Win32,61.2257393,,,,,,,,,,,,,attn_test,,,,zh2x_8_ixi.wav,zh2x_1_azha.wav,ixi.jpg,LEFT,,f,7.7366,space,9.7715,0,0,0,0,1,,,,,,,,,,,,,,,,,,,,,,
5b216d7dc33f820001a2e1ef,2023-06-16_10h02.39.207,phx_ver10,2022.2.5,Win32,61.2257393,,,,,space,0.6568,0,6,6,37,1,38,training,zh2x,i,zh2x_i,zh2x_3_izhi.wav,,izhi.jpg,,,,,,,,,,,,,,,,,,,,,,,,,,,,,,,,,
5b216d7dc33f820001a2e1ef,2023-06-16_10h02.39.207,phx_ver10,2022.2.5,Win32,61.2257393,,,,,space,0.1016,0,7,7,1,1,2,training,zh2x,a,zh2x_a,zh2x_2_azha.wav,,azha.jpg,,,,,,,,,,,,,,,,,,,,,,,,,,,,,,,,,
5b216d7dc33f820001a2e1ef,2023-06-16_10h02.39.207,phx_ver10,2022.2.5,Win32,61.2257393,,,,,space,0.5513,0,8,8,12,1,13,training,zh2x,a,zh2x_a,zh2x_7_axa.wav,,axa.jpg,,,,,,,,,,,,,,,,,,,,,,,,,,,,,,,,,
5b216d7dc33f820001a2e1ef,2023-06-16_10h02.39.207,phx_ver10,2022.2.5,Win32,61.2257393,,,,,space,0.0007,0,9,9,44,1,45,training,zh2x,i,zh2x_i,zh2x_7_ixi.wav,,ixi.jpg,,,,,,,,,,,,,,,,,,,,,,,,,,,,,,,,,
5b216d7dc33f820001a2e1ef,2023-06-16_10h02.39.207,phx_ver10,2022.2.5,Win32,61.2257393,,,,,space,0.2403,0,10,10,22,1,23,training,zh2x,e,zh2x_e,zh2x_3_ezhe.wav,,ezhe.jpg,,,,,,,,,,,,,,,,,,,,,,,,,,,,,,,,,
5b216d7dc33f820001a2e1ef,2023-06-16_10h02.39.207,phx_ver10,2022.2.5,Win32,61.2257393,,,,,space,0.5534,0,11,11,11,1,12,training,zh2x,a,zh2x_a,zh2x_7_axa.wav,,axa.jpg,,,,,,,,,,,,,,,,,,,,,,,,,,,,,,,,,
5b216d7dc33f820001a2e1ef,2023-06-16_10h02.39.207,phx_ver10,2022.2.5,Win32,61.2257393,,,,,,,,,,,,,attn_test,,,,zh2x_8_exe.wav,zh2x_1_ezhe.wav,ezhe.jpg,RIGHT,,f,3.6741,space,4.258,0,0,0,0,1,,,,,,,,,,,,,,,,,,,,,,
5b216d7dc33f820001a2e1ef,2023-06-16_10h02.39.207,phx_ver10,2022.2.5,Win32,61.2257393,,,,,space,0.1036,0,12,12,4,1,5,training,zh2x,a,zh2x_a,zh2x_2_azha.wav,,azha.jpg,,,,,,,,,,,,,,,,,,,,,,,,,,,,,,,,,
5b216d7dc33f820001a2e1ef,2023-06-16_10h02.39.207,phx_ver10,2022.2.5,Win32,61.2257393,,,,,space,0.4505,0,13,13,3,1,4,training,zh2x,a,zh2x_a,zh2x_2_azha.wav,,azha.jpg,,,,,,,,,,,,,,,,,,,,,,,,,,,,,,,,,
5b216d7dc33f820001a2e1ef,2023-06-16_10h02.39.207,phx_ver10,2022.2.5,Win32,61.2257393,,,,,space,0.2178,0,14,14,35,1,36,training,zh2x,i,zh2x_i,zh2x_2_izhi.wav,,izhi.jpg,,,,,,,,,,,,,,,,,,,,,,,,,,,,,,,,,
5b216d7dc33f820001a2e1ef,2023-06-16_10h02.39.207,phx_ver10,2022.2.5,Win32,61.2257393,,,,,space,0.5874,0,15,15,17,1,18,training,zh2x,e,zh2x_e,zh2x_2_ezhe.wav,,ezhe.jpg,,,,,,,,,,,,,,,,,,,,,,,,,,,,,,,,,
5b216d7dc33f820001a2e1ef,2023-06-16_10h02.39.207,phx_ver10,2022.2.5,Win32,61.2257393,,,,,space,0.4676,0,16,16,33,1,34,training,zh2x,i,zh2x_i,zh2x_2_izhi.wav,,izhi.jpg,,,,,,,,,,,,,,,,,,,,,,,,,,,,,,,,,
5b216d7dc33f820001a2e1ef,2023-06-16_10h02.39.207,phx_ver10,2022.2.5,Win32,61.2257393,,,,,space,0.5685,0,17,17,19,1,20,training,zh2x,e,zh2x_e,zh2x_2_ezhe.wav,,ezhe.jpg,,,,,,,,,,,,,,,,,,,,,,,,,,,,,,,,,
5b216d7dc33f820001a2e1ef,2023-06-16_10h02.39.207,phx_ver10,2022.2.5,Win32,61.2257393,,,,,,,,,,,,,attn_test,,,,zh2x_1_ezhe.wav,zh2x_1_izhi.wav,ezhe.jpg,LEFT,,f,0.3173,space,0.6351,0,0,0,0,1,,,,,,,,,,,,,,,,,,,,,,
5b216d7dc33f820001a2e1ef,2023-06-16_10h02.39.207,phx_ver10,2022.2.5,Win32,61.2257393,,,,,space,0.2842,0,18,18,20,1,21,training,zh2x,e,zh2x_e,zh2x_2_ezhe.wav,,ezhe.jpg,,,,,,,,,,,,,,,,,,,,,,,,,,,,,,,,,
5b216d7dc33f820001a2e1ef,2023-06-16_10h02.39.207,phx_ver10,2022.2.5,Win32,61.2257393,,,,,space,0.3205,0,19,19,27,1,28,training,zh2x,e,zh2x_e,zh2x_7_exe.wav,,exe.jpg,,,,,,,,,,,,,,,,,,,,,,,,,,,,,,,,,
5b216d7dc33f820001a2e1ef,2023-06-16_10h02.39.207,phx_ver10,2022.2.5,Win32,61.2257393,,,,,space,0.5873,0,20,20,26,1,27,training,zh2x,e,zh2x_e,zh2x_6_exe.wav,,exe.jpg,,,,,,,,,,,,,,,,,,,,,,,,,,,,,,,,,
5b216d7dc33f820001a2e1ef,2023-06-16_10h02.39.207,phx_ver10,2022.2.5,Win32,61.2257393,,,,,space,0.3313,0,21,21,5,1,6,training,zh2x,a,zh2x_a,zh2x_3_azha.wav,,azha.jpg,,,,,,,,,,,,,,,,,,,,,,,,,,,,,,,,,
5b216d7dc33f820001a2e1ef,2023-06-16_10h02.39.207,phx_ver10,2022.2.5,Win32,61.2257393,,,,,space,0.0007,0,22,22,28,1,29,training,zh2x,e,zh2x_e,zh2x_7_exe.wav,,exe.jpg,,,,,,,,,,,,,,,,,,,,,,,,,,,,,,,,,
5b216d7dc33f820001a2e1ef,2023-06-16_10h02.39.207,phx_ver10,2022.2.5,Win32,61.2257393,,,,,space,0.2087,0,23,23,8,1,9,training,zh2x,a,zh2x_a,zh2x_5_axa.wav,,axa.jpg,,,,,,,,,,,,,,,,,,,,,,,,,,,,,,,,,
5b216d7dc33f820001a2e1ef,2023-06-16_10h02.39.207,phx_ver10,2022.2.5,Win32,61.2257393,,,,,,,,,,,,,attn_test,,,,zh2x_8_exe.wav,zh2x_1_azha.wav,exe.jpg,LEFT,,f,4.0973,space,4.4077,0,0,0,0,1,,,,,,,,,,,,,,,,,,,,,,
5b216d7dc33f820001a2e1ef,2023-06-16_10h02.39.207,phx_ver10,2022.2.5,Win32,61.2257393,,,,,space,0.2716,0,24,24,23,1,24,training,zh2x,e,zh2x_e,zh2x_4_ezhe.wav,,ezhe.jpg,,,,,,,,,,,,,,,,,,,,,,,,,,,,,,,,,
5b216d7dc33f820001a2e1ef,2023-06-16_10h02.39.207,phx_ver10,2022.2.5,Win32,61.2257393,,,,,space,0.4912,0,25,25,47,1,48,training,zh2x,i,zh2x_i,zh2x_8_ixi.wav,,ixi.jpg,,,,,,,,,,,,,,,,,,,,,,,,,,,,,,,,,
5b216d7dc33f820001a2e1ef,2023-06-16_10h02.39.207,phx_ver10,2022.2.5,Win32,61.2257393,,,,,space,0.4032,0,26,26,40,1,41,training,zh2x,i,zh2x_i,zh2x_5_ixi.wav,,ixi.jpg,,,,,,,,,,,,,,,,,,,,,,,,,,,,,,,,,
5b216d7dc33f820001a2e1ef,2023-06-16_10h02.39.207,phx_ver10,2022.2.5,Win32,61.2257393,,,,,space,0.2918,0,27,27,10,1,11,training,zh2x,a,zh2x_a,zh2x_6_axa.wav,,axa.jpg,,,,,,,,,,,,,,,,,,,,,,,,,,,,,,,,,
5b216d7dc33f820001a2e1ef,2023-06-16_10h02.39.207,phx_ver10,2022.2.5,Win32,61.2257393,,,,,space,0.0152,0,28,28,39,1,40,training,zh2x,i,zh2x_i,zh2x_4_izhi.wav,,izhi.jpg,,,,,,,,,,,,,,,,,,,,,,,,,,,,,,,,,
5b216d7dc33f820001a2e1ef,2023-06-16_10h02.39.207,phx_ver10,2022.2.5,Win32,61.2257393,,,,,space,0.6387,0,29,29,36,1,37,training,zh2x,i,zh2x_i,zh2x_2_izhi.wav,,izhi.jpg,,,,,,,,,,,,,,,,,,,,,,,,,,,,,,,,,
5b216d7dc33f820001a2e1ef,2023-06-16_10h02.39.207,phx_ver10,2022.2.5,Win32,61.2257393,,,,,,,,,,,,,attn_test,,,,zh2x_8_exe.wav,zh2x_8_ixi.wav,ixi.jpg,RIGHT,,j,0.7501,space,1.0665,0,0,0,0,1,,,,,,,,,,,,,,,,,,,,,,
5b216d7dc33f820001a2e1ef,2023-06-16_10h02.39.207,phx_ver10,2022.2.5,Win32,61.2257393,,,,,space,0.3382,0,30,30,16,1,17,training,zh2x,e,zh2x_e,zh2x_1_ezhe.wav,,ezhe.jpg,,,,,,,,,,,,,,,,,,,,,,,,,,,,,,,,,
5b216d7dc33f820001a2e1ef,2023-06-16_10h02.39.207,phx_ver10,2022.2.5,Win32,61.2257393,,,,,space,0.2896,0,31,31,21,1,22,training,zh2x,e,zh2x_e,zh2x_3_ezhe.wav,,ezhe.jpg,,,,,,,,,,,,,,,,,,,,,,,,,,,,,,,,,
5b216d7dc33f820001a2e1ef,2023-06-16_10h02.39.207,phx_ver10,2022.2.5,Win32,61.2257393,,,,,space,0.3319,0,32,32,32,1,33,training,zh2x,i,zh2x_i,zh2x_1_izhi.wav,,izhi.jpg,,,,,,,,,,,,,,,,,,,,,,,,,,,,,,,,,
5b216d7dc33f820001a2e1ef,2023-06-16_10h02.39.207,phx_ver10,2022.2.5,Win32,61.2257393,,,,,space,0.4921,0,33,33,7,1,8,training,zh2x,a,zh2x_a,zh2x_4_azha.wav,,azha.jpg,,,,,,,,,,,,,,,,,,,,,,,,,,,,,,,,,
5b216d7dc33f820001a2e1ef,2023-06-16_10h02.39.207,phx_ver10,2022.2.5,Win32,61.2257393,,,,,space,0.4779,0,34,34,30,1,31,training,zh2x,e,zh2x_e,zh2x_7_exe.wav,,exe.jpg,,,,,,,,,,,,,,,,,,,,,,,,,,,,,,,,,
5b216d7dc33f820001a2e1ef,2023-06-16_10h02.39.207,phx_ver10,2022.2.5,Win32,61.2257393,,,,,space,0.0006,0,35,35,25,1,26,training,zh2x,e,zh2x_e,zh2x_6_exe.wav,,exe.jpg,,,,,,,,,,,,,,,,,,,,,,,,,,,,,,,,,
5b216d7dc33f820001a2e1ef,2023-06-16_10h02.39.207,phx_ver10,2022.2.5,Win32,61.2257393,,,,,,,,,,,,,attn_test,,,,zh2x_8_axa.wav,zh2x_1_ezhe.wav,ezhe.jpg,RIGHT,,f,2.768,space,3.0681,0,0,0,0,1,,,,,,,,,,,,,,,,,,,,,,
5b216d7dc33f820001a2e1ef,2023-06-16_10h02.39.207,phx_ver10,2022.2.5,Win32,61.2257393,,,,,space,0.251,0,36,36,15,1,16,training,zh2x,a,zh2x_a,zh2x_8_axa.wav,,axa.jpg,,,,,,,,,,,,,,,,,,,,,,,,,,,,,,,,,
5b216d7dc33f820001a2e1ef,2023-06-16_10h02.39.207,phx_ver10,2022.2.5,Win32,61.2257393,,,,,space,0.0006,0,37,37,2,1,3,training,zh2x,a,zh2x_a,zh2x_2_azha.wav,,azha.jpg,,,,,,,,,,,,,,,,,,,,,,,,,,,,,,,,,
5b216d7dc33f820001a2e1ef,2023-06-16_10h02.39.207,phx_ver10,2022.2.5,Win32,61.2257393,,,,,space,0.0007,0,38,38,31,1,32,training,zh2x,e,zh2x_e,zh2x_8_exe.wav,,exe.jpg,,,,,,,,,,,,,,,,,,,,,,,,,,,,,,,,,
5b216d7dc33f820001a2e1ef,2023-06-16_10h02.39.207,phx_ver10,2022.2.5,Win32,61.2257393,,,,,space,0.4843,0,39,39,41,1,42,training,zh2x,i,zh2x_i,zh2x_6_ixi.wav,,ixi.jpg,,,,,,,,,,,,,,,,,,,,,,,,,,,,,,,,,
5b216d7dc33f820001a2e1ef,2023-06-16_10h02.39.207,phx_ver10,2022.2.5,Win32,61.2257393,,,,,space,0.4114,0,40,40,34,1,35,training,zh2x,i,zh2x_i,zh2x_2_izhi.wav,,izhi.jpg,,,,,,,,,,,,,,,,,,,,,,,,,,,,,,,,,
5b216d7dc33f820001a2e1ef,2023-06-16_10h02.39.207,phx_ver10,2022.2.5,Win32,61.2257393,,,,,space,0.405,0,41,41,43,1,44,training,zh2x,i,zh2x_i,zh2x_7_ixi.wav,,ixi.jpg,,,,,,,,,,,,,,,,,,,,,,,,,,,,,,,,,
5b216d7dc33f820001a2e1ef,2023-06-16_10h02.39.207,phx_ver10,2022.2.5,Win32,61.2257393,,,,,,,,,,,,,attn_test,,,,zh2x_8_ixi.wav,zh2x_1_izhi.wav,ixi.jpg,LEFT,,j,0.035,space,0.3014,0,0,0,0,1,,,,,,,,,,,,,,,,,,,,,,
5b216d7dc33f820001a2e1ef,2023-06-16_10h02.39.207,phx_ver10,2022.2.5,Win32,61.2257393,,,,,space,0.0411,0,42,42,6,1,7,training,zh2x,a,zh2x_a,zh2x_3_azha.wav,,azha.jpg,,,,,,,,,,,,,,,,,,,,,,,,,,,,,,,,,
5b216d7dc33f820001a2e1ef,2023-06-16_10h02.39.207,phx_ver10,2022.2.5,Win32,61.2257393,,,,,space,0.2751,0,43,43,38,1,39,training,zh2x,i,zh2x_i,zh2x_3_izhi.wav,,izhi.jpg,,,,,,,,,,,,,,,,,,,,,,,,,,,,,,,,,
5b216d7dc33f820001a2e1ef,2023-06-16_10h02.39.207,phx_ver10,2022.2.5,Win32,61.2257393,,,,,space,0.1044,0,44,44,29,1,30,training,zh2x,e,zh2x_e,zh2x_7_exe.wav,,exe.jpg,,,,,,,,,,,,,,,,,,,,,,,,,,,,,,,,,
5b216d7dc33f820001a2e1ef,2023-06-16_10h02.39.207,phx_ver10,2022.2.5,Win32,61.2257393,,,,,space,0.2344,0,45,45,18,1,19,training,zh2x,e,zh2x_e,zh2x_2_ezhe.wav,,ezhe.jpg,,,,,,,,,,,,,,,,,,,,,,,,,,,,,,,,,
5b216d7dc33f820001a2e1ef,2023-06-16_10h02.39.207,phx_ver10,2022.2.5,Win32,61.2257393,,,,,space,0.2356,0,46,46,24,1,25,training,zh2x,e,zh2x_e,zh2x_5_exe.wav,,exe.jpg,,,,,,,,,,,,,,,,,,,,,,,,,,,,,,,,,
5b216d7dc33f820001a2e1ef,2023-06-16_10h02.39.207,phx_ver10,2022.2.5,Win32,61.2257393,,,,,space,0.4352,0,47,47,14,1,15,training,zh2x,a,zh2x_a,zh2x_7_axa.wav,,axa.jpg,,,,,,,,,,,,,,,,,,,,,,,,,,,,,,,,,
5b216d7dc33f820001a2e1ef,2023-06-16_10h02.39.207,phx_ver10,2022.2.5,Win32,61.2257393,,,,,,,,,,,,,attn_test,,,,zh2x_8_ixi.wav,zh2x_8_axa.wav,axa.jpg,RIGHT,,f,0.4893,space,0.9561,,,,,,,,,,,,,,,,,,,,,,,,,,,
5b216d7dc33f820001a2e1ef,2023-06-16_10h02.39.207,phx_ver10,2022.2.5,Win32,61.2257393,,,,,,,,,,,,,,,,,,,,,,,,,,,,,,,space,0.8518,,,,,,,,,,,,,,,,,,,,
5b216d7dc33f820001a2e1ef,2023-06-16_10h02.39.207,phx_ver10,2022.2.5,Win32,61.2257393,,,,,,,,,,,,,,,,,,,,,,,,,,,,,,,,,space,4.1576,,,,,,,,,,,,,,,,,,
5b216d7dc33f820001a2e1ef,2023-06-16_10h02.39.207,phx_ver10,2022.2.5,Win32,61.2257393,,,,,,,,,,,,2,testing_pre,,,,auhau.wav,aufau.wav,,FALSE,,,,,,,,,,,,,,,j,1.4174,space,1.8672,0,0,0,1,1,,,,,,,,,
5b216d7dc33f820001a2e1ef,2023-06-16_10h02.39.207,phx_ver10,2022.2.5,Win32,61.2257393,,,,,,,,,,,,3,testing_pre,,,,afa.wav,aha.wav,,FALSE,,,,,,,,,,,,,,,f,0.5853,space,0.8562,0,1,1,2,1,,,,,,,,,
5b216d7dc33f820001a2e1ef,2023-06-16_10h02.39.207,phx_ver10,2022.2.5,Win32,61.2257393,,,,,,,,,,,,5,testing_pre,,,,ihi.wav,ifi.wav,,FALSE,,,,,,,,,,,,,,,j,1.2435,space,1.5998,0,2,2,4,1,,,,,,,,,
5b216d7dc33f820001a2e1ef,2023-06-16_10h02.39.207,phx_ver10,2022.2.5,Win32,61.2257393,,,,,,,,,,,,1,testing_pre,,,,ifi.wav,ifi.wav,,TRUE,,,,,,,,,,,,,,,f,2.9425,space,3.2122,0,3,3,0,1,,,,,,,,,
5b216d7dc33f820001a2e1ef,2023-06-16_10h02.39.207,phx_ver10,2022.2.5,Win32,61.2257393,,,,,,,,,,,,4,testing_pre,,,,eihei.wav,eihei.wav,,TRUE,,,,,,,,,,,,,,,f,0.3034,space,0.6551,0,4,4,3,1,,,,,,,,,
5b216d7dc33f820001a2e1ef,2023-06-16_10h02.39.207,phx_ver10,2022.2.5,Win32,61.2257393,,,,,,,,,,,,,,,,,,,,,,,,,,,,,,,,,,,,,,,,,,,,space,0.5402,,,,,,,
5b216d7dc33f820001a2e1ef,2023-06-16_10h02.39.207,phx_ver10,2022.2.5,Win32,61.2257393,,,,,,,,,,,,41,testing_3,zh2sh,ei,zh2sh_ei,zh2sh_1_eizhei.wav,zh2sh_1_eizhei.wav,,TRUE,FALSE,,,,,,,,,,,,,,f,0.1495,space,0.638,,,,,,,,0,0,0,40,1,,
5b216d7dc33f820001a2e1ef,2023-06-16_10h02.39.207,phx_ver10,2022.2.5,Win32,61.2257393,,,,,,,,,,,,53,testing_3,zh2j,ai,zh2j_ai,zh2j_1_aizhai.wav,zh2j_1_aizhai.wav,,TRUE,FALSE,,,,,,,,,,,,,,f,0.0508,space,0.2848,,,,,,,,0,1,1,52,1,,
5b216d7dc33f820001a2e1ef,2023-06-16_10h02.39.207,phx_ver10,2022.2.5,Win32,61.2257393,,,,,,,,,,,,74,testing_3,j2x,a,j2x_a,j2x_8_axa.wav,j2x_8_axa.wav,,TRUE,FALSE,,,,,,,,,,,,,,f,2.0166,space,2.5172,,,,,,,,0,2,2,73,1,,
5b216d7dc33f820001a2e1ef,2023-06-16_10h02.39.207,phx_ver10,2022.2.5,Win32,61.2257393,,,,,,,,,,,,140,testing_3,sh2j,ei,sh2j_ei,sh2j_8_eijei.wav,sh2j_1_eishei.wav,,FALSE,FALSE,,,,,,,,,,,,,,f,0.4556,space,0.8028,,,,,,,,0,3,3,139,1,,
5b216d7dc33f820001a2e1ef,2023-06-16_10h02.39.207,phx_ver10,2022.2.5,Win32,61.2257393,,,,,,,,,,,,23,testing_2,zh2x,ei,zh2x_ei,zh2x_1_eizhei.wav,zh2x_8_eixei.wav,,FALSE,FALSE,,,,,,,,,,,,,,f,0.1341,space,0.5678,,,,,,,,0,4,4,22,1,,
5b216d7dc33f820001a2e1ef,2023-06-16_10h02.39.207,phx_ver10,2022.2.5,Win32,61.2257393,,,,,,,,,,,,139,testing_3,sh2j,ei,sh2j_ei,sh2j_1_eishei.wav,sh2j_8_eijei.wav,,FALSE,FALSE,,,,,,,,,,,,,,f,1.0006,space,1.6347,,,,,,,,0,5,5,138,1,,
5b216d7dc33f820001a2e1ef,2023-06-16_10h02.39.207,phx_ver10,2022.2.5,Win32,61.2257393,,,,,,,,,,,,50,testing_3,zh2j,a,zh2j_a,zh2j_8_aja.wav,zh2j_8_aja.wav,,TRUE,FALSE,,,,,,,,,,,,,,f,0.0499,space,0.3509,,,,,,,,0,6,6,49,1,,
5b216d7dc33f820001a2e1ef,2023-06-16_10h02.39.207,phx_ver10,2022.2.5,Win32,61.2257393,,,,,,,,,,,,42,testing_3,zh2sh,ei,zh2sh_ei,zh2sh_8_eishei.wav,zh2sh_8_eishei.wav,,TRUE,FALSE,,,,,,,,,,,,,,f,0.1343,space,0.5505,,,,,,,,0,7,7,41,1,,
5b216d7dc33f820001a2e1ef,2023-06-16_10h02.39.207,phx_ver10,2022.2.5,Win32,61.2257393,,,,,,,,,,,,131,testing_3,sh2j,au,sh2j_au,sh2j_1_aushau.wav,sh2j_8_aujau.wav,,FALSE,FALSE,,,,,,,,,,,,,,f,0.818,space,1.2007,,,,,,,,0,8,8,130,1,,
5b216d7dc33f820001a2e1ef,2023-06-16_10h02.39.207,phx_ver10,2022.2.5,Win32,61.2257393,,,,,,,,,,,,81,testing_3,j2x,au,j2x_au,j2x_1_aujau.wav,j2x_1_aujau.wav,,TRUE,FALSE,,,,,,,,,,,,,,f,0.8416,space,1.1771,,,,,,,,0,9,9,80,1,,
5b216d7dc33f820001a2e1ef,2023-06-16_10h02.39.207,phx_ver10,2022.2.5,Win32,61.2257393,,,,,,,,,,,,62,testing_3,zh2j,e,zh2j_e,zh2j_8_eje.wav,zh2j_8_eje.wav,,TRUE,FALSE,,,,,,,,,,,,,,f,0.3867,space,0.7228,,,,,,,,0,10,10,61,1,,
5b216d7dc33f820001a2e1ef,2023-06-16_10h02.39.207,phx_ver10,2022.2.5,Win32,61.2257393,,,,,,,,,,,,46,testing_3,zh2sh,i,zh2sh_i,zh2sh_8_ishi.wav,zh2sh_8_ishi.wav,,TRUE,FALSE,,,,,,,,,,,,,,f,0.168,space,0.5363,,,,,,,,0,11,11,45,1,,
5b216d7dc33f820001a2e1ef,2023-06-16_10h02.39.207,phx_ver10,2022.2.5,Win32,61.2257393,,,,,,,,,,,,117,testing_3,sh2x,i,sh2x_i,sh2x_1_ishi.wav,sh2x_1_ishi.wav,,TRUE,FALSE,,,,,,,,,,,,,,f,0.6512,space,1.0352,,,,,,,,0,12,12,116,1,,
5b216d7dc33f820001a2e1ef,2023-06-16_10h02.39.207,phx_ver10,2022.2.5,Win32,61.2257393,,,,,,,,,,,,49,testing_3,zh2j,a,zh2j_a,zh2j_1_azha.wav,zh2j_1_azha.wav,,TRUE,FALSE,,,,,,,,,,,,,,f,0.0013,space,0.4013,,,,,,,,0,13,13,48,1,,
5b216d7dc33f820001a2e1ef,2023-06-16_10h02.39.207,phx_ver10,2022.2.5,Win32,61.2257393,,,,,,,,,,,,92,testing_3,j2x,ei,j2x_ei,j2x_8_eixei.wav,j2x_1_eijei.wav,,FALSE,FALSE,,,,,,,,,,,,,,f,0.5349,space,0.8863,,,,,,,,0,14,14,91,1,,
5b216d7dc33f820001a2e1ef,2023-06-16_10h02.39.207,phx_ver10,2022.2.5,Win32,61.2257393,,,,,,,,,,,,35,testing_3,zh2sh,au,zh2sh_au,zh2sh_1_auzhau.wav,zh2sh_8_aushau.wav,,FALSE,FALSE,,,,,,,,,,,,,,j,0.565,space,0.834,,,,,,,,0,15,15,34,1,,
5b216d7dc33f820001a2e1ef,2023-06-16_10h02.39.207,phx_ver10,2022.2.5,Win32,61.2257393,,,,,,,,,,,,72,testing_3,zh2j,i,zh2j_i,zh2j_8_iji.wav,zh2j_1_izhi.wav,,FALSE,FALSE,,,,,,,,,,,,,,f,0.5842,space,0.9235,,,,,,,,0,16,16,71,1,,
5b216d7dc33f820001a2e1ef,2023-06-16_10h02.39.207,phx_ver10,2022.2.5,Win32,61.2257393,,,,,,,,,,,,12,testing_1,zh2x,i,zh2x_i,zh2x_8_ixi.wav,zh2x_1_izhi.wav,,FALSE,TRUE,,,,,,,,,,,,,,f,0.0507,space,0.4679,,,,,,,,0,17,17,11,1,,
5b216d7dc33f820001a2e1ef,2023-06-16_10h02.39.207,phx_ver10,2022.2.5,Win32,61.2257393,,,,,,,,,,,,56,testing_3,zh2j,ai,zh2j_ai,zh2j_8_aijai.wav,zh2j_1_aizhai.wav,,FALSE,FALSE,,,,,,,,,,,,,,f,0.0511,space,0.391,,,,,,,,0,18,18,55,1,,
5b216d7dc33f820001a2e1ef,2023-06-16_10h02.39.207,phx_ver10,2022.2.5,Win32,61.2257393,,,,,,,,,,,,44,testing_3,zh2sh,ei,zh2sh_ei,zh2sh_8_eishei.wav,zh2sh_1_eizhei.wav,,FALSE,FALSE,,,,,,,,,,,,,,f,0.15,space,0.5344,,,,,,,,0,19,19,43,1,,
5b216d7dc33f820001a2e1ef,2023-06-16_10h02.39.207,phx_ver10,2022.2.5,Win32,61.2257393,,,,,,,,,,,,132,testing_3,sh2j,au,sh2j_au,sh2j_8_aujau.wav,sh2j_1_aushau.wav,,FALSE,FALSE,,,,,,,,,,,,,,j,0.6352,space,1.051,,,,,,,,0,20,20,131,1,,
5b216d7dc33f820001a2e1ef,2023-06-16_10h02.39.207,phx_ver10,2022.2.5,Win32,61.2257393,,,,,,,,,,,,22,testing_2,zh2x,ei,zh2x_ei,zh2x_8_eixei.wav,zh2x_8_eixei.wav,,TRUE,FALSE,,,,,,,,,,,,,,f,0.0323,space,0.3688,,,,,,,,0,21,21,21,1,,
5b216d7dc33f820001a2e1ef,2023-06-16_10h02.39.207,phx_ver10,2022.2.5,Win32,61.2257393,,,,,,,,,,,,107,testing_3,sh2x,au,sh2x_au,sh2x_1_aushau.wav,sh2x_8_auxau.wav,,FALSE,FALSE,,,,,,,,,,,,,,f,0.1177,space,0.4512,,,,,,,,0,22,22,106,1,,
5b216d7dc33f820001a2e1ef,2023-06-16_10h02.39.207,phx_ver10,2022.2.5,Win32,61.2257393,,,,,,,,,,,,128,testing_3,sh2j,ai,sh2j_ai,sh2j_8_aijai.wav,sh2j_1_aishai.wav,,FALSE,FALSE,,,,,,,,,,,,,,j,0.1777,space,0.584,,,,,,,,0,23,23,127,1,,
5b216d7dc33f820001a2e1ef,2023-06-16_10h02.39.207,phx_ver10,2022.2.5,Win32,61.2257393,,,,,,,,,,,,17,testing_2,zh2x,au,zh2x_au,zh2x_1_auzhau.wav,zh2x_1_auzhau.wav,,TRUE,FALSE,,,,,,,,,,,,,,f,0.7503,space,1.0676,,,,,,,,0,24,24,16,1,,
5b216d7dc33f820001a2e1ef,2023-06-16_10h02.39.207,phx_ver10,2022.2.5,Win32,61.2257393,,,,,,,,,,,,77,testing_3,j2x,ai,j2x_ai,j2x_1_aijai.wav,j2x_1_aijai.wav,,TRUE,FALSE,,,,,,,,,,,,,,f,0.4352,space,0.7014,,,,,,,,0,25,25,76,1,,
5b216d7dc33f820001a2e1ef,2023-06-16_10h02.39.207,phx_ver10,2022.2.5,Win32,61.2257393,,,,,,,,,,,,102,testing_3,sh2x,ai,sh2x_ai,sh2x_8_aixai.wav,sh2x_8_aixai.wav,,TRUE,FALSE,,,,,,,,,,,,,,f,0.4843,space,0.6687,,,,,,,,0,26,26,101,1,,
5b216d7dc33f820001a2e1ef,2023-06-16_10h02.39.207,phx_ver10,2022.2.5,Win32,61.2257393,,,,,,,,,,,,70,testing_3,zh2j,i,zh2j_i,zh2j_8_iji.wav,zh2j_8_iji.wav,,TRUE,FALSE,,,,,,,,,,,,,,f,0.6994,space,1.0776,,,,,,,,0,27,27,69,1,,
5b216d7dc33f820001a2e1ef,2023-06-16_10h02.39.207,phx_ver10,2022.2.5,Win32,61.2257393,,,,,,,,,,,,88,testing_3,j2x,e,j2x_e,j2x_8_exe.wav,j2x_1_eje.wav,,FALSE,FALSE,,,,,,,,,,,,,,j,0.6508,space,1.0051,,,,,,,,0,28,28,87,1,,
5b216d7dc33f820001a2e1ef,2023-06-16_10h02.39.207,phx_ver10,2022.2.5,Win32,61.2257393,,,,,,,,,,,,66,testing_3,zh2j,ei,zh2j_ei,zh2j_8_eijei.wav,zh2j_8_eijei.wav,,TRUE,FALSE,,,,,,,,,,,,,,f,0.0668,space,0.4334,,,,,,,,0,29,29,65,1,,
5b216d7dc33f820001a2e1ef,2023-06-16_10h02.39.207,phx_ver10,2022.2.5,Win32,61.2257393,,,,,,,,,,,,136,testing_3,sh2j,e,sh2j_e,sh2j_8_eje.wav,sh2j_1_eshe.wav,,FALSE,FALSE,,,,,,,,,,,,,,f,0.0696,space,0.3835,,,,,,,,0,30,30,135,1,,
5b216d7dc33f820001a2e1ef,2023-06-16_10h02.39.207,phx_ver10,2022.2.5,Win32,61.2257393,,,,,,,,,,,,141,testing_3,sh2j,i,sh2j_i,sh2j_1_ishi.wav,sh2j_1_ishi.wav,,TRUE,FALSE,,,,,,,,,,,,,,f,0.1922,space,0.5181,,,,,,,,0,31,31,140,1,,
5b216d7dc33f820001a2e1ef,2023-06-16_10h02.39.207,phx_ver10,2022.2.5,Win32,61.2257393,,,,,,,,,,,,58,testing_3,zh2j,au,zh2j_au,zh2j_8_aujau.wav,zh2j_8_aujau.wav,,TRUE,FALSE,,,,,,,,,,,,,,j,0.6846,space,0.9243,,,,,,,,0,32,32,57,1,,
5b216d7dc33f820001a2e1ef,2023-06-16_10h02.39.207,phx_ver10,2022.2.5,Win32,61.2257393,,,,,,,,,,,,51,testing_3,zh2j,a,zh2j_a,zh2j_1_azha.wav,zh2j_8_aja.wav,,FALSE,FALSE,,,,,,,,,,,,,,f,0.1511,space,0.4423,,,,,,,,0,33,33,50,1,,
5b216d7dc33f820001a2e1ef,2023-06-16_10h02.39.207,phx_ver10,2022.2.5,Win32,61.2257393,,,,,,,,,,,,9,testing_1,zh2x,i,zh2x_i,zh2x_1_izhi.wav,zh2x_1_izhi_copy.wav,,TRUE,TRUE,,,,,,,,,,,,,,f,0.0674,space,0.4695,,,,,,,,0,34,34,8,1,,
5b216d7dc33f820001a2e1ef,2023-06-16_10h02.39.207,phx_ver10,2022.2.5,Win32,61.2257393,,,,,,,,,,,,18,testing_2,zh2x,au,zh2x_au,zh2x_8_auxau.wav,zh2x_8_auxau.wav,,TRUE,FALSE,,,,,,,,,,,,,,j,0.4341,space,0.7682,,,,,,,,0,35,35,17,1,,
5b216d7dc33f820001a2e1ef,2023-06-16_10h02.39.207,phx_ver10,2022.2.5,Win32,61.2257393,,,,,,,,,,,,87,testing_3,j2x,e,j2x_e,j2x_1_eje.wav,j2x_8_exe.wav,,FALSE,FALSE,,,,,,,,,,,,,,f,0.19,space,0.5676,,,,,,,,0,36,36,86,1,,
5b216d7dc33f820001a2e1ef,2023-06-16_10h02.39.207,phx_ver10,2022.2.5,Win32,61.2257393,,,,,,,,,,,,122,testing_3,sh2j,a,sh2j_a,sh2j_8_aja.wav,sh2j_8_aja.wav,,TRUE,FALSE,,,,,,,,,,,,,,f,0.1033,space,0.4564,,,,,,,,0,37,37,121,1,,
5b216d7dc33f820001a2e1ef,2023-06-16_10h02.39.207,phx_ver10,2022.2.5,Win32,61.2257393,,,,,,,,,,,,93,testing_3,j2x,i,j2x_i,j2x_1_iji.wav,j2x_1_iji.wav,,TRUE,FALSE,,,,,,,,,,,,,,f,0.0223,space,0.4074,,,,,,,,0,38,38,92,1,,
5b216d7dc33f820001a2e1ef,2023-06-16_10h02.39.207,phx_ver10,2022.2.5,Win32,61.2257393,,,,,,,,,,,,55,testing_3,zh2j,ai,zh2j_ai,zh2j_1_aizhai.wav,zh2j_8_aijai.wav,,FALSE,FALSE,,,,,,,,,,,,,,f,0.1843,space,0.5367,,,,,,,,0,39,39,54,1,,
5b216d7dc33f820001a2e1ef,2023-06-16_10h02.39.207,phx_ver10,2022.2.5,Win32,61.2257393,,,,,,,,,,,,40,testing_3,zh2sh,e,zh2sh_e,zh2sh_8_eshe.wav,zh2sh_1_ezhe.wav,,FALSE,FALSE,,,,,,,,,,,,,,f,0.1073,space,0.4449,,,,,,,,0,40,40,39,1,,
5b216d7dc33f820001a2e1ef,2023-06-16_10h02.39.207,phx_ver10,2022.2.5,Win32,61.2257393,,,,,,,,,,,,61,testing_3,zh2j,e,zh2j_e,zh2j_1_ezhe.wav,zh2j_1_ezhe.wav,,TRUE,FALSE,,,,,,,,,,,,,,f,0.184,space,0.6015,,,,,,,,0,41,41,60,1,,
5b216d7dc33f820001a2e1ef,2023-06-16_10h02.39.207,phx_ver10,2022.2.5,Win32,61.2257393,,,,,,,,,,,,6,testing_1,zh2x,e,zh2x_e,zh2x_8_exe.wav,zh2x_8_exe_copy.wav,,TRUE,TRUE,,,,,,,,,,,,,,f,0.001,space,0.4221,,,,,,,,0,42,42,5,1,,
5b216d7dc33f820001a2e1ef,2023-06-16_10h02.39.207,phx_ver10,2022.2.5,Win32,61.2257393,,,,,,,,,,,,27,testing_3,zh2sh,a,zh2sh_a,zh2sh_1_azha.wav,zh2sh_8_asha.wav,,FALSE,FALSE,,,,,,,,,,,,,,j,0.2863,space,0.6208,,,,,,,,0,43,43,26,1,,
5b216d7dc33f820001a2e1ef,2023-06-16_10h02.39.207,phx_ver10,2022.2.5,Win32,61.2257393,,,,,,,,,,,,115,testing_3,sh2x,ei,sh2x_ei,sh2x_1_eishei.wav,sh2x_8_eixei.wav,,FALSE,FALSE,,,,,,,,,,,,,,f,0.1344,space,0.4696,,,,,,,,0,44,44,114,1,,
5b216d7dc33f820001a2e1ef,2023-06-16_10h02.39.207,phx_ver10,2022.2.5,Win32,61.2257393,,,,,,,,,,,,108,testing_3,sh2x,au,sh2x_au,sh2x_8_auxau.wav,sh2x_1_aushau.wav,,FALSE,FALSE,,,,,,,,,,,,,,f,0.0097,space,0.3531,,,,,,,,0,45,45,107,1,,
5b216d7dc33f820001a2e1ef,2023-06-16_10h02.39.207,phx_ver10,2022.2.5,Win32,61.2257393,,,,,,,,,,,,124,testing_3,sh2j,a,sh2j_a,sh2j_8_aja.wav,sh2j_1_asha.wav,,FALSE,FALSE,,,,,,,,,,,,,,f,0.0768,space,0.5012,,,,,,,,0,46,46,123,1,,
5b216d7dc33f820001a2e1ef,2023-06-16_10h02.39.207,phx_ver10,2022.2.5,Win32,61.2257393,,,,,,,,,,,,119,testing_3,sh2x,i,sh2x_i,sh2x_1_ishi.wav,sh2x_8_ixi.wav,,FALSE,FALSE,,,,,,,,,,,,,,f,0.2219,space,0.5418,,,,,,,,0,47,47,118,1,,
5b216d7dc33f820001a2e1ef,2023-06-16_10h02.39.207,phx_ver10,2022.2.5,Win32,61.2257393,,,,,,,,,,,,68,testing_3,zh2j,ei,zh2j_ei,zh2j_8_eijei.wav,zh2j_1_eizhei.wav,,FALSE,FALSE,,,,,,,,,,,,,,f,0.0173,space,0.2703,,,,,,,,0,48,48,67,1,,
5b216d7dc33f820001a2e1ef,2023-06-16_10h02.39.207,phx_ver10,2022.2.5,Win32,61.2257393,,,,,,,,,,,,25,testing_3,zh2sh,a,zh2sh_a,zh2sh_1_azha.wav,zh2sh_1_azha.wav,,TRUE,FALSE,,,,,,,,,,,,,,f,0.1977,space,0.9128,,,,,,,,0,49,49,24,1,,
5b216d7dc33f820001a2e1ef,2023-06-16_10h02.39.207,phx_ver10,2022.2.5,Win32,61.2257393,,,,,,,,,,,,144,testing_3,sh2j,i,sh2j_i,sh2j_8_iji.wav,sh2j_1_ishi.wav,,FALSE,FALSE,,,,,,,,,,,,,,f,0.0562,space,0.425,,,,,,,,0,50,50,143,1,,
5b216d7dc33f820001a2e1ef,2023-06-16_10h02.39.207,phx_ver10,2022.2.5,Win32,61.2257393,,,,,,,,,,,,82,testing_3,j2x,au,j2x_au,j2x_8_auxau.wav,j2x_8_auxau.wav,,TRUE,FALSE,,,,,,,,,,,,,,f,0.0978,space,0.434,,,,,,,,0,51,51,81,1,,
5b216d7dc33f820001a2e1ef,2023-06-16_10h02.39.207,phx_ver10,2022.2.5,Win32,61.2257393,,,,,,,,,,,,57,testing_3,zh2j,au,zh2j_au,zh2j_1_auzhau.wav,zh2j_1_auzhau.wav,,TRUE,FALSE,,,,,,,,,,,,,,f,0.1678,space,0.4832,,,,,,,,0,52,52,56,1,,
5b216d7dc33f820001a2e1ef,2023-06-16_10h02.39.207,phx_ver10,2022.2.5,Win32,61.2257393,,,,,,,,,,,,21,testing_2,zh2x,ei,zh2x_ei,zh2x_1_eizhei.wav,zh2x_1_eizhei.wav,,TRUE,FALSE,,,,,,,,,,,,,,f,0.1675,space,0.5557,,,,,,,,0,53,53,20,1,,
5b216d7dc33f820001a2e1ef,2023-06-16_10h02.39.207,phx_ver10,2022.2.5,Win32,61.2257393,,,,,,,,,,,,114,testing_3,sh2x,ei,sh2x_ei,sh2x_8_eixei.wav,sh2x_8_eixei.wav,,TRUE,FALSE,,,,,,,,,,,,,,f,0.0686,space,0.3509,,,,,,,,0,54,54,113,1,,
5b216d7dc33f820001a2e1ef,2023-06-16_10h02.39.207,phx_ver10,2022.2.5,Win32,61.2257393,,,,,,,,,,,,126,testing_3,sh2j,ai,sh2j_ai,sh2j_8_aijai.wav,sh2j_8_aijai.wav,,TRUE,FALSE,,,,,,,,,,,,,,f,0.1378,space,0.4758,,,,,,,,0,55,55,125,1,,
5b216d7dc33f820001a2e1ef,2023-06-16_10h02.39.207,phx_ver10,2022.2.5,Win32,61.2257393,,,,,,,,,,,,112,testing_3,sh2x,e,sh2x_e,sh2x_8_exe.wav,sh2x_1_eshe.wav,,FALSE,FALSE,,,,,,,,,,,,,,f,0.0564,space,0.3351,,,,,,,,0,56,56,111,1,,
5b216d7dc33f820001a2e1ef,2023-06-16_10h02.39.207,phx_ver10,2022.2.5,Win32,61.2257393,,,,,,,,,,,,129,testing_3,sh2j,au,sh2j_au,sh2j_1_aushau.wav,sh2j_1_aushau.wav,,TRUE,FALSE,,,,,,,,,,,,,,f,0.0511,space,0.3671,,,,,,,,0,57,57,128,1,,
5b216d7dc33f820001a2e1ef,2023-06-16_10h02.39.207,phx_ver10,2022.2.5,Win32,61.2257393,,,,,,,,,,,,99,testing_3,sh2x,a,sh2x_a,sh2x_1_asha.wav,sh2x_8_axa.wav,,FALSE,FALSE,,,,,,,,,,,,,,j,0.2018,space,0.5829,,,,,,,,0,58,58,98,1,,
5b216d7dc33f820001a2e1ef,2023-06-16_10h02.39.207,phx_ver10,2022.2.5,Win32,61.2257393,,,,,,,,,,,,45,testing_3,zh2sh,i,zh2sh_i,zh2sh_1_izhi.wav,zh2sh_1_izhi.wav,,TRUE,FALSE,,,,,,,,,,,,,,f,0.7011,space,0.9849,,,,,,,,0,59,59,44,1,,
5b216d7dc33f820001a2e1ef,2023-06-16_10h02.39.207,phx_ver10,2022.2.5,Win32,61.2257393,,,,,,,,,,,,95,testing_3,j2x,i,j2x_i,j2x_1_iji.wav,j2x_8_ixi.wav,,FALSE,FALSE,,,,,,,,,,,,,,j,0.2994,space,0.667,,,,,,,,0,60,60,94,1,,
5b216d7dc33f820001a2e1ef,2023-06-16_10h02.39.207,phx_ver10,2022.2.5,Win32,61.2257393,,,,,,,,,,,,100,testing_3,sh2x,a,sh2x_a,sh2x_8_axa.wav,sh2x_1_asha.wav,,FALSE,FALSE,,,,,,,,,,,,,,f,0.2721,space,0.6731,,,,,,,,0,61,61,99,1,,
5b216d7dc33f820001a2e1ef,2023-06-16_10h02.39.207,phx_ver10,2022.2.5,Win32,61.2257393,,,,,,,,,,,,36,testing_3,zh2sh,au,zh2sh_au,zh2sh_8_aushau.wav,zh2sh_1_auzhau.wav,,FALSE,FALSE,,,,,,,,,,,,,,j,0.149,space,0.4983,,,,,,,,0,62,62,35,1,,
5b216d7dc33f820001a2e1ef,2023-06-16_10h02.39.207,phx_ver10,2022.2.5,Win32,61.2257393,,,,,,,,,,,,78,testing_3,j2x,ai,j2x_ai,j2x_8_aixai.wav,j2x_8_aixai.wav,,TRUE,FALSE,,,,,,,,,,,,,,f,0.0858,space,0.4143,,,,,,,,0,63,63,77,1,,
5b216d7dc33f820001a2e1ef,2023-06-16_10h02.39.207,phx_ver10,2022.2.5,Win32,61.2257393,,,,,,,,,,,,20,testing_2,zh2x,au,zh2x_au,zh2x_8_auxau.wav,zh2x_1_auzhau.wav,,FALSE,FALSE,,,,,,,,,,,,,,j,0.2376,space,0.5551,,,,,,,,0,64,64,19,1,,
5b216d7dc33f820001a2e1ef,2023-06-16_10h02.39.207,phx_ver10,2022.2.5,Win32,61.2257393,,,,,,,,,,,,113,testing_3,sh2x,ei,sh2x_ei,sh2x_1_eishei.wav,sh2x_1_eishei.wav,,TRUE,FALSE,,,,,,,,,,,,,,f,0.0842,space,0.5442,,,,,,,,0,65,65,112,1,,
5b216d7dc33f820001a2e1ef,2023-06-16_10h02.39.207,phx_ver10,2022.2.5,Win32,61.2257393,,,,,,,,,,,,121,testing_3,sh2j,a,sh2j_a,sh2j_1_asha.wav,sh2j_1_asha.wav,,TRUE,FALSE,,,,,,,,,,,,,,f,0.0702,space,0.4023,,,,,,,,0,66,66,120,1,,
5b216d7dc33f820001a2e1ef,2023-06-16_10h02.39.207,phx_ver10,2022.2.5,Win32,61.2257393,,,,,,,,,,,,28,testing_3,zh2sh,a,zh2sh_a,zh2sh_8_asha.wav,zh2sh_1_azha.wav,,FALSE,FALSE,,,,,,,,,,,,,,j,0.4574,space,0.7513,,,,,,,,0,67,67,27,1,,
5b216d7dc33f820001a2e1ef,2023-06-16_10h02.39.207,phx_ver10,2022.2.5,Win32,61.2257393,,,,,,,,,,,,38,testing_3,zh2sh,e,zh2sh_e,zh2sh_8_eshe.wav,zh2sh_8_eshe.wav,,TRUE,FALSE,,,,,,,,,,,,,,f,0.3511,space,0.6514,,,,,,,,0,68,68,37,1,,
5b216d7dc33f820001a2e1ef,2023-06-16_10h02.39.207,phx_ver10,2022.2.5,Win32,61.2257393,,,,,,,,,,,,83,testing_3,j2x,au,j2x_au,j2x_1_aujau.wav,j2x_8_auxau.wav,,FALSE,FALSE,,,,,,,,,,,,,,j,0.4108,space,0.6782,,,,,,,,0,69,69,82,1,,
5b216d7dc33f820001a2e1ef,2023-06-16_10h02.39.207,phx_ver10,2022.2.5,Win32,61.2257393,,,,,,,,,,,,142,testing_3,sh2j,i,sh2j_i,sh2j_8_iji.wav,sh2j_8_iji.wav,,TRUE,FALSE,,,,,,,,,,,,,,f,0.3908,space,0.6775,,,,,,,,0,70,70,141,1,,
5b216d7dc33f820001a2e1ef,2023-06-16_10h02.39.207,phx_ver10,2022.2.5,Win32,61.2257393,,,,,,,,,,,,31,testing_3,zh2sh,ai,zh2sh_ai,zh2sh_1_aizhai.wav,zh2sh_8_aishai.wav,,FALSE,FALSE,,,,,,,,,,,,,,j,0.485,space,0.7905,,,,,,,,0,71,71,30,1,,
5b216d7dc33f820001a2e1ef,2023-06-16_10h02.39.207,phx_ver10,2022.2.5,Win32,61.2257393,,,,,,,,,,,,97,testing_3,sh2x,a,sh2x_a,sh2x_1_asha.wav,sh2x_1_asha.wav,,TRUE,FALSE,,,,,,,,,,,,,,f,0.4008,space,0.6342,,,,,,,,0,72,72,96,1,,
5b216d7dc33f820001a2e1ef,2023-06-16_10h02.39.207,phx_ver10,2022.2.5,Win32,61.2257393,,,,,,,,,,,,135,testing_3,sh2j,e,sh2j_e,sh2j_1_eshe.wav,sh2j_8_eje.wav,,FALSE,FALSE,,,,,,,,,,,,,,j,0.2177,space,0.7036,,,,,,,,0,73,73,134,1,,
5b216d7dc33f820001a2e1ef,2023-06-16_10h02.39.207,phx_ver10,2022.2.5,Win32,61.2257393,,,,,,,,,,,,7,testing_1,zh2x,e,zh2x_e,zh2x_1_ezhe.wav,zh2x_8_exe.wav,,FALSE,TRUE,,,,,,,,,,,,,,j,0.7254,space,1.1019,,,,,,,,0,74,74,6,1,,
5b216d7dc33f820001a2e1ef,2023-06-16_10h02.39.207,phx_ver10,2022.2.5,Win32,61.2257393,,,,,,,,,,,,130,testing_3,sh2j,au,sh2j_au,sh2j_8_aujau.wav,sh2j_8_aujau.wav,,TRUE,FALSE,,,,,,,,,,,,,,f,0.3175,space,0.7213,,,,,,,,0,75,75,129,1,,
5b216d7dc33f820001a2e1ef,2023-06-16_10h02.39.207,phx_ver10,2022.2.5,Win32,61.2257393,,,,,,,,,,,,134,testing_3,sh2j,e,sh2j_e,sh2j_8_eje.wav,sh2j_8_eje.wav,,TRUE,FALSE,,,,,,,,,,,,,,f,0.0511,space,0.3851,,,,,,,,0,76,76,133,1,,
5b216d7dc33f820001a2e1ef,2023-06-16_10h02.39.207,phx_ver10,2022.2.5,Win32,61.2257393,,,,,,,,,,,,73,testing_3,j2x,a,j2x_a,j2x_1_aja.wav,j2x_1_aja.wav,,TRUE,FALSE,,,,,,,,,,,,,,f,0.4846,space,0.818,,,,,,,,0,77,77,72,1,,
5b216d7dc33f820001a2e1ef,2023-06-16_10h02.39.207,phx_ver10,2022.2.5,Win32,61.2257393,,,,,,,,,,,,69,testing_3,zh2j,i,zh2j_i,zh2j_1_izhi.wav,zh2j_1_izhi.wav,,TRUE,FALSE,,,,,,,,,,,,,,f,0.0252,space,0.5845,,,,,,,,0,78,78,68,1,,
5b216d7dc33f820001a2e1ef,2023-06-16_10h02.39.207,phx_ver10,2022.2.5,Win32,61.2257393,,,,,,,,,,,,33,testing_3,zh2sh,au,zh2sh_au,zh2sh_1_auzhau.wav,zh2sh_1_auzhau.wav,,TRUE,FALSE,,,,,,,,,,,,,,f,0.1837,space,0.518,,,,,,,,0,79,79,32,1,,
5b216d7dc33f820001a2e1ef,2023-06-16_10h02.39.207,phx_ver10,2022.2.5,Win32,61.2257393,,,,,,,,,,,,1,testing_1,zh2x,a,zh2x_a,zh2x_1_azha.wav,zh2x_1_azha_copy.wav,,TRUE,TRUE,,,,,,,,,,,,,,f,0.486,space,0.7818,,,,,,,,0,80,80,0,1,,
5b216d7dc33f820001a2e1ef,2023-06-16_10h02.39.207,phx_ver10,2022.2.5,Win32,61.2257393,,,,,,,,,,,,127,testing_3,sh2j,ai,sh2j_ai,sh2j_1_aishai.wav,sh2j_8_aijai.wav,,FALSE,FALSE,,,,,,,,,,,,,,j,0.0674,space,0.4504,,,,,,,,0,81,81,126,1,,
5b216d7dc33f820001a2e1ef,2023-06-16_10h02.39.207,phx_ver10,2022.2.5,Win32,61.2257393,,,,,,,,,,,,76,testing_3,j2x,a,j2x_a,j2x_8_axa.wav,j2x_1_aja.wav,,FALSE,FALSE,,,,,,,,,,,,,,j,0.0841,space,0.7849,,,,,,,,0,82,82,75,1,,
5b216d7dc33f820001a2e1ef,2023-06-16_10h02.39.207,phx_ver10,2022.2.5,Win32,61.2257393,,,,,,,,,,,,71,testing_3,zh2j,i,zh2j_i,zh2j_1_izhi.wav,zh2j_8_iji.wav,,FALSE,FALSE,,,,,,,,,,,,,,f,0.093,space,0.5069,,,,,,,,0,83,83,70,1,,
5b216d7dc33f820001a2e1ef,2023-06-16_10h02.39.207,phx_ver10,2022.2.5,Win32,61.2257393,,,,,,,,,,,,52,testing_3,zh2j,a,zh2j_a,zh2j_8_aja.wav,zh2j_1_azha.wav,,FALSE,FALSE,,,,,,,,,,,,,,f,0.3582,space,0.6291,,,,,,,,0,84,84,51,1,,
5b216d7dc33f820001a2e1ef,2023-06-16_10h02.39.207,phx_ver10,2022.2.5,Win32,61.2257393,,,,,,,,,,,,138,testing_3,sh2j,ei,sh2j_ei,sh2j_8_eijei.wav,sh2j_8_eijei.wav,,TRUE,FALSE,,,,,,,,,,,,,,f,0.0748,space,0.3843,,,,,,,,0,85,85,137,1,,
5b216d7dc33f820001a2e1ef,2023-06-16_10h02.39.207,phx_ver10,2022.2.5,Win32,61.2257393,,,,,,,,,,,,105,testing_3,sh2x,au,sh2x_au,sh2x_1_aushau.wav,sh2x_1_aushau.wav,,TRUE,FALSE,,,,,,,,,,,,,,f,0.0713,space,0.3583,,,,,,,,0,86,86,104,1,,
5b216d7dc33f820001a2e1ef,2023-06-16_10h02.39.207,phx_ver10,2022.2.5,Win32,61.2257393,,,,,,,,,,,,54,testing_3,zh2j,ai,zh2j_ai,zh2j_8_aijai.wav,zh2j_8_aijai.wav,,TRUE,FALSE,,,,,,,,,,,,,,f,0.4381,space,0.6832,,,,,,,,0,87,87,53,1,,
5b216d7dc33f820001a2e1ef,2023-06-16_10h02.39.207,phx_ver10,2022.2.5,Win32,61.2257393,,,,,,,,,,,,118,testing_3,sh2x,i,sh2x_i,sh2x_8_ixi.wav,sh2x_8_ixi.wav,,TRUE,FALSE,,,,,,,,,,,,,,f,0.0351,space,0.3603,,,,,,,,0,88,88,117,1,,
5b216d7dc33f820001a2e1ef,2023-06-16_10h02.39.207,phx_ver10,2022.2.5,Win32,61.2257393,,,,,,,,,,,,120,testing_3,sh2x,i,sh2x_i,sh2x_8_ixi.wav,sh2x_1_ishi.wav,,FALSE,FALSE,,,,,,,,,,,,,,f,0.0665,space,0.4783,,,,,,,,0,89,89,119,1,,
5b216d7dc33f820001a2e1ef,2023-06-16_10h02.39.207,phx_ver10,2022.2.5,Win32,61.2257393,,,,,,,,,,,,60,testing_3,zh2j,au,zh2j_au,zh2j_8_aujau.wav,zh2j_1_auzhau.wav,,FALSE,FALSE,,,,,,,,,,,,,,f,0.3009,space,0.6543,,,,,,,,0,90,90,59,1,,
5b216d7dc33f820001a2e1ef,2023-06-16_10h02.39.207,phx_ver10,2022.2.5,Win32,61.2257393,,,,,,,,,,,,29,testing_3,zh2sh,ai,zh2sh_ai,zh2sh_1_aizhai.wav,zh2sh_1_aizhai.wav,,TRUE,FALSE,,,,,,,,,,,,,,f,0.1013,space,0.4536,,,,,,,,0,91,91,28,1,,
5b216d7dc33f820001a2e1ef,2023-06-16_10h02.39.207,phx_ver10,2022.2.5,Win32,61.2257393,,,,,,,,,,,,143,testing_3,sh2j,i,sh2j_i,sh2j_1_ishi.wav,sh2j_8_iji.wav,,FALSE,FALSE,,,,,,,,,,,,,,f,0.0865,space,0.3848,,,,,,,,0,92,92,142,1,,
5b216d7dc33f820001a2e1ef,2023-06-16_10h02.39.207,phx_ver10,2022.2.5,Win32,61.2257393,,,,,,,,,,,,11,testing_1,zh2x,i,zh2x_i,zh2x_1_izhi.wav,zh2x_8_ixi.wav,,FALSE,TRUE,,,,,,,,,,,,,,j,0.1218,space,0.5021,,,,,,,,0,93,93,10,1,,
5b216d7dc33f820001a2e1ef,2023-06-16_10h02.39.207,phx_ver10,2022.2.5,Win32,61.2257393,,,,,,,,,,,,3,testing_1,zh2x,a,zh2x_a,zh2x_1_azha.wav,zh2x_8_axa.wav,,FALSE,TRUE,,,,,,,,,,,,,,j,0.1679,space,0.5002,,,,,,,,0,94,94,2,1,,
5b216d7dc33f820001a2e1ef,2023-06-16_10h02.39.207,phx_ver10,2022.2.5,Win32,61.2257393,,,,,,,,,,,,123,testing_3,sh2j,a,sh2j_a,sh2j_1_asha.wav,sh2j_8_aja.wav,,FALSE,FALSE,,,,,,,,,,,,,,j,0.4508,space,0.8181,,,,,,,,0,95,95,122,1,,
5b216d7dc33f820001a2e1ef,2023-06-16_10h02.39.207,phx_ver10,2022.2.5,Win32,61.2257393,,,,,,,,,,,,4,testing_1,zh2x,a,zh2x_a,zh2x_8_axa.wav,zh2x_1_azha.wav,,FALSE,TRUE,,,,,,,,,,,,,,f,0.2512,space,0.6533,,,,,,,,0,96,96,3,1,,
5b216d7dc33f820001a2e1ef,2023-06-16_10h02.39.207,phx_ver10,2022.2.5,Win32,61.2257393,,,,,,,,,,,,104,testing_3,sh2x,ai,sh2x_ai,sh2x_8_aixai.wav,sh2x_1_aishai.wav,,FALSE,FALSE,,,,,,,,,,,,,,f,0.1505,space,0.4512,,,,,,,,0,97,97,103,1,,
5b216d7dc33f820001a2e1ef,2023-06-16_10h02.39.207,phx_ver10,2022.2.5,Win32,61.2257393,,,,,,,,,,,,75,testing_3,j2x,a,j2x_a,j2x_1_aja.wav,j2x_8_axa.wav,,FALSE,FALSE,,,,,,,,,,,,,,j,0.1264,space,0.4676,,,,,,,,0,98,98,74,1,,
5b216d7dc33f820001a2e1ef,2023-06-16_10h02.39.207,phx_ver10,2022.2.5,Win32,61.2257393,,,,,,,,,,,,101,testing_3,sh2x,ai,sh2x_ai,sh2x_1_aishai.wav,sh2x_1_aishai.wav,,TRUE,FALSE,,,,,,,,,,,,,,f,0.8009,space,1.1006,,,,,,,,0,99,99,100,1,,
5b216d7dc33f820001a2e1ef,2023-06-16_10h02.39.207,phx_ver10,2022.2.5,Win32,61.2257393,,,,,,,,,,,,37,testing_3,zh2sh,e,zh2sh_e,zh2sh_1_ezhe.wav,zh2sh_1_ezhe.wav,,TRUE,FALSE,,,,,,,,,,,,,,f,0.2398,space,0.6016,,,,,,,,0,100,100,36,1,,
5b216d7dc33f820001a2e1ef,2023-06-16_10h02.39.207,phx_ver10,2022.2.5,Win32,61.2257393,,,,,,,,,,,,30,testing_3,zh2sh,ai,zh2sh_ai,zh2sh_8_aishai.wav,zh2sh_8_aishai.wav,,TRUE,FALSE,,,,,,,,,,,,,,f,0.0512,space,0.4174,,,,,,,,0,101,101,29,1,,
5b216d7dc33f820001a2e1ef,2023-06-16_10h02.39.207,phx_ver10,2022.2.5,Win32,61.2257393,,,,,,,,,,,,116,testing_3,sh2x,ei,sh2x_ei,sh2x_8_eixei.wav,sh2x_1_eishei.wav,,FALSE,FALSE,,,,,,,,,,,,,,f,0.2268,space,0.5441,,,,,,,,0,102,102,115,1,,
5b216d7dc33f820001a2e1ef,2023-06-16_10h02.39.207,phx_ver10,2022.2.5,Win32,61.2257393,,,,,,,,,,,,8,testing_1,zh2x,e,zh2x_e,zh2x_8_exe.wav,zh2x_1_ezhe.wav,,FALSE,TRUE,,,,,,,,,,,,,,f,0.1012,space,0.404,,,,,,,,0,103,103,7,1,,
5b216d7dc33f820001a2e1ef,2023-06-16_10h02.39.207,phx_ver10,2022.2.5,Win32,61.2257393,,,,,,,,,,,,89,testing_3,j2x,ei,j2x_ei,j2x_1_eijei.wav,j2x_1_eijei.wav,,TRUE,FALSE,,,,,,,,,,,,,,f,0.6836,space,0.8986,,,,,,,,0,104,104,88,1,,
5b216d7dc33f820001a2e1ef,2023-06-16_10h02.39.207,phx_ver10,2022.2.5,Win32,61.2257393,,,,,,,,,,,,15,testing_2,zh2x,ai,zh2x_ai,zh2x_1_aizhai.wav,zh2x_8_aixai.wav,,FALSE,FALSE,,,,,,,,,,,,,,f,0.0694,space,0.4678,,,,,,,,0,105,105,14,1,,
5b216d7dc33f820001a2e1ef,2023-06-16_10h02.39.207,phx_ver10,2022.2.5,Win32,61.2257393,,,,,,,,,,,,16,testing_2,zh2x,ai,zh2x_ai,zh2x_8_aixai.wav,zh2x_1_aizhai.wav,,FALSE,FALSE,,,,,,,,,,,,,,f,0.5715,space,0.8848,,,,,,,,0,106,106,15,1,,
5b216d7dc33f820001a2e1ef,2023-06-16_10h02.39.207,phx_ver10,2022.2.5,Win32,61.2257393,,,,,,,,,,,,110,testing_3,sh2x,e,sh2x_e,sh2x_8_exe.wav,sh2x_8_exe.wav,,TRUE,FALSE,,,,,,,,,,,,,,f,0.0007,space,0.2929,,,,,,,,0,107,107,109,1,,
5b216d7dc33f820001a2e1ef,2023-06-16_10h02.39.207,phx_ver10,2022.2.5,Win32,61.2257393,,,,,,,,,,,,84,testing_3,j2x,au,j2x_au,j2x_8_auxau.wav,j2x_1_aujau.wav,,FALSE,FALSE,,,,,,,,,,,,,,f,0.1733,space,0.5351,,,,,,,,0,108,108,83,1,,
5b216d7dc33f820001a2e1ef,2023-06-16_10h02.39.207,phx_ver10,2022.2.5,Win32,61.2257393,,,,,,,,,,,,98,testing_3,sh2x,a,sh2x_a,sh2x_8_axa.wav,sh2x_8_axa.wav,,TRUE,FALSE,,,,,,,,,,,,,,f,0.2349,space,0.6342,,,,,,,,0,109,109,97,1,,
5b216d7dc33f820001a2e1ef,2023-06-16_10h02.39.207,phx_ver10,2022.2.5,Win32,61.2257393,,,,,,,,,,,,34,testing_3,zh2sh,au,zh2sh_au,zh2sh_8_aushau.wav,zh2sh_8_aushau.wav,,TRUE,FALSE,,,,,,,,,,,,,,f,0.8891,space,1.2681,,,,,,,,0,110,110,33,1,,
5b216d7dc33f820001a2e1ef,2023-06-16_10h02.39.207,phx_ver10,2022.2.5,Win32,61.2257393,,,,,,,,,,,,64,testing_3,zh2j,e,zh2j_e,zh2j_8_eje.wav,zh2j_1_ezhe.wav,,FALSE,FALSE,,,,,,,,,,,,,,f,0.1336,space,0.4609,,,,,,,,0,111,111,63,1,,
5b216d7dc33f820001a2e1ef,2023-06-16_10h02.39.207,phx_ver10,2022.2.5,Win32,61.2257393,,,,,,,,,,,,80,testing_3,j2x,ai,j2x_ai,j2x_8_aixai.wav,j2x_1_aijai.wav,,FALSE,FALSE,,,,,,,,,,,,,,j,0.1318,space,0.423,,,,,,,,0,112,112,79,1,,
5b216d7dc33f820001a2e1ef,2023-06-16_10h02.39.207,phx_ver10,2022.2.5,Win32,61.2257393,,,,,,,,,,,,63,testing_3,zh2j,e,zh2j_e,zh2j_1_ezhe.wav,zh2j_8_eje.wav,,FALSE,FALSE,,,,,,,,,,,,,,f,0.2008,space,0.5007,,,,,,,,0,113,113,62,1,,
5b216d7dc33f820001a2e1ef,2023-06-16_10h02.39.207,phx_ver10,2022.2.5,Win32,61.2257393,,,,,,,,,,,,39,testing_3,zh2sh,e,zh2sh_e,zh2sh_1_ezhe.wav,zh2sh_8_eshe.wav,,FALSE,FALSE,,,,,,,,,,,,,,j,0.3007,space,0.6504,,,,,,,,0,114,114,38,1,,
5b216d7dc33f820001a2e1ef,2023-06-16_10h02.39.207,phx_ver10,2022.2.5,Win32,61.2257393,,,,,,,,,,,,59,testing_3,zh2j,au,zh2j_au,zh2j_1_auzhau.wav,zh2j_8_aujau.wav,,FALSE,FALSE,,,,,,,,,,,,,,f,0.0842,space,0.388,,,,,,,,0,115,115,58,1,,
5b216d7dc33f820001a2e1ef,2023-06-16_10h02.39.207,phx_ver10,2022.2.5,Win32,61.2257393,,,,,,,,,,,,19,testing_2,zh2x,au,zh2x_au,zh2x_1_auzhau.wav,zh2x_8_auxau.wav,,FALSE,FALSE,,,,,,,,,,,,,,j,0.0296,space,0.2953,,,,,,,,0,116,116,18,1,,
5b216d7dc33f820001a2e1ef,2023-06-16_10h02.39.207,phx_ver10,2022.2.5,Win32,61.2257393,,,,,,,,,,,,65,testing_3,zh2j,ei,zh2j_ei,zh2j_1_eizhei.wav,zh2j_1_eizhei.wav,,TRUE,FALSE,,,,,,,,,,,,,,f,0.1555,space,0.4134,,,,,,,,0,117,117,64,1,,
5b216d7dc33f820001a2e1ef,2023-06-16_10h02.39.207,phx_ver10,2022.2.5,Win32,61.2257393,,,,,,,,,,,,26,testing_3,zh2sh,a,zh2sh_a,zh2sh_8_asha.wav,zh2sh_8_asha.wav,,TRUE,FALSE,,,,,,,,,,,,,,f,0.5009,space,0.735,,,,,,,,0,118,118,25,1,,
5b216d7dc33f820001a2e1ef,2023-06-16_10h02.39.207,phx_ver10,2022.2.5,Win32,61.2257393,,,,,,,,,,,,125,testing_3,sh2j,ai,sh2j_ai,sh2j_1_aishai.wav,sh2j_1_aishai.wav,,TRUE,FALSE,,,,,,,,,,,,,,f,0.1311,space,0.4307,,,,,,,,0,119,119,124,1,,
5b216d7dc33f820001a2e1ef,2023-06-16_10h02.39.207,phx_ver10,2022.2.5,Win32,61.2257393,,,,,,,,,,,,133,testing_3,sh2j,e,sh2j_e,sh2j_1_eshe.wav,sh2j_1_eshe.wav,,TRUE,FALSE,,,,,,,,,,,,,,f,0.6617,space,0.9046,,,,,,,,0,120,120,132,1,,
5b216d7dc33f820001a2e1ef,2023-06-16_10h02.39.207,phx_ver10,2022.2.5,Win32,61.2257393,,,,,,,,,,,,14,testing_2,zh2x,ai,zh2x_ai,zh2x_8_aixai.wav,zh2x_8_aixai.wav,,TRUE,FALSE,,,,,,,,,,,,,,f,0.212,space,0.5236,,,,,,,,0,121,121,13,1,,
5b216d7dc33f820001a2e1ef,2023-06-16_10h02.39.207,phx_ver10,2022.2.5,Win32,61.2257393,,,,,,,,,,,,103,testing_3,sh2x,ai,sh2x_ai,sh2x_1_aishai.wav,sh2x_8_aixai.wav,,FALSE,FALSE,,,,,,,,,,,,,,f,0.2529,space,0.5536,,,,,,,,0,122,122,102,1,,
5b216d7dc33f820001a2e1ef,2023-06-16_10h02.39.207,phx_ver10,2022.2.5,Win32,61.2257393,,,,,,,,,,,,10,testing_1,zh2x,i,zh2x_i,zh2x_8_ixi.wav,zh2x_8_ixi_copy.wav,,TRUE,TRUE,,,,,,,,,,,,,,f,0.6346,space,0.8505,,,,,,,,0,123,123,9,1,,
5b216d7dc33f820001a2e1ef,2023-06-16_10h02.39.207,phx_ver10,2022.2.5,Win32,61.2257393,,,,,,,,,,,,96,testing_3,j2x,i,j2x_i,j2x_8_ixi.wav,j2x_1_iji.wav,,FALSE,FALSE,,,,,,,,,,,,,,f,0.3639,space,0.7475,,,,,,,,0,124,124,95,1,,
5b216d7dc33f820001a2e1ef,2023-06-16_10h02.39.207,phx_ver10,2022.2.5,Win32,61.2257393,,,,,,,,,,,,48,testing_3,zh2sh,i,zh2sh_i,zh2sh_8_ishi.wav,zh2sh_1_izhi.wav,,FALSE,FALSE,,,,,,,,,,,,,,f,0.4003,space,0.6177,,,,,,,,0,125,125,47,1,,
5b216d7dc33f820001a2e1ef,2023-06-16_10h02.39.207,phx_ver10,2022.2.5,Win32,61.2257393,,,,,,,,,,,,85,testing_3,j2x,e,j2x_e,j2x_1_eje.wav,j2x_1_eje.wav,,TRUE,FALSE,,,,,,,,,,,,,,f,0.1513,space,0.5685,,,,,,,,0,126,126,84,1,,
5b216d7dc33f820001a2e1ef,2023-06-16_10h02.39.207,phx_ver10,2022.2.5,Win32,61.2257393,,,,,,,,,,,,137,testing_3,sh2j,ei,sh2j_ei,sh2j_1_eishei.wav,sh2j_1_eishei.wav,,TRUE,FALSE,,,,,,,,,,,,,,f,0.0339,space,0.3852,,,,,,,,0,127,127,136,1,,
5b216d7dc33f820001a2e1ef,2023-06-16_10h02.39.207,phx_ver10,2022.2.5,Win32,61.2257393,,,,,,,,,,,,79,testing_3,j2x,ai,j2x_ai,j2x_1_aijai.wav,j2x_8_aixai.wav,,FALSE,FALSE,,,,,,,,,,,,,,f,0.1507,space,0.4808,,,,,,,,0,128,128,78,1,,
5b216d7dc33f820001a2e1ef,2023-06-16_10h02.39.207,phx_ver10,2022.2.5,Win32,61.2257393,,,,,,,,,,,,32,testing_3,zh2sh,ai,zh2sh_ai,zh2sh_8_aishai.wav,zh2sh_1_aizhai.wav,,FALSE,FALSE,,,,,,,,,,,,,,j,0.1518,space,0.5342,,,,,,,,0,129,129,31,1,,
5b216d7dc33f820001a2e1ef,2023-06-16_10h02.39.207,phx_ver10,2022.2.5,Win32,61.2257393,,,,,,,,,,,,2,testing_1,zh2x,a,zh2x_a,zh2x_8_axa.wav,zh2x_8_axa_copy.wav,,TRUE,TRUE,,,,,,,,,,,,,,f,0.075,space,0.4069,,,,,,,,0,130,130,1,1,,
5b216d7dc33f820001a2e1ef,2023-06-16_10h02.39.207,phx_ver10,2022.2.5,Win32,61.2257393,,,,,,,,,,,,106,testing_3,sh2x,au,sh2x_au,sh2x_8_auxau.wav,sh2x_8_auxau.wav,,TRUE,FALSE,,,,,,,,,,,,,,f,0.5023,space,0.6678,,,,,,,,0,131,131,105,1,,
5b216d7dc33f820001a2e1ef,2023-06-16_10h02.39.207,phx_ver10,2022.2.5,Win32,61.2257393,,,,,,,,,,,,43,testing_3,zh2sh,ei,zh2sh_ei,zh2sh_1_eizhei.wav,zh2sh_8_eishei.wav,,FALSE,FALSE,,,,,,,,,,,,,,j,0.504,space,0.8164,,,,,,,,0,132,132,42,1,,
5b216d7dc33f820001a2e1ef,2023-06-16_10h02.39.207,phx_ver10,2022.2.5,Win32,61.2257393,,,,,,,,,,,,90,testing_3,j2x,ei,j2x_ei,j2x_8_eixei.wav,j2x_8_eixei.wav,,TRUE,FALSE,,,,,,,,,,,,,,f,0.1182,space,0.3837,,,,,,,,0,133,133,89,1,,
5b216d7dc33f820001a2e1ef,2023-06-16_10h02.39.207,phx_ver10,2022.2.5,Win32,61.2257393,,,,,,,,,,,,91,testing_3,j2x,ei,j2x_ei,j2x_1_eijei.wav,j2x_8_eixei.wav,,FALSE,FALSE,,,,,,,,,,,,,,f,0.2222,space,0.5516,,,,,,,,0,134,134,90,1,,
5b216d7dc33f820001a2e1ef,2023-06-16_10h02.39.207,phx_ver10,2022.2.5,Win32,61.2257393,,,,,,,,,,,,86,testing_3,j2x,e,j2x_e,j2x_8_exe.wav,j2x_8_exe.wav,,TRUE,FALSE,,,,,,,,,,,,,,f,0.0145,space,0.2408,,,,,,,,0,135,135,85,1,,
5b216d7dc33f820001a2e1ef,2023-06-16_10h02.39.207,phx_ver10,2022.2.5,Win32,61.2257393,,,,,,,,,,,,5,testing_1,zh2x,e,zh2x_e,zh2x_1_ezhe.wav,zh2x_1_ezhe_copy.wav,,TRUE,TRUE,,,,,,,,,,,,,,f,0.017,space,0.3819,,,,,,,,0,136,136,4,1,,
5b216d7dc33f820001a2e1ef,2023-06-16_10h02.39.207,phx_ver10,2022.2.5,Win32,61.2257393,,,,,,,,,,,,24,testing_2,zh2x,ei,zh2x_ei,zh2x_8_eixei.wav,zh2x_1_eizhei.wav,,FALSE,FALSE,,,,,,,,,,,,,,f,0.3685,space,0.5496,,,,,,,,0,137,137,23,1,,
5b216d7dc33f820001a2e1ef,2023-06-16_10h02.39.207,phx_ver10,2022.2.5,Win32,61.2257393,,,,,,,,,,,,94,testing_3,j2x,i,j2x_i,j2x_8_ixi.wav,j2x_8_ixi.wav,,TRUE,FALSE,,,,,,,,,,,,,,f,0.0007,space,0.3417,,,,,,,,0,138,138,93,1,,
5b216d7dc33f820001a2e1ef,2023-06-16_10h02.39.207,phx_ver10,2022.2.5,Win32,61.2257393,,,,,,,,,,,,47,testing_3,zh2sh,i,zh2sh_i,zh2sh_1_izhi.wav,zh2sh_8_ishi.wav,,FALSE,FALSE,,,,,,,,,,,,,,f,0.2841,space,0.5679,,,,,,,,0,139,139,46,1,,
5b216d7dc33f820001a2e1ef,2023-06-16_10h02.39.207,phx_ver10,2022.2.5,Win32,61.2257393,,,,,,,,,,,,13,testing_2,zh2x,ai,zh2x_ai,zh2x_1_aizhai.wav,zh2x_1_aizhai.wav,,TRUE,FALSE,,,,,,,,,,,,,,f,0.0682,space,0.3848,,,,,,,,0,140,140,12,1,,
5b216d7dc33f820001a2e1ef,2023-06-16_10h02.39.207,phx_ver10,2022.2.5,Win32,61.2257393,,,,,,,,,,,,67,testing_3,zh2j,ei,zh2j_ei,zh2j_1_eizhei.wav,zh2j_8_eijei.wav,,FALSE,FALSE,,,,,,,,,,,,,,f,0.4227,space,0.5891,,,,,,,,0,141,141,66,1,,
5b216d7dc33f820001a2e1ef,2023-06-16_10h02.39.207,phx_ver10,2022.2.5,Win32,61.2257393,,,,,,,,,,,,109,testing_3,sh2x,e,sh2x_e,sh2x_1_eshe.wav,sh2x_1_eshe.wav,,TRUE,FALSE,,,,,,,,,,,,,,f,0.4189,space,0.6549,,,,,,,,0,142,142,108,1,,
5b216d7dc33f820001a2e1ef,2023-06-16_10h02.39.207,phx_ver10,2022.2.5,Win32,61.2257393,,,,,,,,,,,,111,testing_3,sh2x,e,sh2x_e,sh2x_1_eshe.wav,sh2x_8_exe.wav,,FALSE,FALSE,,,,,,,,,,,,,,f,0.1912,space,0.5022,,,,,,,,0,143,143,110,1,,
5b216d7dc33f820001a2e1ef,2023-06-16_10h02.39.207,phx_ver10,2022.2.5,Win32,61.2257393,,,,,,,,,,,,,,,,,,,,,,,,,,,,,,,,,,,,,,,,,,,,,,,,,,,space,7.5281
