participant,date,expName,psychopyVersion,OS,frameRate,space_1.keys,space_1.rt,space_2.keys,space_2.rt,space_train.keys,space_train.rt,training.thisRepN,training.thisTrialN,training.thisN,training.thisIndex,training.ran,token_id,task,continuum,vowel,series,sound_1,sound_2,img,same,trained,FJ_attn.keys,FJ_attn.rt,space_attn.keys,space_attn.rt,if_attn_test.thisRepN,if_attn_test.thisTrialN,if_attn_test.thisN,if_attn_test.thisIndex,if_attn_test.ran,space_trans_1.keys,space_trans_1.rt,space_trans_11.keys,space_trans_11.rt,FJ_test.keys,FJ_test.rt,space_test.keys,space_test.rt,testing_pre.thisRepN,testing_pre.thisTrialN,testing_pre.thisN,testing_pre.thisIndex,testing_pre.ran,space_trans_2.keys,space_trans_2.rt,testing_all.thisRepN,testing_all.thisTrialN,testing_all.thisN,testing_all.thisIndex,testing_all.ran,space_ending.keys,space_ending.rt
5b61d0768de04c000171cf1b,2023-06-16_10h31.08.928,phx_ver10,2022.2.5,Win32,60.06727535,,,,,,,,,,,,,,,,,,,,,,,,,,,,,,,,,,,,,,,,,,,,,,,,,,,,
5b61d0768de04c000171cf1b,2023-06-16_10h31.08.928,phx_ver10,2022.2.5,Win32,60.06727535,space,11.0831,,,,,,,,,,,,,,,,,,,,,,,,,,,,,,,,,,,,,,,,,,,,,,,,,,
5b61d0768de04c000171cf1b,2023-06-16_10h31.08.928,phx_ver10,2022.2.5,Win32,60.06727535,,,space,1.1388,,,,,,,,,,,,,,,,,,,,,,,,,,,,,,,,,,,,,,,,,,,,,,,,
5b61d0768de04c000171cf1b,2023-06-16_10h31.08.928,phx_ver10,2022.2.5,Win32,60.06727535,,,,,space,1.7053,0,0,0,41,1,42,training,zh2x,i,zh2x_i,zh2x_6_ixi.wav,,ixi.jpg,,,,,,,,,,,,,,,,,,,,,,,,,,,,,,,,,
5b61d0768de04c000171cf1b,2023-06-16_10h31.08.928,phx_ver10,2022.2.5,Win32,60.06727535,,,,,space,0.8279,0,1,1,24,1,25,training,zh2x,e,zh2x_e,zh2x_5_exe.wav,,exe.jpg,,,,,,,,,,,,,,,,,,,,,,,,,,,,,,,,,
5b61d0768de04c000171cf1b,2023-06-16_10h31.08.928,phx_ver10,2022.2.5,Win32,60.06727535,,,,,space,0.6503,0,2,2,3,1,4,training,zh2x,a,zh2x_a,zh2x_2_azha.wav,,azha.jpg,,,,,,,,,,,,,,,,,,,,,,,,,,,,,,,,,
5b61d0768de04c000171cf1b,2023-06-16_10h31.08.928,phx_ver10,2022.2.5,Win32,60.06727535,,,,,space,0.5891,0,3,3,32,1,33,training,zh2x,i,zh2x_i,zh2x_1_izhi.wav,,izhi.jpg,,,,,,,,,,,,,,,,,,,,,,,,,,,,,,,,,
5b61d0768de04c000171cf1b,2023-06-16_10h31.08.928,phx_ver10,2022.2.5,Win32,60.06727535,,,,,space,0.2679,0,4,4,20,1,21,training,zh2x,e,zh2x_e,zh2x_2_ezhe.wav,,ezhe.jpg,,,,,,,,,,,,,,,,,,,,,,,,,,,,,,,,,
5b61d0768de04c000171cf1b,2023-06-16_10h31.08.928,phx_ver10,2022.2.5,Win32,60.06727535,,,,,space,0.5342,0,5,5,37,1,38,training,zh2x,i,zh2x_i,zh2x_3_izhi.wav,,izhi.jpg,,,,,,,,,,,,,,,,,,,,,,,,,,,,,,,,,
5b61d0768de04c000171cf1b,2023-06-16_10h31.08.928,phx_ver10,2022.2.5,Win32,60.06727535,,,,,,,,,,,,,attn_test,,,,zh2x_8_exe.wav,zh2x_8_axa.wav,exe.jpg,LEFT,,f,2.3605,space,3.8805,0,0,0,0,1,,,,,,,,,,,,,,,,,,,,,,
5b61d0768de04c000171cf1b,2023-06-16_10h31.08.928,phx_ver10,2022.2.5,Win32,60.06727535,,,,,space,1.2004,0,6,6,22,1,23,training,zh2x,e,zh2x_e,zh2x_3_ezhe.wav,,ezhe.jpg,,,,,,,,,,,,,,,,,,,,,,,,,,,,,,,,,
5b61d0768de04c000171cf1b,2023-06-16_10h31.08.928,phx_ver10,2022.2.5,Win32,60.06727535,,,,,space,0.5431,0,7,7,25,1,26,training,zh2x,e,zh2x_e,zh2x_6_exe.wav,,exe.jpg,,,,,,,,,,,,,,,,,,,,,,,,,,,,,,,,,
5b61d0768de04c000171cf1b,2023-06-16_10h31.08.928,phx_ver10,2022.2.5,Win32,60.06727535,,,,,space,0.7093,0,8,8,39,1,40,training,zh2x,i,zh2x_i,zh2x_4_izhi.wav,,izhi.jpg,,,,,,,,,,,,,,,,,,,,,,,,,,,,,,,,,
5b61d0768de04c000171cf1b,2023-06-16_10h31.08.928,phx_ver10,2022.2.5,Win32,60.06727535,,,,,space,0.5537,0,9,9,44,1,45,training,zh2x,i,zh2x_i,zh2x_7_ixi.wav,,ixi.jpg,,,,,,,,,,,,,,,,,,,,,,,,,,,,,,,,,
5b61d0768de04c000171cf1b,2023-06-16_10h31.08.928,phx_ver10,2022.2.5,Win32,60.06727535,,,,,space,0.5657,0,10,10,5,1,6,training,zh2x,a,zh2x_a,zh2x_3_azha.wav,,azha.jpg,,,,,,,,,,,,,,,,,,,,,,,,,,,,,,,,,
5b61d0768de04c000171cf1b,2023-06-16_10h31.08.928,phx_ver10,2022.2.5,Win32,60.06727535,,,,,space,0.598,0,11,11,45,1,46,training,zh2x,i,zh2x_i,zh2x_7_ixi.wav,,ixi.jpg,,,,,,,,,,,,,,,,,,,,,,,,,,,,,,,,,
5b61d0768de04c000171cf1b,2023-06-16_10h31.08.928,phx_ver10,2022.2.5,Win32,60.06727535,,,,,,,,,,,,,attn_test,,,,zh2x_1_azha.wav,zh2x_1_ezhe.wav,azha.jpg,LEFT,,j,2.3833,space,3.4439,0,0,0,0,1,,,,,,,,,,,,,,,,,,,,,,
5b61d0768de04c000171cf1b,2023-06-16_10h31.08.928,phx_ver10,2022.2.5,Win32,60.06727535,,,,,space,1.3857,0,12,12,29,1,30,training,zh2x,e,zh2x_e,zh2x_7_exe.wav,,exe.jpg,,,,,,,,,,,,,,,,,,,,,,,,,,,,,,,,,
5b61d0768de04c000171cf1b,2023-06-16_10h31.08.928,phx_ver10,2022.2.5,Win32,60.06727535,,,,,space,0.7404,0,13,13,12,1,13,training,zh2x,a,zh2x_a,zh2x_7_axa.wav,,axa.jpg,,,,,,,,,,,,,,,,,,,,,,,,,,,,,,,,,
5b61d0768de04c000171cf1b,2023-06-16_10h31.08.928,phx_ver10,2022.2.5,Win32,60.06727535,,,,,space,0.2853,0,14,14,8,1,9,training,zh2x,a,zh2x_a,zh2x_5_axa.wav,,axa.jpg,,,,,,,,,,,,,,,,,,,,,,,,,,,,,,,,,
5b61d0768de04c000171cf1b,2023-06-16_10h31.08.928,phx_ver10,2022.2.5,Win32,60.06727535,,,,,space,0.5316,0,15,15,17,1,18,training,zh2x,e,zh2x_e,zh2x_2_ezhe.wav,,ezhe.jpg,,,,,,,,,,,,,,,,,,,,,,,,,,,,,,,,,
5b61d0768de04c000171cf1b,2023-06-16_10h31.08.928,phx_ver10,2022.2.5,Win32,60.06727535,,,,,space,0.2988,0,16,16,28,1,29,training,zh2x,e,zh2x_e,zh2x_7_exe.wav,,exe.jpg,,,,,,,,,,,,,,,,,,,,,,,,,,,,,,,,,
5b61d0768de04c000171cf1b,2023-06-16_10h31.08.928,phx_ver10,2022.2.5,Win32,60.06727535,,,,,space,0.2518,0,17,17,34,1,35,training,zh2x,i,zh2x_i,zh2x_2_izhi.wav,,izhi.jpg,,,,,,,,,,,,,,,,,,,,,,,,,,,,,,,,,
5b61d0768de04c000171cf1b,2023-06-16_10h31.08.928,phx_ver10,2022.2.5,Win32,60.06727535,,,,,,,,,,,,,attn_test,,,,zh2x_8_exe.wav,zh2x_1_ezhe.wav,exe.jpg,LEFT,,j,1.0504,space,2.123,0,0,0,0,1,,,,,,,,,,,,,,,,,,,,,,
5b61d0768de04c000171cf1b,2023-06-16_10h31.08.928,phx_ver10,2022.2.5,Win32,60.06727535,,,,,space,0.9009,0,18,18,23,1,24,training,zh2x,e,zh2x_e,zh2x_4_ezhe.wav,,ezhe.jpg,,,,,,,,,,,,,,,,,,,,,,,,,,,,,,,,,
5b61d0768de04c000171cf1b,2023-06-16_10h31.08.928,phx_ver10,2022.2.5,Win32,60.06727535,,,,,space,0.5838,0,19,19,2,1,3,training,zh2x,a,zh2x_a,zh2x_2_azha.wav,,azha.jpg,,,,,,,,,,,,,,,,,,,,,,,,,,,,,,,,,
5b61d0768de04c000171cf1b,2023-06-16_10h31.08.928,phx_ver10,2022.2.5,Win32,60.06727535,,,,,space,0.5178,0,20,20,1,1,2,training,zh2x,a,zh2x_a,zh2x_2_azha.wav,,azha.jpg,,,,,,,,,,,,,,,,,,,,,,,,,,,,,,,,,
5b61d0768de04c000171cf1b,2023-06-16_10h31.08.928,phx_ver10,2022.2.5,Win32,60.06727535,,,,,space,0.2842,0,21,21,40,1,41,training,zh2x,i,zh2x_i,zh2x_5_ixi.wav,,ixi.jpg,,,,,,,,,,,,,,,,,,,,,,,,,,,,,,,,,
5b61d0768de04c000171cf1b,2023-06-16_10h31.08.928,phx_ver10,2022.2.5,Win32,60.06727535,,,,,space,2.8137,0,22,22,46,1,47,training,zh2x,i,zh2x_i,zh2x_7_ixi.wav,,ixi.jpg,,,,,,,,,,,,,,,,,,,,,,,,,,,,,,,,,
5b61d0768de04c000171cf1b,2023-06-16_10h31.08.928,phx_ver10,2022.2.5,Win32,60.06727535,,,,,space,0.7391,0,23,23,10,1,11,training,zh2x,a,zh2x_a,zh2x_6_axa.wav,,axa.jpg,,,,,,,,,,,,,,,,,,,,,,,,,,,,,,,,,
5b61d0768de04c000171cf1b,2023-06-16_10h31.08.928,phx_ver10,2022.2.5,Win32,60.06727535,,,,,,,,,,,,,attn_test,,,,zh2x_1_azha.wav,zh2x_8_axa.wav,azha.jpg,LEFT,,f,0.6679,space,1.0321,0,0,0,0,1,,,,,,,,,,,,,,,,,,,,,,
5b61d0768de04c000171cf1b,2023-06-16_10h31.08.928,phx_ver10,2022.2.5,Win32,60.06727535,,,,,space,0.7892,0,24,24,7,1,8,training,zh2x,a,zh2x_a,zh2x_4_azha.wav,,azha.jpg,,,,,,,,,,,,,,,,,,,,,,,,,,,,,,,,,
5b61d0768de04c000171cf1b,2023-06-16_10h31.08.928,phx_ver10,2022.2.5,Win32,60.06727535,,,,,space,2.1703,0,25,25,43,1,44,training,zh2x,i,zh2x_i,zh2x_7_ixi.wav,,ixi.jpg,,,,,,,,,,,,,,,,,,,,,,,,,,,,,,,,,
5b61d0768de04c000171cf1b,2023-06-16_10h31.08.928,phx_ver10,2022.2.5,Win32,60.06727535,,,,,space,0.743,0,26,26,15,1,16,training,zh2x,a,zh2x_a,zh2x_8_axa.wav,,axa.jpg,,,,,,,,,,,,,,,,,,,,,,,,,,,,,,,,,
5b61d0768de04c000171cf1b,2023-06-16_10h31.08.928,phx_ver10,2022.2.5,Win32,60.06727535,,,,,space,2.1344,0,27,27,31,1,32,training,zh2x,e,zh2x_e,zh2x_8_exe.wav,,exe.jpg,,,,,,,,,,,,,,,,,,,,,,,,,,,,,,,,,
5b61d0768de04c000171cf1b,2023-06-16_10h31.08.928,phx_ver10,2022.2.5,Win32,60.06727535,,,,,space,2.3621,0,28,28,47,1,48,training,zh2x,i,zh2x_i,zh2x_8_ixi.wav,,ixi.jpg,,,,,,,,,,,,,,,,,,,,,,,,,,,,,,,,,
5b61d0768de04c000171cf1b,2023-06-16_10h31.08.928,phx_ver10,2022.2.5,Win32,60.06727535,,,,,space,1.6134,0,29,29,4,1,5,training,zh2x,a,zh2x_a,zh2x_2_azha.wav,,azha.jpg,,,,,,,,,,,,,,,,,,,,,,,,,,,,,,,,,
5b61d0768de04c000171cf1b,2023-06-16_10h31.08.928,phx_ver10,2022.2.5,Win32,60.06727535,,,,,,,,,,,,,attn_test,,,,zh2x_8_axa.wav,zh2x_8_exe.wav,axa.jpg,LEFT,,j,0.5644,space,0.7684,0,0,0,0,1,,,,,,,,,,,,,,,,,,,,,,
5b61d0768de04c000171cf1b,2023-06-16_10h31.08.928,phx_ver10,2022.2.5,Win32,60.06727535,,,,,space,0.4345,0,30,30,33,1,34,training,zh2x,i,zh2x_i,zh2x_2_izhi.wav,,izhi.jpg,,,,,,,,,,,,,,,,,,,,,,,,,,,,,,,,,
5b61d0768de04c000171cf1b,2023-06-16_10h31.08.928,phx_ver10,2022.2.5,Win32,60.06727535,,,,,space,0.2605,0,31,31,26,1,27,training,zh2x,e,zh2x_e,zh2x_6_exe.wav,,exe.jpg,,,,,,,,,,,,,,,,,,,,,,,,,,,,,,,,,
5b61d0768de04c000171cf1b,2023-06-16_10h31.08.928,phx_ver10,2022.2.5,Win32,60.06727535,,,,,space,2.2212,0,32,32,38,1,39,training,zh2x,i,zh2x_i,zh2x_3_izhi.wav,,izhi.jpg,,,,,,,,,,,,,,,,,,,,,,,,,,,,,,,,,
5b61d0768de04c000171cf1b,2023-06-16_10h31.08.928,phx_ver10,2022.2.5,Win32,60.06727535,,,,,space,0.6869,0,33,33,21,1,22,training,zh2x,e,zh2x_e,zh2x_3_ezhe.wav,,ezhe.jpg,,,,,,,,,,,,,,,,,,,,,,,,,,,,,,,,,
5b61d0768de04c000171cf1b,2023-06-16_10h31.08.928,phx_ver10,2022.2.5,Win32,60.06727535,,,,,space,0.4853,0,34,34,14,1,15,training,zh2x,a,zh2x_a,zh2x_7_axa.wav,,axa.jpg,,,,,,,,,,,,,,,,,,,,,,,,,,,,,,,,,
5b61d0768de04c000171cf1b,2023-06-16_10h31.08.928,phx_ver10,2022.2.5,Win32,60.06727535,,,,,space,0.3316,0,35,35,11,1,12,training,zh2x,a,zh2x_a,zh2x_7_axa.wav,,axa.jpg,,,,,,,,,,,,,,,,,,,,,,,,,,,,,,,,,
5b61d0768de04c000171cf1b,2023-06-16_10h31.08.928,phx_ver10,2022.2.5,Win32,60.06727535,,,,,,,,,,,,,attn_test,,,,zh2x_1_izhi.wav,zh2x_1_azha.wav,izhi.jpg,LEFT,,f,0.0712,space,1.0525,0,0,0,0,1,,,,,,,,,,,,,,,,,,,,,,
5b61d0768de04c000171cf1b,2023-06-16_10h31.08.928,phx_ver10,2022.2.5,Win32,60.06727535,,,,,space,1.9849,0,36,36,35,1,36,training,zh2x,i,zh2x_i,zh2x_2_izhi.wav,,izhi.jpg,,,,,,,,,,,,,,,,,,,,,,,,,,,,,,,,,
5b61d0768de04c000171cf1b,2023-06-16_10h31.08.928,phx_ver10,2022.2.5,Win32,60.06727535,,,,,space,0.1331,0,37,37,30,1,31,training,zh2x,e,zh2x_e,zh2x_7_exe.wav,,exe.jpg,,,,,,,,,,,,,,,,,,,,,,,,,,,,,,,,,
5b61d0768de04c000171cf1b,2023-06-16_10h31.08.928,phx_ver10,2022.2.5,Win32,60.06727535,,,,,space,0.4214,0,38,38,18,1,19,training,zh2x,e,zh2x_e,zh2x_2_ezhe.wav,,ezhe.jpg,,,,,,,,,,,,,,,,,,,,,,,,,,,,,,,,,
5b61d0768de04c000171cf1b,2023-06-16_10h31.08.928,phx_ver10,2022.2.5,Win32,60.06727535,,,,,space,0.5249,0,39,39,19,1,20,training,zh2x,e,zh2x_e,zh2x_2_ezhe.wav,,ezhe.jpg,,,,,,,,,,,,,,,,,,,,,,,,,,,,,,,,,
5b61d0768de04c000171cf1b,2023-06-16_10h31.08.928,phx_ver10,2022.2.5,Win32,60.06727535,,,,,space,0.4043,0,40,40,0,1,1,training,zh2x,a,zh2x_a,zh2x_1_azha.wav,,azha.jpg,,,,,,,,,,,,,,,,,,,,,,,,,,,,,,,,,
5b61d0768de04c000171cf1b,2023-06-16_10h31.08.928,phx_ver10,2022.2.5,Win32,60.06727535,,,,,space,2.004,0,41,41,6,1,7,training,zh2x,a,zh2x_a,zh2x_3_azha.wav,,azha.jpg,,,,,,,,,,,,,,,,,,,,,,,,,,,,,,,,,
5b61d0768de04c000171cf1b,2023-06-16_10h31.08.928,phx_ver10,2022.2.5,Win32,60.06727535,,,,,,,,,,,,,attn_test,,,,zh2x_1_izhi.wav,zh2x_8_axa.wav,izhi.jpg,LEFT,,f,0.6152,space,0.9711,0,0,0,0,1,,,,,,,,,,,,,,,,,,,,,,
5b61d0768de04c000171cf1b,2023-06-16_10h31.08.928,phx_ver10,2022.2.5,Win32,60.06727535,,,,,space,6.1405,0,42,42,36,1,37,training,zh2x,i,zh2x_i,zh2x_2_izhi.wav,,izhi.jpg,,,,,,,,,,,,,,,,,,,,,,,,,,,,,,,,,
5b61d0768de04c000171cf1b,2023-06-16_10h31.08.928,phx_ver10,2022.2.5,Win32,60.06727535,,,,,space,0.169,0,43,43,27,1,28,training,zh2x,e,zh2x_e,zh2x_7_exe.wav,,exe.jpg,,,,,,,,,,,,,,,,,,,,,,,,,,,,,,,,,
5b61d0768de04c000171cf1b,2023-06-16_10h31.08.928,phx_ver10,2022.2.5,Win32,60.06727535,,,,,space,1.9538,0,44,44,16,1,17,training,zh2x,e,zh2x_e,zh2x_1_ezhe.wav,,ezhe.jpg,,,,,,,,,,,,,,,,,,,,,,,,,,,,,,,,,
5b61d0768de04c000171cf1b,2023-06-16_10h31.08.928,phx_ver10,2022.2.5,Win32,60.06727535,,,,,space,1.4622,0,45,45,9,1,10,training,zh2x,a,zh2x_a,zh2x_6_axa.wav,,axa.jpg,,,,,,,,,,,,,,,,,,,,,,,,,,,,,,,,,
5b61d0768de04c000171cf1b,2023-06-16_10h31.08.928,phx_ver10,2022.2.5,Win32,60.06727535,,,,,space,1.0087,0,46,46,13,1,14,training,zh2x,a,zh2x_a,zh2x_7_axa.wav,,axa.jpg,,,,,,,,,,,,,,,,,,,,,,,,,,,,,,,,,
5b61d0768de04c000171cf1b,2023-06-16_10h31.08.928,phx_ver10,2022.2.5,Win32,60.06727535,,,,,space,0.762,0,47,47,42,1,43,training,zh2x,i,zh2x_i,zh2x_6_ixi.wav,,ixi.jpg,,,,,,,,,,,,,,,,,,,,,,,,,,,,,,,,,
5b61d0768de04c000171cf1b,2023-06-16_10h31.08.928,phx_ver10,2022.2.5,Win32,60.06727535,,,,,,,,,,,,,attn_test,,,,zh2x_1_izhi.wav,zh2x_1_ezhe.wav,ezhe.jpg,RIGHT,,j,0.6943,space,1.0705,,,,,,,,,,,,,,,,,,,,,,,,,,,
5b61d0768de04c000171cf1b,2023-06-16_10h31.08.928,phx_ver10,2022.2.5,Win32,60.06727535,,,,,,,,,,,,,,,,,,,,,,,,,,,,,,,space,8.7007,,,,,,,,,,,,,,,,,,,,
5b61d0768de04c000171cf1b,2023-06-16_10h31.08.928,phx_ver10,2022.2.5,Win32,60.06727535,,,,,,,,,,,,,,,,,,,,,,,,,,,,,,,,,space,39.0942,,,,,,,,,,,,,,,,,,
5b61d0768de04c000171cf1b,2023-06-16_10h31.08.928,phx_ver10,2022.2.5,Win32,60.06727535,,,,,,,,,,,,2,testing_pre,,,,auhau.wav,aufau.wav,,FALSE,,,,,,,,,,,,,,,f,2.5233,space,2.6824,0,0,0,1,1,,,,,,,,,
5b61d0768de04c000171cf1b,2023-06-16_10h31.08.928,phx_ver10,2022.2.5,Win32,60.06727535,,,,,,,,,,,,4,testing_pre,,,,eihei.wav,eihei.wav,,TRUE,,,,,,,,,,,,,,,f,0.4657,space,0.841,0,1,1,3,1,,,,,,,,,
5b61d0768de04c000171cf1b,2023-06-16_10h31.08.928,phx_ver10,2022.2.5,Win32,60.06727535,,,,,,,,,,,,1,testing_pre,,,,ifi.wav,ifi.wav,,TRUE,,,,,,,,,,,,,,,f,0.2503,space,1.1309,0,2,2,0,1,,,,,,,,,
5b61d0768de04c000171cf1b,2023-06-16_10h31.08.928,phx_ver10,2022.2.5,Win32,60.06727535,,,,,,,,,,,,5,testing_pre,,,,ihi.wav,ifi.wav,,FALSE,,,,,,,,,,,,,,,f,0.7486,space,1.0514,0,3,3,4,1,,,,,,,,,
5b61d0768de04c000171cf1b,2023-06-16_10h31.08.928,phx_ver10,2022.2.5,Win32,60.06727535,,,,,,,,,,,,3,testing_pre,,,,afa.wav,aha.wav,,FALSE,,,,,,,,,,,,,,,f,0.1846,space,0.5385,0,4,4,2,1,,,,,,,,,
5b61d0768de04c000171cf1b,2023-06-16_10h31.08.928,phx_ver10,2022.2.5,Win32,60.06727535,,,,,,,,,,,,,,,,,,,,,,,,,,,,,,,,,,,,,,,,,,,,space,0.6765,,,,,,,
5b61d0768de04c000171cf1b,2023-06-16_10h31.08.928,phx_ver10,2022.2.5,Win32,60.06727535,,,,,,,,,,,,7,testing_1,zh2x,e,zh2x_e,zh2x_1_ezhe.wav,zh2x_8_exe.wav,,FALSE,TRUE,,,,,,,,,,,,,,j,1.4122,space,1.5988,,,,,,,,0,0,0,6,1,,
5b61d0768de04c000171cf1b,2023-06-16_10h31.08.928,phx_ver10,2022.2.5,Win32,60.06727535,,,,,,,,,,,,35,testing_3,zh2sh,au,zh2sh_au,zh2sh_1_auzhau.wav,zh2sh_8_aushau.wav,,FALSE,FALSE,,,,,,,,,,,,,,j,0.9186,space,1.1879,,,,,,,,0,1,1,34,1,,
5b61d0768de04c000171cf1b,2023-06-16_10h31.08.928,phx_ver10,2022.2.5,Win32,60.06727535,,,,,,,,,,,,137,testing_3,sh2j,ei,sh2j_ei,sh2j_1_eishei.wav,sh2j_1_eishei.wav,,TRUE,FALSE,,,,,,,,,,,,,,f,0.2333,space,0.502,,,,,,,,0,2,2,136,1,,
5b61d0768de04c000171cf1b,2023-06-16_10h31.08.928,phx_ver10,2022.2.5,Win32,60.06727535,,,,,,,,,,,,12,testing_1,zh2x,i,zh2x_i,zh2x_8_ixi.wav,zh2x_1_izhi.wav,,FALSE,TRUE,,,,,,,,,,,,,,f,0.2316,space,0.4459,,,,,,,,0,3,3,11,1,,
5b61d0768de04c000171cf1b,2023-06-16_10h31.08.928,phx_ver10,2022.2.5,Win32,60.06727535,,,,,,,,,,,,32,testing_3,zh2sh,ai,zh2sh_ai,zh2sh_8_aishai.wav,zh2sh_1_aizhai.wav,,FALSE,FALSE,,,,,,,,,,,,,,f,0.4178,space,0.825,,,,,,,,0,4,4,31,1,,
5b61d0768de04c000171cf1b,2023-06-16_10h31.08.928,phx_ver10,2022.2.5,Win32,60.06727535,,,,,,,,,,,,9,testing_1,zh2x,i,zh2x_i,zh2x_1_izhi.wav,zh2x_1_izhi_copy.wav,,TRUE,TRUE,,,,,,,,,,,,,,f,0.5446,space,0.8179,,,,,,,,0,5,5,8,1,,
5b61d0768de04c000171cf1b,2023-06-16_10h31.08.928,phx_ver10,2022.2.5,Win32,60.06727535,,,,,,,,,,,,77,testing_3,j2x,ai,j2x_ai,j2x_1_aijai.wav,j2x_1_aijai.wav,,TRUE,FALSE,,,,,,,,,,,,,,f,0.4005,space,0.7174,,,,,,,,0,6,6,76,1,,
5b61d0768de04c000171cf1b,2023-06-16_10h31.08.928,phx_ver10,2022.2.5,Win32,60.06727535,,,,,,,,,,,,139,testing_3,sh2j,ei,sh2j_ei,sh2j_1_eishei.wav,sh2j_8_eijei.wav,,FALSE,FALSE,,,,,,,,,,,,,,j,0.5534,space,0.8505,,,,,,,,0,7,7,138,1,,
5b61d0768de04c000171cf1b,2023-06-16_10h31.08.928,phx_ver10,2022.2.5,Win32,60.06727535,,,,,,,,,,,,84,testing_3,j2x,au,j2x_au,j2x_8_auxau.wav,j2x_1_aujau.wav,,FALSE,FALSE,,,,,,,,,,,,,,f,0.6009,space,0.8804,,,,,,,,0,8,8,83,1,,
5b61d0768de04c000171cf1b,2023-06-16_10h31.08.928,phx_ver10,2022.2.5,Win32,60.06727535,,,,,,,,,,,,30,testing_3,zh2sh,ai,zh2sh_ai,zh2sh_8_aishai.wav,zh2sh_8_aishai.wav,,TRUE,FALSE,,,,,,,,,,,,,,f,0.3938,space,0.6391,,,,,,,,0,9,9,29,1,,
5b61d0768de04c000171cf1b,2023-06-16_10h31.08.928,phx_ver10,2022.2.5,Win32,60.06727535,,,,,,,,,,,,100,testing_3,sh2x,a,sh2x_a,sh2x_8_axa.wav,sh2x_1_asha.wav,,FALSE,FALSE,,,,,,,,,,,,,,j,0.6848,space,1.0155,,,,,,,,0,10,10,99,1,,
5b61d0768de04c000171cf1b,2023-06-16_10h31.08.928,phx_ver10,2022.2.5,Win32,60.06727535,,,,,,,,,,,,14,testing_2,zh2x,ai,zh2x_ai,zh2x_8_aixai.wav,zh2x_8_aixai.wav,,TRUE,FALSE,,,,,,,,,,,,,,f,0.1946,space,0.569,,,,,,,,0,11,11,13,1,,
5b61d0768de04c000171cf1b,2023-06-16_10h31.08.928,phx_ver10,2022.2.5,Win32,60.06727535,,,,,,,,,,,,97,testing_3,sh2x,a,sh2x_a,sh2x_1_asha.wav,sh2x_1_asha.wav,,TRUE,FALSE,,,,,,,,,,,,,,f,0.3855,space,0.7752,,,,,,,,0,12,12,96,1,,
5b61d0768de04c000171cf1b,2023-06-16_10h31.08.928,phx_ver10,2022.2.5,Win32,60.06727535,,,,,,,,,,,,47,testing_3,zh2sh,i,zh2sh_i,zh2sh_1_izhi.wav,zh2sh_8_ishi.wav,,FALSE,FALSE,,,,,,,,,,,,,,j,0.5813,space,0.8701,,,,,,,,0,13,13,46,1,,
5b61d0768de04c000171cf1b,2023-06-16_10h31.08.928,phx_ver10,2022.2.5,Win32,60.06727535,,,,,,,,,,,,29,testing_3,zh2sh,ai,zh2sh_ai,zh2sh_1_aizhai.wav,zh2sh_1_aizhai.wav,,TRUE,FALSE,,,,,,,,,,,,,,j,0.0267,space,0.337,,,,,,,,0,14,14,28,1,,
5b61d0768de04c000171cf1b,2023-06-16_10h31.08.928,phx_ver10,2022.2.5,Win32,60.06727535,,,,,,,,,,,,15,testing_2,zh2x,ai,zh2x_ai,zh2x_1_aizhai.wav,zh2x_8_aixai.wav,,FALSE,FALSE,,,,,,,,,,,,,,j,0.3391,space,0.6888,,,,,,,,0,15,15,14,1,,
5b61d0768de04c000171cf1b,2023-06-16_10h31.08.928,phx_ver10,2022.2.5,Win32,60.06727535,,,,,,,,,,,,4,testing_1,zh2x,a,zh2x_a,zh2x_8_axa.wav,zh2x_1_azha.wav,,FALSE,TRUE,,,,,,,,,,,,,,j,0.6023,space,0.8906,,,,,,,,0,16,16,3,1,,
5b61d0768de04c000171cf1b,2023-06-16_10h31.08.928,phx_ver10,2022.2.5,Win32,60.06727535,,,,,,,,,,,,121,testing_3,sh2j,a,sh2j_a,sh2j_1_asha.wav,sh2j_1_asha.wav,,TRUE,FALSE,,,,,,,,,,,,,,f,0.1681,space,0.5131,,,,,,,,0,17,17,120,1,,
5b61d0768de04c000171cf1b,2023-06-16_10h31.08.928,phx_ver10,2022.2.5,Win32,60.06727535,,,,,,,,,,,,50,testing_3,zh2j,a,zh2j_a,zh2j_8_aja.wav,zh2j_8_aja.wav,,TRUE,FALSE,,,,,,,,,,,,,,f,0.4013,space,0.7859,,,,,,,,0,18,18,49,1,,
5b61d0768de04c000171cf1b,2023-06-16_10h31.08.928,phx_ver10,2022.2.5,Win32,60.06727535,,,,,,,,,,,,18,testing_2,zh2x,au,zh2x_au,zh2x_8_auxau.wav,zh2x_8_auxau.wav,,TRUE,FALSE,,,,,,,,,,,,,,f,0.361,space,0.6523,,,,,,,,0,19,19,17,1,,
5b61d0768de04c000171cf1b,2023-06-16_10h31.08.928,phx_ver10,2022.2.5,Win32,60.06727535,,,,,,,,,,,,3,testing_1,zh2x,a,zh2x_a,zh2x_1_azha.wav,zh2x_8_axa.wav,,FALSE,TRUE,,,,,,,,,,,,,,j,0.3316,space,0.6209,,,,,,,,0,20,20,2,1,,
5b61d0768de04c000171cf1b,2023-06-16_10h31.08.928,phx_ver10,2022.2.5,Win32,60.06727535,,,,,,,,,,,,1,testing_1,zh2x,a,zh2x_a,zh2x_1_azha.wav,zh2x_1_azha_copy.wav,,TRUE,TRUE,,,,,,,,,,,,,,f,0.4368,space,0.8692,,,,,,,,0,21,21,0,1,,
5b61d0768de04c000171cf1b,2023-06-16_10h31.08.928,phx_ver10,2022.2.5,Win32,60.06727535,,,,,,,,,,,,11,testing_1,zh2x,i,zh2x_i,zh2x_1_izhi.wav,zh2x_8_ixi.wav,,FALSE,TRUE,,,,,,,,,,,,,,j,0.3008,space,0.5848,,,,,,,,0,22,22,10,1,,
5b61d0768de04c000171cf1b,2023-06-16_10h31.08.928,phx_ver10,2022.2.5,Win32,60.06727535,,,,,,,,,,,,111,testing_3,sh2x,e,sh2x_e,sh2x_1_eshe.wav,sh2x_8_exe.wav,,FALSE,FALSE,,,,,,,,,,,,,,j,0.3197,space,0.6558,,,,,,,,0,23,23,110,1,,
5b61d0768de04c000171cf1b,2023-06-16_10h31.08.928,phx_ver10,2022.2.5,Win32,60.06727535,,,,,,,,,,,,62,testing_3,zh2j,e,zh2j_e,zh2j_8_eje.wav,zh2j_8_eje.wav,,TRUE,FALSE,,,,,,,,,,,,,,f,0.3002,space,0.5847,,,,,,,,0,24,24,61,1,,
5b61d0768de04c000171cf1b,2023-06-16_10h31.08.928,phx_ver10,2022.2.5,Win32,60.06727535,,,,,,,,,,,,126,testing_3,sh2j,ai,sh2j_ai,sh2j_8_aijai.wav,sh2j_8_aijai.wav,,TRUE,FALSE,,,,,,,,,,,,,,f,0.1626,space,0.4419,,,,,,,,0,25,25,125,1,,
5b61d0768de04c000171cf1b,2023-06-16_10h31.08.928,phx_ver10,2022.2.5,Win32,60.06727535,,,,,,,,,,,,127,testing_3,sh2j,ai,sh2j_ai,sh2j_1_aishai.wav,sh2j_8_aijai.wav,,FALSE,FALSE,,,,,,,,,,,,,,j,0.1794,space,0.456,,,,,,,,0,26,26,126,1,,
5b61d0768de04c000171cf1b,2023-06-16_10h31.08.928,phx_ver10,2022.2.5,Win32,60.06727535,,,,,,,,,,,,112,testing_3,sh2x,e,sh2x_e,sh2x_8_exe.wav,sh2x_1_eshe.wav,,FALSE,FALSE,,,,,,,,,,,,,,j,0.401,space,0.7483,,,,,,,,0,27,27,111,1,,
5b61d0768de04c000171cf1b,2023-06-16_10h31.08.928,phx_ver10,2022.2.5,Win32,60.06727535,,,,,,,,,,,,135,testing_3,sh2j,e,sh2j_e,sh2j_1_eshe.wav,sh2j_8_eje.wav,,FALSE,FALSE,,,,,,,,,,,,,,j,0.2633,space,0.5546,,,,,,,,0,28,28,134,1,,
5b61d0768de04c000171cf1b,2023-06-16_10h31.08.928,phx_ver10,2022.2.5,Win32,60.06727535,,,,,,,,,,,,19,testing_2,zh2x,au,zh2x_au,zh2x_1_auzhau.wav,zh2x_8_auxau.wav,,FALSE,FALSE,,,,,,,,,,,,,,j,0.2056,space,0.4962,,,,,,,,0,29,29,18,1,,
5b61d0768de04c000171cf1b,2023-06-16_10h31.08.928,phx_ver10,2022.2.5,Win32,60.06727535,,,,,,,,,,,,27,testing_3,zh2sh,a,zh2sh_a,zh2sh_1_azha.wav,zh2sh_8_asha.wav,,FALSE,FALSE,,,,,,,,,,,,,,j,0.2291,space,0.5208,,,,,,,,0,30,30,26,1,,
5b61d0768de04c000171cf1b,2023-06-16_10h31.08.928,phx_ver10,2022.2.5,Win32,60.06727535,,,,,,,,,,,,131,testing_3,sh2j,au,sh2j_au,sh2j_1_aushau.wav,sh2j_8_aujau.wav,,FALSE,FALSE,,,,,,,,,,,,,,j,0.1913,space,0.4709,,,,,,,,0,31,31,130,1,,
5b61d0768de04c000171cf1b,2023-06-16_10h31.08.928,phx_ver10,2022.2.5,Win32,60.06727535,,,,,,,,,,,,69,testing_3,zh2j,i,zh2j_i,zh2j_1_izhi.wav,zh2j_1_izhi.wav,,TRUE,FALSE,,,,,,,,,,,,,,f,0.5731,space,0.8454,,,,,,,,0,32,32,68,1,,
5b61d0768de04c000171cf1b,2023-06-16_10h31.08.928,phx_ver10,2022.2.5,Win32,60.06727535,,,,,,,,,,,,86,testing_3,j2x,e,j2x_e,j2x_8_exe.wav,j2x_8_exe.wav,,TRUE,FALSE,,,,,,,,,,,,,,f,0.1076,space,0.4155,,,,,,,,0,33,33,85,1,,
5b61d0768de04c000171cf1b,2023-06-16_10h31.08.928,phx_ver10,2022.2.5,Win32,60.06727535,,,,,,,,,,,,40,testing_3,zh2sh,e,zh2sh_e,zh2sh_8_eshe.wav,zh2sh_1_ezhe.wav,,FALSE,FALSE,,,,,,,,,,,,,,j,0.3457,space,0.6605,,,,,,,,0,34,34,39,1,,
5b61d0768de04c000171cf1b,2023-06-16_10h31.08.928,phx_ver10,2022.2.5,Win32,60.06727535,,,,,,,,,,,,116,testing_3,sh2x,ei,sh2x_ei,sh2x_8_eixei.wav,sh2x_1_eishei.wav,,FALSE,FALSE,,,,,,,,,,,,,,f,1.5856,space,1.8353,,,,,,,,0,35,35,115,1,,
5b61d0768de04c000171cf1b,2023-06-16_10h31.08.928,phx_ver10,2022.2.5,Win32,60.06727535,,,,,,,,,,,,66,testing_3,zh2j,ei,zh2j_ei,zh2j_8_eijei.wav,zh2j_8_eijei.wav,,TRUE,FALSE,,,,,,,,,,,,,,f,0.0916,space,0.3609,,,,,,,,0,36,36,65,1,,
5b61d0768de04c000171cf1b,2023-06-16_10h31.08.928,phx_ver10,2022.2.5,Win32,60.06727535,,,,,,,,,,,,13,testing_2,zh2x,ai,zh2x_ai,zh2x_1_aizhai.wav,zh2x_1_aizhai.wav,,TRUE,FALSE,,,,,,,,,,,,,,j,0.6723,space,0.9581,,,,,,,,0,37,37,12,1,,
5b61d0768de04c000171cf1b,2023-06-16_10h31.08.928,phx_ver10,2022.2.5,Win32,60.06727535,,,,,,,,,,,,141,testing_3,sh2j,i,sh2j_i,sh2j_1_ishi.wav,sh2j_1_ishi.wav,,TRUE,FALSE,,,,,,,,,,,,,,f,0.2956,space,0.777,,,,,,,,0,38,38,140,1,,
5b61d0768de04c000171cf1b,2023-06-16_10h31.08.928,phx_ver10,2022.2.5,Win32,60.06727535,,,,,,,,,,,,75,testing_3,j2x,a,j2x_a,j2x_1_aja.wav,j2x_8_axa.wav,,FALSE,FALSE,,,,,,,,,,,,,,j,0.1694,space,0.4552,,,,,,,,0,39,39,74,1,,
5b61d0768de04c000171cf1b,2023-06-16_10h31.08.928,phx_ver10,2022.2.5,Win32,60.06727535,,,,,,,,,,,,106,testing_3,sh2x,au,sh2x_au,sh2x_8_auxau.wav,sh2x_8_auxau.wav,,TRUE,FALSE,,,,,,,,,,,,,,f,0.5552,space,0.8697,,,,,,,,0,40,40,105,1,,
5b61d0768de04c000171cf1b,2023-06-16_10h31.08.928,phx_ver10,2022.2.5,Win32,60.06727535,,,,,,,,,,,,122,testing_3,sh2j,a,sh2j_a,sh2j_8_aja.wav,sh2j_8_aja.wav,,TRUE,FALSE,,,,,,,,,,,,,,f,0.7605,space,1.0556,,,,,,,,0,41,41,121,1,,
5b61d0768de04c000171cf1b,2023-06-16_10h31.08.928,phx_ver10,2022.2.5,Win32,60.06727535,,,,,,,,,,,,133,testing_3,sh2j,e,sh2j_e,sh2j_1_eshe.wav,sh2j_1_eshe.wav,,TRUE,FALSE,,,,,,,,,,,,,,f,0.2015,space,0.5046,,,,,,,,0,42,42,132,1,,
5b61d0768de04c000171cf1b,2023-06-16_10h31.08.928,phx_ver10,2022.2.5,Win32,60.06727535,,,,,,,,,,,,114,testing_3,sh2x,ei,sh2x_ei,sh2x_8_eixei.wav,sh2x_8_eixei.wav,,TRUE,FALSE,,,,,,,,,,,,,,f,0.319,space,0.6009,,,,,,,,0,43,43,113,1,,
5b61d0768de04c000171cf1b,2023-06-16_10h31.08.928,phx_ver10,2022.2.5,Win32,60.06727535,,,,,,,,,,,,109,testing_3,sh2x,e,sh2x_e,sh2x_1_eshe.wav,sh2x_1_eshe.wav,,TRUE,FALSE,,,,,,,,,,,,,,f,0.6781,space,0.9803,,,,,,,,0,44,44,108,1,,
5b61d0768de04c000171cf1b,2023-06-16_10h31.08.928,phx_ver10,2022.2.5,Win32,60.06727535,,,,,,,,,,,,74,testing_3,j2x,a,j2x_a,j2x_8_axa.wav,j2x_8_axa.wav,,TRUE,FALSE,,,,,,,,,,,,,,f,0.1575,space,0.4417,,,,,,,,0,45,45,73,1,,
5b61d0768de04c000171cf1b,2023-06-16_10h31.08.928,phx_ver10,2022.2.5,Win32,60.06727535,,,,,,,,,,,,119,testing_3,sh2x,i,sh2x_i,sh2x_1_ishi.wav,sh2x_8_ixi.wav,,FALSE,FALSE,,,,,,,,,,,,,,j,0.9838,space,1.3009,,,,,,,,0,46,46,118,1,,
5b61d0768de04c000171cf1b,2023-06-16_10h31.08.928,phx_ver10,2022.2.5,Win32,60.06727535,,,,,,,,,,,,56,testing_3,zh2j,ai,zh2j_ai,zh2j_8_aijai.wav,zh2j_1_aizhai.wav,,FALSE,FALSE,,,,,,,,,,,,,,f,0.345,space,0.6295,,,,,,,,0,47,47,55,1,,
5b61d0768de04c000171cf1b,2023-06-16_10h31.08.928,phx_ver10,2022.2.5,Win32,60.06727535,,,,,,,,,,,,28,testing_3,zh2sh,a,zh2sh_a,zh2sh_8_asha.wav,zh2sh_1_azha.wav,,FALSE,FALSE,,,,,,,,,,,,,,f,0.5101,space,0.7874,,,,,,,,0,48,48,27,1,,
5b61d0768de04c000171cf1b,2023-06-16_10h31.08.928,phx_ver10,2022.2.5,Win32,60.06727535,,,,,,,,,,,,136,testing_3,sh2j,e,sh2j_e,sh2j_8_eje.wav,sh2j_1_eshe.wav,,FALSE,FALSE,,,,,,,,,,,,,,j,0.432,space,0.7304,,,,,,,,0,49,49,135,1,,
5b61d0768de04c000171cf1b,2023-06-16_10h31.08.928,phx_ver10,2022.2.5,Win32,60.06727535,,,,,,,,,,,,142,testing_3,sh2j,i,sh2j_i,sh2j_8_iji.wav,sh2j_8_iji.wav,,TRUE,FALSE,,,,,,,,,,,,,,f,0.5738,space,0.8668,,,,,,,,0,50,50,141,1,,
5b61d0768de04c000171cf1b,2023-06-16_10h31.08.928,phx_ver10,2022.2.5,Win32,60.06727535,,,,,,,,,,,,108,testing_3,sh2x,au,sh2x_au,sh2x_8_auxau.wav,sh2x_1_aushau.wav,,FALSE,FALSE,,,,,,,,,,,,,,j,0.5015,space,0.7837,,,,,,,,0,51,51,107,1,,
5b61d0768de04c000171cf1b,2023-06-16_10h31.08.928,phx_ver10,2022.2.5,Win32,60.06727535,,,,,,,,,,,,38,testing_3,zh2sh,e,zh2sh_e,zh2sh_8_eshe.wav,zh2sh_8_eshe.wav,,TRUE,FALSE,,,,,,,,,,,,,,f,0.4086,space,0.6874,,,,,,,,0,52,52,37,1,,
5b61d0768de04c000171cf1b,2023-06-16_10h31.08.928,phx_ver10,2022.2.5,Win32,60.06727535,,,,,,,,,,,,8,testing_1,zh2x,e,zh2x_e,zh2x_8_exe.wav,zh2x_1_ezhe.wav,,FALSE,TRUE,,,,,,,,,,,,,,j,0.4504,space,0.8019,,,,,,,,0,53,53,7,1,,
5b61d0768de04c000171cf1b,2023-06-16_10h31.08.928,phx_ver10,2022.2.5,Win32,60.06727535,,,,,,,,,,,,125,testing_3,sh2j,ai,sh2j_ai,sh2j_1_aishai.wav,sh2j_1_aishai.wav,,TRUE,FALSE,,,,,,,,,,,,,,f,1.2003,space,1.4514,,,,,,,,0,54,54,124,1,,
5b61d0768de04c000171cf1b,2023-06-16_10h31.08.928,phx_ver10,2022.2.5,Win32,60.06727535,,,,,,,,,,,,71,testing_3,zh2j,i,zh2j_i,zh2j_1_izhi.wav,zh2j_8_iji.wav,,FALSE,FALSE,,,,,,,,,,,,,,f,0.8277,space,1.1946,,,,,,,,0,55,55,70,1,,
5b61d0768de04c000171cf1b,2023-06-16_10h31.08.928,phx_ver10,2022.2.5,Win32,60.06727535,,,,,,,,,,,,124,testing_3,sh2j,a,sh2j_a,sh2j_8_aja.wav,sh2j_1_asha.wav,,FALSE,FALSE,,,,,,,,,,,,,,j,0.504,space,0.8705,,,,,,,,0,56,56,123,1,,
5b61d0768de04c000171cf1b,2023-06-16_10h31.08.928,phx_ver10,2022.2.5,Win32,60.06727535,,,,,,,,,,,,94,testing_3,j2x,i,j2x_i,j2x_8_ixi.wav,j2x_8_ixi.wav,,TRUE,FALSE,,,,,,,,,,,,,,f,0.439,space,0.8494,,,,,,,,0,57,57,93,1,,
5b61d0768de04c000171cf1b,2023-06-16_10h31.08.928,phx_ver10,2022.2.5,Win32,60.06727535,,,,,,,,,,,,89,testing_3,j2x,ei,j2x_ei,j2x_1_eijei.wav,j2x_1_eijei.wav,,TRUE,FALSE,,,,,,,,,,,,,,f,0.2092,space,0.56,,,,,,,,0,58,58,88,1,,
5b61d0768de04c000171cf1b,2023-06-16_10h31.08.928,phx_ver10,2022.2.5,Win32,60.06727535,,,,,,,,,,,,76,testing_3,j2x,a,j2x_a,j2x_8_axa.wav,j2x_1_aja.wav,,FALSE,FALSE,,,,,,,,,,,,,,j,0.3912,space,0.7008,,,,,,,,0,59,59,75,1,,
5b61d0768de04c000171cf1b,2023-06-16_10h31.08.928,phx_ver10,2022.2.5,Win32,60.06727535,,,,,,,,,,,,134,testing_3,sh2j,e,sh2j_e,sh2j_8_eje.wav,sh2j_8_eje.wav,,TRUE,FALSE,,,,,,,,,,,,,,f,0.3669,space,0.7116,,,,,,,,0,60,60,133,1,,
5b61d0768de04c000171cf1b,2023-06-16_10h31.08.928,phx_ver10,2022.2.5,Win32,60.06727535,,,,,,,,,,,,99,testing_3,sh2x,a,sh2x_a,sh2x_1_asha.wav,sh2x_8_axa.wav,,FALSE,FALSE,,,,,,,,,,,,,,j,0.4207,space,0.7207,,,,,,,,0,61,61,98,1,,
5b61d0768de04c000171cf1b,2023-06-16_10h31.08.928,phx_ver10,2022.2.5,Win32,60.06727535,,,,,,,,,,,,64,testing_3,zh2j,e,zh2j_e,zh2j_8_eje.wav,zh2j_1_ezhe.wav,,FALSE,FALSE,,,,,,,,,,,,,,j,0.5374,space,0.8291,,,,,,,,0,62,62,63,1,,
5b61d0768de04c000171cf1b,2023-06-16_10h31.08.928,phx_ver10,2022.2.5,Win32,60.06727535,,,,,,,,,,,,10,testing_1,zh2x,i,zh2x_i,zh2x_8_ixi.wav,zh2x_8_ixi_copy.wav,,TRUE,TRUE,,,,,,,,,,,,,,f,0.1543,space,0.5345,,,,,,,,0,63,63,9,1,,
5b61d0768de04c000171cf1b,2023-06-16_10h31.08.928,phx_ver10,2022.2.5,Win32,60.06727535,,,,,,,,,,,,118,testing_3,sh2x,i,sh2x_i,sh2x_8_ixi.wav,sh2x_8_ixi.wav,,TRUE,FALSE,,,,,,,,,,,,,,f,0.4361,space,0.7764,,,,,,,,0,64,64,117,1,,
5b61d0768de04c000171cf1b,2023-06-16_10h31.08.928,phx_ver10,2022.2.5,Win32,60.06727535,,,,,,,,,,,,59,testing_3,zh2j,au,zh2j_au,zh2j_1_auzhau.wav,zh2j_8_aujau.wav,,FALSE,FALSE,,,,,,,,,,,,,,f,0.4448,space,0.9517,,,,,,,,0,65,65,58,1,,
5b61d0768de04c000171cf1b,2023-06-16_10h31.08.928,phx_ver10,2022.2.5,Win32,60.06727535,,,,,,,,,,,,98,testing_3,sh2x,a,sh2x_a,sh2x_8_axa.wav,sh2x_8_axa.wav,,TRUE,FALSE,,,,,,,,,,,,,,j,0.3071,space,0.6389,,,,,,,,0,66,66,97,1,,
5b61d0768de04c000171cf1b,2023-06-16_10h31.08.928,phx_ver10,2022.2.5,Win32,60.06727535,,,,,,,,,,,,88,testing_3,j2x,e,j2x_e,j2x_8_exe.wav,j2x_1_eje.wav,,FALSE,FALSE,,,,,,,,,,,,,,f,0.5156,space,0.8245,,,,,,,,0,67,67,87,1,,
5b61d0768de04c000171cf1b,2023-06-16_10h31.08.928,phx_ver10,2022.2.5,Win32,60.06727535,,,,,,,,,,,,55,testing_3,zh2j,ai,zh2j_ai,zh2j_1_aizhai.wav,zh2j_8_aijai.wav,,FALSE,FALSE,,,,,,,,,,,,,,f,0.4345,space,0.694,,,,,,,,0,68,68,54,1,,
5b61d0768de04c000171cf1b,2023-06-16_10h31.08.928,phx_ver10,2022.2.5,Win32,60.06727535,,,,,,,,,,,,36,testing_3,zh2sh,au,zh2sh_au,zh2sh_8_aushau.wav,zh2sh_1_auzhau.wav,,FALSE,FALSE,,,,,,,,,,,,,,f,0.5393,space,0.9064,,,,,,,,0,69,69,35,1,,
5b61d0768de04c000171cf1b,2023-06-16_10h31.08.928,phx_ver10,2022.2.5,Win32,60.06727535,,,,,,,,,,,,113,testing_3,sh2x,ei,sh2x_ei,sh2x_1_eishei.wav,sh2x_1_eishei.wav,,TRUE,FALSE,,,,,,,,,,,,,,f,0.3997,space,0.6832,,,,,,,,0,70,70,112,1,,
5b61d0768de04c000171cf1b,2023-06-16_10h31.08.928,phx_ver10,2022.2.5,Win32,60.06727535,,,,,,,,,,,,120,testing_3,sh2x,i,sh2x_i,sh2x_8_ixi.wav,sh2x_1_ishi.wav,,FALSE,FALSE,,,,,,,,,,,,,,j,0.9997,space,1.3881,,,,,,,,0,71,71,119,1,,
5b61d0768de04c000171cf1b,2023-06-16_10h31.08.928,phx_ver10,2022.2.5,Win32,60.06727535,,,,,,,,,,,,91,testing_3,j2x,ei,j2x_ei,j2x_1_eijei.wav,j2x_8_eixei.wav,,FALSE,FALSE,,,,,,,,,,,,,,j,0.7403,space,0.9809,,,,,,,,0,72,72,90,1,,
5b61d0768de04c000171cf1b,2023-06-16_10h31.08.928,phx_ver10,2022.2.5,Win32,60.06727535,,,,,,,,,,,,6,testing_1,zh2x,e,zh2x_e,zh2x_8_exe.wav,zh2x_8_exe_copy.wav,,TRUE,TRUE,,,,,,,,,,,,,,f,0.6218,space,0.9607,,,,,,,,0,73,73,5,1,,
5b61d0768de04c000171cf1b,2023-06-16_10h31.08.928,phx_ver10,2022.2.5,Win32,60.06727535,,,,,,,,,,,,61,testing_3,zh2j,e,zh2j_e,zh2j_1_ezhe.wav,zh2j_1_ezhe.wav,,TRUE,FALSE,,,,,,,,,,,,,,f,0.5515,space,0.9188,,,,,,,,0,74,74,60,1,,
5b61d0768de04c000171cf1b,2023-06-16_10h31.08.928,phx_ver10,2022.2.5,Win32,60.06727535,,,,,,,,,,,,63,testing_3,zh2j,e,zh2j_e,zh2j_1_ezhe.wav,zh2j_8_eje.wav,,FALSE,FALSE,,,,,,,,,,,,,,f,0.7509,space,1.0175,,,,,,,,0,75,75,62,1,,
5b61d0768de04c000171cf1b,2023-06-16_10h31.08.928,phx_ver10,2022.2.5,Win32,60.06727535,,,,,,,,,,,,16,testing_2,zh2x,ai,zh2x_ai,zh2x_8_aixai.wav,zh2x_1_aizhai.wav,,FALSE,FALSE,,,,,,,,,,,,,,j,0.4983,space,0.7958,,,,,,,,0,76,76,15,1,,
5b61d0768de04c000171cf1b,2023-06-16_10h31.08.928,phx_ver10,2022.2.5,Win32,60.06727535,,,,,,,,,,,,93,testing_3,j2x,i,j2x_i,j2x_1_iji.wav,j2x_1_iji.wav,,TRUE,FALSE,,,,,,,,,,,,,,f,1.5213,space,1.8491,,,,,,,,0,77,77,92,1,,
5b61d0768de04c000171cf1b,2023-06-16_10h31.08.928,phx_ver10,2022.2.5,Win32,60.06727535,,,,,,,,,,,,37,testing_3,zh2sh,e,zh2sh_e,zh2sh_1_ezhe.wav,zh2sh_1_ezhe.wav,,TRUE,FALSE,,,,,,,,,,,,,,f,0.3849,space,0.7794,,,,,,,,0,78,78,36,1,,
5b61d0768de04c000171cf1b,2023-06-16_10h31.08.928,phx_ver10,2022.2.5,Win32,60.06727535,,,,,,,,,,,,110,testing_3,sh2x,e,sh2x_e,sh2x_8_exe.wav,sh2x_8_exe.wav,,TRUE,FALSE,,,,,,,,,,,,,,f,1.3246,space,1.6545,,,,,,,,0,79,79,109,1,,
5b61d0768de04c000171cf1b,2023-06-16_10h31.08.928,phx_ver10,2022.2.5,Win32,60.06727535,,,,,,,,,,,,130,testing_3,sh2j,au,sh2j_au,sh2j_8_aujau.wav,sh2j_8_aujau.wav,,TRUE,FALSE,,,,,,,,,,,,,,f,0.365,space,0.6701,,,,,,,,0,80,80,129,1,,
5b61d0768de04c000171cf1b,2023-06-16_10h31.08.928,phx_ver10,2022.2.5,Win32,60.06727535,,,,,,,,,,,,132,testing_3,sh2j,au,sh2j_au,sh2j_8_aujau.wav,sh2j_1_aushau.wav,,FALSE,FALSE,,,,,,,,,,,,,,j,0.5152,space,0.781,,,,,,,,0,81,81,131,1,,
5b61d0768de04c000171cf1b,2023-06-16_10h31.08.928,phx_ver10,2022.2.5,Win32,60.06727535,,,,,,,,,,,,26,testing_3,zh2sh,a,zh2sh_a,zh2sh_8_asha.wav,zh2sh_8_asha.wav,,TRUE,FALSE,,,,,,,,,,,,,,f,0.3693,space,0.7354,,,,,,,,0,82,82,25,1,,
5b61d0768de04c000171cf1b,2023-06-16_10h31.08.928,phx_ver10,2022.2.5,Win32,60.06727535,,,,,,,,,,,,43,testing_3,zh2sh,ei,zh2sh_ei,zh2sh_1_eizhei.wav,zh2sh_8_eishei.wav,,FALSE,FALSE,,,,,,,,,,,,,,f,1.09,space,1.378,,,,,,,,0,83,83,42,1,,
5b61d0768de04c000171cf1b,2023-06-16_10h31.08.928,phx_ver10,2022.2.5,Win32,60.06727535,,,,,,,,,,,,144,testing_3,sh2j,i,sh2j_i,sh2j_8_iji.wav,sh2j_1_ishi.wav,,FALSE,FALSE,,,,,,,,,,,,,,j,0.3298,space,0.5917,,,,,,,,0,84,84,143,1,,
5b61d0768de04c000171cf1b,2023-06-16_10h31.08.928,phx_ver10,2022.2.5,Win32,60.06727535,,,,,,,,,,,,73,testing_3,j2x,a,j2x_a,j2x_1_aja.wav,j2x_1_aja.wav,,TRUE,FALSE,,,,,,,,,,,,,,f,0.8029,space,1.0843,,,,,,,,0,85,85,72,1,,
5b61d0768de04c000171cf1b,2023-06-16_10h31.08.928,phx_ver10,2022.2.5,Win32,60.06727535,,,,,,,,,,,,78,testing_3,j2x,ai,j2x_ai,j2x_8_aixai.wav,j2x_8_aixai.wav,,TRUE,FALSE,,,,,,,,,,,,,,f,0.3197,space,0.6174,,,,,,,,0,86,86,77,1,,
5b61d0768de04c000171cf1b,2023-06-16_10h31.08.928,phx_ver10,2022.2.5,Win32,60.06727535,,,,,,,,,,,,52,testing_3,zh2j,a,zh2j_a,zh2j_8_aja.wav,zh2j_1_azha.wav,,FALSE,FALSE,,,,,,,,,,,,,,f,0.3032,space,0.7397,,,,,,,,0,87,87,51,1,,
5b61d0768de04c000171cf1b,2023-06-16_10h31.08.928,phx_ver10,2022.2.5,Win32,60.06727535,,,,,,,,,,,,117,testing_3,sh2x,i,sh2x_i,sh2x_1_ishi.wav,sh2x_1_ishi.wav,,TRUE,FALSE,,,,,,,,,,,,,,f,0.2298,space,0.5096,,,,,,,,0,88,88,116,1,,
5b61d0768de04c000171cf1b,2023-06-16_10h31.08.928,phx_ver10,2022.2.5,Win32,60.06727535,,,,,,,,,,,,21,testing_2,zh2x,ei,zh2x_ei,zh2x_1_eizhei.wav,zh2x_1_eizhei.wav,,TRUE,FALSE,,,,,,,,,,,,,,f,0.3586,space,0.6557,,,,,,,,0,89,89,20,1,,
5b61d0768de04c000171cf1b,2023-06-16_10h31.08.928,phx_ver10,2022.2.5,Win32,60.06727535,,,,,,,,,,,,24,testing_2,zh2x,ei,zh2x_ei,zh2x_8_eixei.wav,zh2x_1_eizhei.wav,,FALSE,FALSE,,,,,,,,,,,,,,f,1.1881,space,1.5484,,,,,,,,0,90,90,23,1,,
5b61d0768de04c000171cf1b,2023-06-16_10h31.08.928,phx_ver10,2022.2.5,Win32,60.06727535,,,,,,,,,,,,39,testing_3,zh2sh,e,zh2sh_e,zh2sh_1_ezhe.wav,zh2sh_8_eshe.wav,,FALSE,FALSE,,,,,,,,,,,,,,f,0.5004,space,0.7495,,,,,,,,0,91,91,38,1,,
5b61d0768de04c000171cf1b,2023-06-16_10h31.08.928,phx_ver10,2022.2.5,Win32,60.06727535,,,,,,,,,,,,95,testing_3,j2x,i,j2x_i,j2x_1_iji.wav,j2x_8_ixi.wav,,FALSE,FALSE,,,,,,,,,,,,,,j,0.484,space,0.7036,,,,,,,,0,92,92,94,1,,
5b61d0768de04c000171cf1b,2023-06-16_10h31.08.928,phx_ver10,2022.2.5,Win32,60.06727535,,,,,,,,,,,,34,testing_3,zh2sh,au,zh2sh_au,zh2sh_8_aushau.wav,zh2sh_8_aushau.wav,,TRUE,FALSE,,,,,,,,,,,,,,f,0.3509,space,0.5845,,,,,,,,0,93,93,33,1,,
5b61d0768de04c000171cf1b,2023-06-16_10h31.08.928,phx_ver10,2022.2.5,Win32,60.06727535,,,,,,,,,,,,46,testing_3,zh2sh,i,zh2sh_i,zh2sh_8_ishi.wav,zh2sh_8_ishi.wav,,TRUE,FALSE,,,,,,,,,,,,,,f,0.2696,space,0.5679,,,,,,,,0,94,94,45,1,,
5b61d0768de04c000171cf1b,2023-06-16_10h31.08.928,phx_ver10,2022.2.5,Win32,60.06727535,,,,,,,,,,,,103,testing_3,sh2x,ai,sh2x_ai,sh2x_1_aishai.wav,sh2x_8_aixai.wav,,FALSE,FALSE,,,,,,,,,,,,,,j,0.4689,space,0.7342,,,,,,,,0,95,95,102,1,,
5b61d0768de04c000171cf1b,2023-06-16_10h31.08.928,phx_ver10,2022.2.5,Win32,60.06727535,,,,,,,,,,,,31,testing_3,zh2sh,ai,zh2sh_ai,zh2sh_1_aizhai.wav,zh2sh_8_aishai.wav,,FALSE,FALSE,,,,,,,,,,,,,,f,0.3397,space,0.6535,,,,,,,,0,96,96,30,1,,
5b61d0768de04c000171cf1b,2023-06-16_10h31.08.928,phx_ver10,2022.2.5,Win32,60.06727535,,,,,,,,,,,,41,testing_3,zh2sh,ei,zh2sh_ei,zh2sh_1_eizhei.wav,zh2sh_1_eizhei.wav,,TRUE,FALSE,,,,,,,,,,,,,,f,0.8141,space,1.1338,,,,,,,,0,97,97,40,1,,
5b61d0768de04c000171cf1b,2023-06-16_10h31.08.928,phx_ver10,2022.2.5,Win32,60.06727535,,,,,,,,,,,,25,testing_3,zh2sh,a,zh2sh_a,zh2sh_1_azha.wav,zh2sh_1_azha.wav,,TRUE,FALSE,,,,,,,,,,,,,,f,0.3494,space,0.6258,,,,,,,,0,98,98,24,1,,
5b61d0768de04c000171cf1b,2023-06-16_10h31.08.928,phx_ver10,2022.2.5,Win32,60.06727535,,,,,,,,,,,,128,testing_3,sh2j,ai,sh2j_ai,sh2j_8_aijai.wav,sh2j_1_aishai.wav,,FALSE,FALSE,,,,,,,,,,,,,,j,0.7749,space,1.0358,,,,,,,,0,99,99,127,1,,
5b61d0768de04c000171cf1b,2023-06-16_10h31.08.928,phx_ver10,2022.2.5,Win32,60.06727535,,,,,,,,,,,,90,testing_3,j2x,ei,j2x_ei,j2x_8_eixei.wav,j2x_8_eixei.wav,,TRUE,FALSE,,,,,,,,,,,,,,f,0.3363,space,0.6352,,,,,,,,0,100,100,89,1,,
5b61d0768de04c000171cf1b,2023-06-16_10h31.08.928,phx_ver10,2022.2.5,Win32,60.06727535,,,,,,,,,,,,105,testing_3,sh2x,au,sh2x_au,sh2x_1_aushau.wav,sh2x_1_aushau.wav,,TRUE,FALSE,,,,,,,,,,,,,,f,0.1978,space,0.591,,,,,,,,0,101,101,104,1,,
5b61d0768de04c000171cf1b,2023-06-16_10h31.08.928,phx_ver10,2022.2.5,Win32,60.06727535,,,,,,,,,,,,60,testing_3,zh2j,au,zh2j_au,zh2j_8_aujau.wav,zh2j_1_auzhau.wav,,FALSE,FALSE,,,,,,,,,,,,,,f,0.3563,space,0.6742,,,,,,,,0,102,102,59,1,,
5b61d0768de04c000171cf1b,2023-06-16_10h31.08.928,phx_ver10,2022.2.5,Win32,60.06727535,,,,,,,,,,,,140,testing_3,sh2j,ei,sh2j_ei,sh2j_8_eijei.wav,sh2j_1_eishei.wav,,FALSE,FALSE,,,,,,,,,,,,,,f,0.4022,space,0.7661,,,,,,,,0,103,103,139,1,,
5b61d0768de04c000171cf1b,2023-06-16_10h31.08.928,phx_ver10,2022.2.5,Win32,60.06727535,,,,,,,,,,,,2,testing_1,zh2x,a,zh2x_a,zh2x_8_axa.wav,zh2x_8_axa_copy.wav,,TRUE,TRUE,,,,,,,,,,,,,,f,0.1155,space,0.4024,,,,,,,,0,104,104,1,1,,
5b61d0768de04c000171cf1b,2023-06-16_10h31.08.928,phx_ver10,2022.2.5,Win32,60.06727535,,,,,,,,,,,,33,testing_3,zh2sh,au,zh2sh_au,zh2sh_1_auzhau.wav,zh2sh_1_auzhau.wav,,TRUE,FALSE,,,,,,,,,,,,,,f,0.1983,space,0.4878,,,,,,,,0,105,105,32,1,,
5b61d0768de04c000171cf1b,2023-06-16_10h31.08.928,phx_ver10,2022.2.5,Win32,60.06727535,,,,,,,,,,,,104,testing_3,sh2x,ai,sh2x_ai,sh2x_8_aixai.wav,sh2x_1_aishai.wav,,FALSE,FALSE,,,,,,,,,,,,,,j,0.3159,space,0.5621,,,,,,,,0,106,106,103,1,,
5b61d0768de04c000171cf1b,2023-06-16_10h31.08.928,phx_ver10,2022.2.5,Win32,60.06727535,,,,,,,,,,,,72,testing_3,zh2j,i,zh2j_i,zh2j_8_iji.wav,zh2j_1_izhi.wav,,FALSE,FALSE,,,,,,,,,,,,,,f,0.1056,space,0.4103,,,,,,,,0,107,107,71,1,,
5b61d0768de04c000171cf1b,2023-06-16_10h31.08.928,phx_ver10,2022.2.5,Win32,60.06727535,,,,,,,,,,,,107,testing_3,sh2x,au,sh2x_au,sh2x_1_aushau.wav,sh2x_8_auxau.wav,,FALSE,FALSE,,,,,,,,,,,,,,f,0.1421,space,0.4205,,,,,,,,0,108,108,106,1,,
5b61d0768de04c000171cf1b,2023-06-16_10h31.08.928,phx_ver10,2022.2.5,Win32,60.06727535,,,,,,,,,,,,65,testing_3,zh2j,ei,zh2j_ei,zh2j_1_eizhei.wav,zh2j_1_eizhei.wav,,TRUE,FALSE,,,,,,,,,,,,,,f,0.5691,space,0.8316,,,,,,,,0,109,109,64,1,,
5b61d0768de04c000171cf1b,2023-06-16_10h31.08.928,phx_ver10,2022.2.5,Win32,60.06727535,,,,,,,,,,,,102,testing_3,sh2x,ai,sh2x_ai,sh2x_8_aixai.wav,sh2x_8_aixai.wav,,TRUE,FALSE,,,,,,,,,,,,,,f,0.1646,space,0.4151,,,,,,,,0,110,110,101,1,,
5b61d0768de04c000171cf1b,2023-06-16_10h31.08.928,phx_ver10,2022.2.5,Win32,60.06727535,,,,,,,,,,,,49,testing_3,zh2j,a,zh2j_a,zh2j_1_azha.wav,zh2j_1_azha.wav,,TRUE,FALSE,,,,,,,,,,,,,,f,0.1458,space,0.4188,,,,,,,,0,111,111,48,1,,
5b61d0768de04c000171cf1b,2023-06-16_10h31.08.928,phx_ver10,2022.2.5,Win32,60.06727535,,,,,,,,,,,,81,testing_3,j2x,au,j2x_au,j2x_1_aujau.wav,j2x_1_aujau.wav,,TRUE,FALSE,,,,,,,,,,,,,,f,0.2995,space,0.6189,,,,,,,,0,112,112,80,1,,
5b61d0768de04c000171cf1b,2023-06-16_10h31.08.928,phx_ver10,2022.2.5,Win32,60.06727535,,,,,,,,,,,,53,testing_3,zh2j,ai,zh2j_ai,zh2j_1_aizhai.wav,zh2j_1_aizhai.wav,,TRUE,FALSE,,,,,,,,,,,,,,f,0.4731,space,0.7584,,,,,,,,0,113,113,52,1,,
5b61d0768de04c000171cf1b,2023-06-16_10h31.08.928,phx_ver10,2022.2.5,Win32,60.06727535,,,,,,,,,,,,68,testing_3,zh2j,ei,zh2j_ei,zh2j_8_eijei.wav,zh2j_1_eizhei.wav,,FALSE,FALSE,,,,,,,,,,,,,,f,0.3446,space,0.6363,,,,,,,,0,114,114,67,1,,
5b61d0768de04c000171cf1b,2023-06-16_10h31.08.928,phx_ver10,2022.2.5,Win32,60.06727535,,,,,,,,,,,,54,testing_3,zh2j,ai,zh2j_ai,zh2j_8_aijai.wav,zh2j_8_aijai.wav,,TRUE,FALSE,,,,,,,,,,,,,,f,0.1244,space,0.5042,,,,,,,,0,115,115,53,1,,
5b61d0768de04c000171cf1b,2023-06-16_10h31.08.928,phx_ver10,2022.2.5,Win32,60.06727535,,,,,,,,,,,,44,testing_3,zh2sh,ei,zh2sh_ei,zh2sh_8_eishei.wav,zh2sh_1_eizhei.wav,,FALSE,FALSE,,,,,,,,,,,,,,f,0.5035,space,0.7554,,,,,,,,0,116,116,43,1,,
5b61d0768de04c000171cf1b,2023-06-16_10h31.08.928,phx_ver10,2022.2.5,Win32,60.06727535,,,,,,,,,,,,51,testing_3,zh2j,a,zh2j_a,zh2j_1_azha.wav,zh2j_8_aja.wav,,FALSE,FALSE,,,,,,,,,,,,,,f,0.0029,space,0.3379,,,,,,,,0,117,117,50,1,,
5b61d0768de04c000171cf1b,2023-06-16_10h31.08.928,phx_ver10,2022.2.5,Win32,60.06727535,,,,,,,,,,,,80,testing_3,j2x,ai,j2x_ai,j2x_8_aixai.wav,j2x_1_aijai.wav,,FALSE,FALSE,,,,,,,,,,,,,,f,0.2723,space,0.5841,,,,,,,,0,118,118,79,1,,
5b61d0768de04c000171cf1b,2023-06-16_10h31.08.928,phx_ver10,2022.2.5,Win32,60.06727535,,,,,,,,,,,,123,testing_3,sh2j,a,sh2j_a,sh2j_1_asha.wav,sh2j_8_aja.wav,,FALSE,FALSE,,,,,,,,,,,,,,j,0.5442,space,0.8115,,,,,,,,0,119,119,122,1,,
5b61d0768de04c000171cf1b,2023-06-16_10h31.08.928,phx_ver10,2022.2.5,Win32,60.06727535,,,,,,,,,,,,129,testing_3,sh2j,au,sh2j_au,sh2j_1_aushau.wav,sh2j_1_aushau.wav,,TRUE,FALSE,,,,,,,,,,,,,,f,0.0513,space,0.3529,,,,,,,,0,120,120,128,1,,
5b61d0768de04c000171cf1b,2023-06-16_10h31.08.928,phx_ver10,2022.2.5,Win32,60.06727535,,,,,,,,,,,,70,testing_3,zh2j,i,zh2j_i,zh2j_8_iji.wav,zh2j_8_iji.wav,,TRUE,FALSE,,,,,,,,,,,,,,f,1.2646,space,1.6056,,,,,,,,0,121,121,69,1,,
5b61d0768de04c000171cf1b,2023-06-16_10h31.08.928,phx_ver10,2022.2.5,Win32,60.06727535,,,,,,,,,,,,23,testing_2,zh2x,ei,zh2x_ei,zh2x_1_eizhei.wav,zh2x_8_eixei.wav,,FALSE,FALSE,,,,,,,,,,,,,,j,0.4581,space,0.7148,,,,,,,,0,122,122,22,1,,
5b61d0768de04c000171cf1b,2023-06-16_10h31.08.928,phx_ver10,2022.2.5,Win32,60.06727535,,,,,,,,,,,,83,testing_3,j2x,au,j2x_au,j2x_1_aujau.wav,j2x_8_auxau.wav,,FALSE,FALSE,,,,,,,,,,,,,,j,0.2611,space,0.5729,,,,,,,,0,123,123,82,1,,
5b61d0768de04c000171cf1b,2023-06-16_10h31.08.928,phx_ver10,2022.2.5,Win32,60.06727535,,,,,,,,,,,,85,testing_3,j2x,e,j2x_e,j2x_1_eje.wav,j2x_1_eje.wav,,TRUE,FALSE,,,,,,,,,,,,,,f,0.0803,space,0.3276,,,,,,,,0,124,124,84,1,,
5b61d0768de04c000171cf1b,2023-06-16_10h31.08.928,phx_ver10,2022.2.5,Win32,60.06727535,,,,,,,,,,,,67,testing_3,zh2j,ei,zh2j_ei,zh2j_1_eizhei.wav,zh2j_8_eijei.wav,,FALSE,FALSE,,,,,,,,,,,,,,f,0.6372,space,0.9208,,,,,,,,0,125,125,66,1,,
5b61d0768de04c000171cf1b,2023-06-16_10h31.08.928,phx_ver10,2022.2.5,Win32,60.06727535,,,,,,,,,,,,17,testing_2,zh2x,au,zh2x_au,zh2x_1_auzhau.wav,zh2x_1_auzhau.wav,,TRUE,FALSE,,,,,,,,,,,,,,f,0.3703,space,0.6865,,,,,,,,0,126,126,16,1,,
5b61d0768de04c000171cf1b,2023-06-16_10h31.08.928,phx_ver10,2022.2.5,Win32,60.06727535,,,,,,,,,,,,42,testing_3,zh2sh,ei,zh2sh_ei,zh2sh_8_eishei.wav,zh2sh_8_eishei.wav,,TRUE,FALSE,,,,,,,,,,,,,,f,0.4196,space,0.7367,,,,,,,,0,127,127,41,1,,
5b61d0768de04c000171cf1b,2023-06-16_10h31.08.928,phx_ver10,2022.2.5,Win32,60.06727535,,,,,,,,,,,,82,testing_3,j2x,au,j2x_au,j2x_8_auxau.wav,j2x_8_auxau.wav,,TRUE,FALSE,,,,,,,,,,,,,,f,0.4012,space,0.7764,,,,,,,,0,128,128,81,1,,
5b61d0768de04c000171cf1b,2023-06-16_10h31.08.928,phx_ver10,2022.2.5,Win32,60.06727535,,,,,,,,,,,,96,testing_3,j2x,i,j2x_i,j2x_8_ixi.wav,j2x_1_iji.wav,,FALSE,FALSE,,,,,,,,,,,,,,f,0.3682,space,0.6817,,,,,,,,0,129,129,95,1,,
5b61d0768de04c000171cf1b,2023-06-16_10h31.08.928,phx_ver10,2022.2.5,Win32,60.06727535,,,,,,,,,,,,22,testing_2,zh2x,ei,zh2x_ei,zh2x_8_eixei.wav,zh2x_8_eixei.wav,,TRUE,FALSE,,,,,,,,,,,,,,f,0.4482,space,1.2725,,,,,,,,0,130,130,21,1,,
5b61d0768de04c000171cf1b,2023-06-16_10h31.08.928,phx_ver10,2022.2.5,Win32,60.06727535,,,,,,,,,,,,79,testing_3,j2x,ai,j2x_ai,j2x_1_aijai.wav,j2x_8_aixai.wav,,FALSE,FALSE,,,,,,,,,,,,,,f,0.6985,space,0.9618,,,,,,,,0,131,131,78,1,,
5b61d0768de04c000171cf1b,2023-06-16_10h31.08.928,phx_ver10,2022.2.5,Win32,60.06727535,,,,,,,,,,,,20,testing_2,zh2x,au,zh2x_au,zh2x_8_auxau.wav,zh2x_1_auzhau.wav,,FALSE,FALSE,,,,,,,,,,,,,,f,0.0847,space,0.3352,,,,,,,,0,132,132,19,1,,
5b61d0768de04c000171cf1b,2023-06-16_10h31.08.928,phx_ver10,2022.2.5,Win32,60.06727535,,,,,,,,,,,,115,testing_3,sh2x,ei,sh2x_ei,sh2x_1_eishei.wav,sh2x_8_eixei.wav,,FALSE,FALSE,,,,,,,,,,,,,,f,0.6936,space,1.0237,,,,,,,,0,133,133,114,1,,
5b61d0768de04c000171cf1b,2023-06-16_10h31.08.928,phx_ver10,2022.2.5,Win32,60.06727535,,,,,,,,,,,,5,testing_1,zh2x,e,zh2x_e,zh2x_1_ezhe.wav,zh2x_1_ezhe_copy.wav,,TRUE,TRUE,,,,,,,,,,,,,,f,0.053,space,0.3696,,,,,,,,0,134,134,4,1,,
5b61d0768de04c000171cf1b,2023-06-16_10h31.08.928,phx_ver10,2022.2.5,Win32,60.06727535,,,,,,,,,,,,57,testing_3,zh2j,au,zh2j_au,zh2j_1_auzhau.wav,zh2j_1_auzhau.wav,,TRUE,FALSE,,,,,,,,,,,,,,f,0.0682,space,0.3699,,,,,,,,0,135,135,56,1,,
5b61d0768de04c000171cf1b,2023-06-16_10h31.08.928,phx_ver10,2022.2.5,Win32,60.06727535,,,,,,,,,,,,87,testing_3,j2x,e,j2x_e,j2x_1_eje.wav,j2x_8_exe.wav,,FALSE,FALSE,,,,,,,,,,,,,,j,0.2182,space,0.5012,,,,,,,,0,136,136,86,1,,
5b61d0768de04c000171cf1b,2023-06-16_10h31.08.928,phx_ver10,2022.2.5,Win32,60.06727535,,,,,,,,,,,,58,testing_3,zh2j,au,zh2j_au,zh2j_8_aujau.wav,zh2j_8_aujau.wav,,TRUE,FALSE,,,,,,,,,,,,,,f,1.0363,space,1.3527,,,,,,,,0,137,137,57,1,,
5b61d0768de04c000171cf1b,2023-06-16_10h31.08.928,phx_ver10,2022.2.5,Win32,60.06727535,,,,,,,,,,,,48,testing_3,zh2sh,i,zh2sh_i,zh2sh_8_ishi.wav,zh2sh_1_izhi.wav,,FALSE,FALSE,,,,,,,,,,,,,,j,0.7473,space,1.0273,,,,,,,,0,138,138,47,1,,
5b61d0768de04c000171cf1b,2023-06-16_10h31.08.928,phx_ver10,2022.2.5,Win32,60.06727535,,,,,,,,,,,,45,testing_3,zh2sh,i,zh2sh_i,zh2sh_1_izhi.wav,zh2sh_1_izhi.wav,,TRUE,FALSE,,,,,,,,,,,,,,f,0.0533,space,0.3362,,,,,,,,0,139,139,44,1,,
5b61d0768de04c000171cf1b,2023-06-16_10h31.08.928,phx_ver10,2022.2.5,Win32,60.06727535,,,,,,,,,,,,138,testing_3,sh2j,ei,sh2j_ei,sh2j_8_eijei.wav,sh2j_8_eijei.wav,,TRUE,FALSE,,,,,,,,,,,,,,f,0.3296,space,0.6164,,,,,,,,0,140,140,137,1,,
5b61d0768de04c000171cf1b,2023-06-16_10h31.08.928,phx_ver10,2022.2.5,Win32,60.06727535,,,,,,,,,,,,101,testing_3,sh2x,ai,sh2x_ai,sh2x_1_aishai.wav,sh2x_1_aishai.wav,,TRUE,FALSE,,,,,,,,,,,,,,f,0.0025,space,0.3437,,,,,,,,0,141,141,100,1,,
5b61d0768de04c000171cf1b,2023-06-16_10h31.08.928,phx_ver10,2022.2.5,Win32,60.06727535,,,,,,,,,,,,92,testing_3,j2x,ei,j2x_ei,j2x_8_eixei.wav,j2x_1_eijei.wav,,FALSE,FALSE,,,,,,,,,,,,,,f,0.1191,space,0.3922,,,,,,,,0,142,142,91,1,,
5b61d0768de04c000171cf1b,2023-06-16_10h31.08.928,phx_ver10,2022.2.5,Win32,60.06727535,,,,,,,,,,,,143,testing_3,sh2j,i,sh2j_i,sh2j_1_ishi.wav,sh2j_8_iji.wav,,FALSE,FALSE,,,,,,,,,,,,,,j,0.1769,space,0.4345,,,,,,,,0,143,143,142,1,,
5b61d0768de04c000171cf1b,2023-06-16_10h31.08.928,phx_ver10,2022.2.5,Win32,60.06727535,,,,,,,,,,,,,,,,,,,,,,,,,,,,,,,,,,,,,,,,,,,,,,,,,,,space,2.6729
