participant,date,expName,psychopyVersion,OS,frameRate,space_1.keys,space_1.rt,space_2.keys,space_2.rt,space_train.keys,space_train.rt,training.thisRepN,training.thisTrialN,training.thisN,training.thisIndex,training.ran,token_id,task,continuum,vowel,series,sound_1,sound_2,img,same,trained,FJ_attn.keys,FJ_attn.rt,space_attn.keys,space_attn.rt,if_attn_test.thisRepN,if_attn_test.thisTrialN,if_attn_test.thisN,if_attn_test.thisIndex,if_attn_test.ran,space_trans_1.keys,space_trans_1.rt,space_trans_11.keys,space_trans_11.rt,FJ_test.keys,FJ_test.rt,space_test.keys,space_test.rt,testing_pre.thisRepN,testing_pre.thisTrialN,testing_pre.thisN,testing_pre.thisIndex,testing_pre.ran,space_trans_2.keys,space_trans_2.rt,testing_all.thisRepN,testing_all.thisTrialN,testing_all.thisN,testing_all.thisIndex,testing_all.ran,space_ending.keys,space_ending.rt
5b653f0e3662a8000158b83b,2023-06-16_10h03.26.821,phx_ver10,2022.2.5,Win32,59.94485074,,,,,,,,,,,,,,,,,,,,,,,,,,,,,,,,,,,,,,,,,,,,,,,,,,,,
5b653f0e3662a8000158b83b,2023-06-16_10h03.26.821,phx_ver10,2022.2.5,Win32,59.94485074,space,3.9398,,,,,,,,,,,,,,,,,,,,,,,,,,,,,,,,,,,,,,,,,,,,,,,,,,
5b653f0e3662a8000158b83b,2023-06-16_10h03.26.821,phx_ver10,2022.2.5,Win32,59.94485074,,,space,0.9862,,,,,,,,,,,,,,,,,,,,,,,,,,,,,,,,,,,,,,,,,,,,,,,,
5b653f0e3662a8000158b83b,2023-06-16_10h03.26.821,phx_ver10,2022.2.5,Win32,59.94485074,,,,,space,1.0054,0,0,0,37,1,38,training,zh2x,i,zh2x_i,zh2x_3_izhi.wav,,izhi.jpg,,,,,,,,,,,,,,,,,,,,,,,,,,,,,,,,,
5b653f0e3662a8000158b83b,2023-06-16_10h03.26.821,phx_ver10,2022.2.5,Win32,59.94485074,,,,,space,1.0401,0,1,1,25,1,26,training,zh2x,e,zh2x_e,zh2x_6_exe.wav,,exe.jpg,,,,,,,,,,,,,,,,,,,,,,,,,,,,,,,,,
5b653f0e3662a8000158b83b,2023-06-16_10h03.26.821,phx_ver10,2022.2.5,Win32,59.94485074,,,,,space,0.4394,0,2,2,28,1,29,training,zh2x,e,zh2x_e,zh2x_7_exe.wav,,exe.jpg,,,,,,,,,,,,,,,,,,,,,,,,,,,,,,,,,
5b653f0e3662a8000158b83b,2023-06-16_10h03.26.821,phx_ver10,2022.2.5,Win32,59.94485074,,,,,space,0.0678,0,3,3,36,1,37,training,zh2x,i,zh2x_i,zh2x_2_izhi.wav,,izhi.jpg,,,,,,,,,,,,,,,,,,,,,,,,,,,,,,,,,
5b653f0e3662a8000158b83b,2023-06-16_10h03.26.821,phx_ver10,2022.2.5,Win32,59.94485074,,,,,space,0.5903,0,4,4,2,1,3,training,zh2x,a,zh2x_a,zh2x_2_azha.wav,,azha.jpg,,,,,,,,,,,,,,,,,,,,,,,,,,,,,,,,,
5b653f0e3662a8000158b83b,2023-06-16_10h03.26.821,phx_ver10,2022.2.5,Win32,59.94485074,,,,,space,0.3172,0,5,5,31,1,32,training,zh2x,e,zh2x_e,zh2x_8_exe.wav,,exe.jpg,,,,,,,,,,,,,,,,,,,,,,,,,,,,,,,,,
5b653f0e3662a8000158b83b,2023-06-16_10h03.26.821,phx_ver10,2022.2.5,Win32,59.94485074,,,,,,,,,,,,,attn_test,,,,zh2x_1_izhi.wav,zh2x_1_azha.wav,azha.jpg,RIGHT,,j,1.6656,space,2.2988,0,0,0,0,1,,,,,,,,,,,,,,,,,,,,,,
5b653f0e3662a8000158b83b,2023-06-16_10h03.26.821,phx_ver10,2022.2.5,Win32,59.94485074,,,,,space,0.7758,0,6,6,7,1,8,training,zh2x,a,zh2x_a,zh2x_4_azha.wav,,azha.jpg,,,,,,,,,,,,,,,,,,,,,,,,,,,,,,,,,
5b653f0e3662a8000158b83b,2023-06-16_10h03.26.821,phx_ver10,2022.2.5,Win32,59.94485074,,,,,space,0.149,0,7,7,34,1,35,training,zh2x,i,zh2x_i,zh2x_2_izhi.wav,,izhi.jpg,,,,,,,,,,,,,,,,,,,,,,,,,,,,,,,,,
5b653f0e3662a8000158b83b,2023-06-16_10h03.26.821,phx_ver10,2022.2.5,Win32,59.94485074,,,,,space,0.5288,0,8,8,22,1,23,training,zh2x,e,zh2x_e,zh2x_3_ezhe.wav,,ezhe.jpg,,,,,,,,,,,,,,,,,,,,,,,,,,,,,,,,,
5b653f0e3662a8000158b83b,2023-06-16_10h03.26.821,phx_ver10,2022.2.5,Win32,59.94485074,,,,,space,0.1854,0,9,9,3,1,4,training,zh2x,a,zh2x_a,zh2x_2_azha.wav,,azha.jpg,,,,,,,,,,,,,,,,,,,,,,,,,,,,,,,,,
5b653f0e3662a8000158b83b,2023-06-16_10h03.26.821,phx_ver10,2022.2.5,Win32,59.94485074,,,,,space,0.2957,0,10,10,45,1,46,training,zh2x,i,zh2x_i,zh2x_7_ixi.wav,,ixi.jpg,,,,,,,,,,,,,,,,,,,,,,,,,,,,,,,,,
5b653f0e3662a8000158b83b,2023-06-16_10h03.26.821,phx_ver10,2022.2.5,Win32,59.94485074,,,,,space,0.2833,0,11,11,1,1,2,training,zh2x,a,zh2x_a,zh2x_2_azha.wav,,azha.jpg,,,,,,,,,,,,,,,,,,,,,,,,,,,,,,,,,
5b653f0e3662a8000158b83b,2023-06-16_10h03.26.821,phx_ver10,2022.2.5,Win32,59.94485074,,,,,,,,,,,,,attn_test,,,,zh2x_1_izhi.wav,zh2x_1_ezhe.wav,izhi.jpg,LEFT,,f,0.8637,space,1.1355,0,0,0,0,1,,,,,,,,,,,,,,,,,,,,,,
5b653f0e3662a8000158b83b,2023-06-16_10h03.26.821,phx_ver10,2022.2.5,Win32,59.94485074,,,,,space,0.7235,0,12,12,5,1,6,training,zh2x,a,zh2x_a,zh2x_3_azha.wav,,azha.jpg,,,,,,,,,,,,,,,,,,,,,,,,,,,,,,,,,
5b653f0e3662a8000158b83b,2023-06-16_10h03.26.821,phx_ver10,2022.2.5,Win32,59.94485074,,,,,space,0.7197,0,13,13,15,1,16,training,zh2x,a,zh2x_a,zh2x_8_axa.wav,,axa.jpg,,,,,,,,,,,,,,,,,,,,,,,,,,,,,,,,,
5b653f0e3662a8000158b83b,2023-06-16_10h03.26.821,phx_ver10,2022.2.5,Win32,59.94485074,,,,,space,0.2201,0,14,14,40,1,41,training,zh2x,i,zh2x_i,zh2x_5_ixi.wav,,ixi.jpg,,,,,,,,,,,,,,,,,,,,,,,,,,,,,,,,,
5b653f0e3662a8000158b83b,2023-06-16_10h03.26.821,phx_ver10,2022.2.5,Win32,59.94485074,,,,,space,0.3423,0,15,15,14,1,15,training,zh2x,a,zh2x_a,zh2x_7_axa.wav,,axa.jpg,,,,,,,,,,,,,,,,,,,,,,,,,,,,,,,,,
5b653f0e3662a8000158b83b,2023-06-16_10h03.26.821,phx_ver10,2022.2.5,Win32,59.94485074,,,,,space,0.1371,0,16,16,27,1,28,training,zh2x,e,zh2x_e,zh2x_7_exe.wav,,exe.jpg,,,,,,,,,,,,,,,,,,,,,,,,,,,,,,,,,
5b653f0e3662a8000158b83b,2023-06-16_10h03.26.821,phx_ver10,2022.2.5,Win32,59.94485074,,,,,space,0.4172,0,17,17,42,1,43,training,zh2x,i,zh2x_i,zh2x_6_ixi.wav,,ixi.jpg,,,,,,,,,,,,,,,,,,,,,,,,,,,,,,,,,
5b653f0e3662a8000158b83b,2023-06-16_10h03.26.821,phx_ver10,2022.2.5,Win32,59.94485074,,,,,,,,,,,,,attn_test,,,,zh2x_8_exe.wav,zh2x_8_axa.wav,exe.jpg,LEFT,,f,0.5003,space,0.9998,0,0,0,0,1,,,,,,,,,,,,,,,,,,,,,,
5b653f0e3662a8000158b83b,2023-06-16_10h03.26.821,phx_ver10,2022.2.5,Win32,59.94485074,,,,,space,0.5173,0,18,18,11,1,12,training,zh2x,a,zh2x_a,zh2x_7_axa.wav,,axa.jpg,,,,,,,,,,,,,,,,,,,,,,,,,,,,,,,,,
5b653f0e3662a8000158b83b,2023-06-16_10h03.26.821,phx_ver10,2022.2.5,Win32,59.94485074,,,,,space,0.3213,0,19,19,6,1,7,training,zh2x,a,zh2x_a,zh2x_3_azha.wav,,azha.jpg,,,,,,,,,,,,,,,,,,,,,,,,,,,,,,,,,
5b653f0e3662a8000158b83b,2023-06-16_10h03.26.821,phx_ver10,2022.2.5,Win32,59.94485074,,,,,space,0.5824,0,20,20,43,1,44,training,zh2x,i,zh2x_i,zh2x_7_ixi.wav,,ixi.jpg,,,,,,,,,,,,,,,,,,,,,,,,,,,,,,,,,
5b653f0e3662a8000158b83b,2023-06-16_10h03.26.821,phx_ver10,2022.2.5,Win32,59.94485074,,,,,space,0.118,0,21,21,33,1,34,training,zh2x,i,zh2x_i,zh2x_2_izhi.wav,,izhi.jpg,,,,,,,,,,,,,,,,,,,,,,,,,,,,,,,,,
5b653f0e3662a8000158b83b,2023-06-16_10h03.26.821,phx_ver10,2022.2.5,Win32,59.94485074,,,,,space,0.4932,0,22,22,44,1,45,training,zh2x,i,zh2x_i,zh2x_7_ixi.wav,,ixi.jpg,,,,,,,,,,,,,,,,,,,,,,,,,,,,,,,,,
5b653f0e3662a8000158b83b,2023-06-16_10h03.26.821,phx_ver10,2022.2.5,Win32,59.94485074,,,,,space,0.2277,0,23,23,30,1,31,training,zh2x,e,zh2x_e,zh2x_7_exe.wav,,exe.jpg,,,,,,,,,,,,,,,,,,,,,,,,,,,,,,,,,
5b653f0e3662a8000158b83b,2023-06-16_10h03.26.821,phx_ver10,2022.2.5,Win32,59.94485074,,,,,,,,,,,,,attn_test,,,,zh2x_1_izhi.wav,zh2x_8_axa.wav,izhi.jpg,LEFT,,f,0.0199,space,0.6001,0,0,0,0,1,,,,,,,,,,,,,,,,,,,,,,
5b653f0e3662a8000158b83b,2023-06-16_10h03.26.821,phx_ver10,2022.2.5,Win32,59.94485074,,,,,space,0.3563,0,24,24,41,1,42,training,zh2x,i,zh2x_i,zh2x_6_ixi.wav,,ixi.jpg,,,,,,,,,,,,,,,,,,,,,,,,,,,,,,,,,
5b653f0e3662a8000158b83b,2023-06-16_10h03.26.821,phx_ver10,2022.2.5,Win32,59.94485074,,,,,space,0.417,0,25,25,16,1,17,training,zh2x,e,zh2x_e,zh2x_1_ezhe.wav,,ezhe.jpg,,,,,,,,,,,,,,,,,,,,,,,,,,,,,,,,,
5b653f0e3662a8000158b83b,2023-06-16_10h03.26.821,phx_ver10,2022.2.5,Win32,59.94485074,,,,,space,0.4568,0,26,26,9,1,10,training,zh2x,a,zh2x_a,zh2x_6_axa.wav,,axa.jpg,,,,,,,,,,,,,,,,,,,,,,,,,,,,,,,,,
5b653f0e3662a8000158b83b,2023-06-16_10h03.26.821,phx_ver10,2022.2.5,Win32,59.94485074,,,,,space,0.3757,0,27,27,35,1,36,training,zh2x,i,zh2x_i,zh2x_2_izhi.wav,,izhi.jpg,,,,,,,,,,,,,,,,,,,,,,,,,,,,,,,,,
5b653f0e3662a8000158b83b,2023-06-16_10h03.26.821,phx_ver10,2022.2.5,Win32,59.94485074,,,,,space,0.183,0,28,28,29,1,30,training,zh2x,e,zh2x_e,zh2x_7_exe.wav,,exe.jpg,,,,,,,,,,,,,,,,,,,,,,,,,,,,,,,,,
5b653f0e3662a8000158b83b,2023-06-16_10h03.26.821,phx_ver10,2022.2.5,Win32,59.94485074,,,,,space,0.0539,0,29,29,38,1,39,training,zh2x,i,zh2x_i,zh2x_3_izhi.wav,,izhi.jpg,,,,,,,,,,,,,,,,,,,,,,,,,,,,,,,,,
5b653f0e3662a8000158b83b,2023-06-16_10h03.26.821,phx_ver10,2022.2.5,Win32,59.94485074,,,,,,,,,,,,,attn_test,,,,zh2x_1_azha.wav,zh2x_1_izhi.wav,izhi.jpg,RIGHT,,j,0.6445,space,0.9805,0,0,0,0,1,,,,,,,,,,,,,,,,,,,,,,
5b653f0e3662a8000158b83b,2023-06-16_10h03.26.821,phx_ver10,2022.2.5,Win32,59.94485074,,,,,space,0.246,0,30,30,18,1,19,training,zh2x,e,zh2x_e,zh2x_2_ezhe.wav,,ezhe.jpg,,,,,,,,,,,,,,,,,,,,,,,,,,,,,,,,,
5b653f0e3662a8000158b83b,2023-06-16_10h03.26.821,phx_ver10,2022.2.5,Win32,59.94485074,,,,,space,0.5567,0,31,31,47,1,48,training,zh2x,i,zh2x_i,zh2x_8_ixi.wav,,ixi.jpg,,,,,,,,,,,,,,,,,,,,,,,,,,,,,,,,,
5b653f0e3662a8000158b83b,2023-06-16_10h03.26.821,phx_ver10,2022.2.5,Win32,59.94485074,,,,,space,0.2647,0,32,32,0,1,1,training,zh2x,a,zh2x_a,zh2x_1_azha.wav,,azha.jpg,,,,,,,,,,,,,,,,,,,,,,,,,,,,,,,,,
5b653f0e3662a8000158b83b,2023-06-16_10h03.26.821,phx_ver10,2022.2.5,Win32,59.94485074,,,,,space,0.0707,0,33,33,17,1,18,training,zh2x,e,zh2x_e,zh2x_2_ezhe.wav,,ezhe.jpg,,,,,,,,,,,,,,,,,,,,,,,,,,,,,,,,,
5b653f0e3662a8000158b83b,2023-06-16_10h03.26.821,phx_ver10,2022.2.5,Win32,59.94485074,,,,,space,0.391,0,34,34,8,1,9,training,zh2x,a,zh2x_a,zh2x_5_axa.wav,,axa.jpg,,,,,,,,,,,,,,,,,,,,,,,,,,,,,,,,,
5b653f0e3662a8000158b83b,2023-06-16_10h03.26.821,phx_ver10,2022.2.5,Win32,59.94485074,,,,,space,0.4088,0,35,35,24,1,25,training,zh2x,e,zh2x_e,zh2x_5_exe.wav,,exe.jpg,,,,,,,,,,,,,,,,,,,,,,,,,,,,,,,,,
5b653f0e3662a8000158b83b,2023-06-16_10h03.26.821,phx_ver10,2022.2.5,Win32,59.94485074,,,,,,,,,,,,,attn_test,,,,zh2x_8_ixi.wav,zh2x_8_axa.wav,axa.jpg,RIGHT,,j,0.537,space,1.1,0,0,0,0,1,,,,,,,,,,,,,,,,,,,,,,
5b653f0e3662a8000158b83b,2023-06-16_10h03.26.821,phx_ver10,2022.2.5,Win32,59.94485074,,,,,space,0.6338,0,36,36,4,1,5,training,zh2x,a,zh2x_a,zh2x_2_azha.wav,,azha.jpg,,,,,,,,,,,,,,,,,,,,,,,,,,,,,,,,,
5b653f0e3662a8000158b83b,2023-06-16_10h03.26.821,phx_ver10,2022.2.5,Win32,59.94485074,,,,,space,0.3415,0,37,37,46,1,47,training,zh2x,i,zh2x_i,zh2x_7_ixi.wav,,ixi.jpg,,,,,,,,,,,,,,,,,,,,,,,,,,,,,,,,,
5b653f0e3662a8000158b83b,2023-06-16_10h03.26.821,phx_ver10,2022.2.5,Win32,59.94485074,,,,,space,0.2179,0,38,38,23,1,24,training,zh2x,e,zh2x_e,zh2x_4_ezhe.wav,,ezhe.jpg,,,,,,,,,,,,,,,,,,,,,,,,,,,,,,,,,
5b653f0e3662a8000158b83b,2023-06-16_10h03.26.821,phx_ver10,2022.2.5,Win32,59.94485074,,,,,space,0.0188,0,39,39,32,1,33,training,zh2x,i,zh2x_i,zh2x_1_izhi.wav,,izhi.jpg,,,,,,,,,,,,,,,,,,,,,,,,,,,,,,,,,
5b653f0e3662a8000158b83b,2023-06-16_10h03.26.821,phx_ver10,2022.2.5,Win32,59.94485074,,,,,space,0.1715,0,40,40,13,1,14,training,zh2x,a,zh2x_a,zh2x_7_axa.wav,,axa.jpg,,,,,,,,,,,,,,,,,,,,,,,,,,,,,,,,,
5b653f0e3662a8000158b83b,2023-06-16_10h03.26.821,phx_ver10,2022.2.5,Win32,59.94485074,,,,,space,0.0672,0,41,41,10,1,11,training,zh2x,a,zh2x_a,zh2x_6_axa.wav,,axa.jpg,,,,,,,,,,,,,,,,,,,,,,,,,,,,,,,,,
5b653f0e3662a8000158b83b,2023-06-16_10h03.26.821,phx_ver10,2022.2.5,Win32,59.94485074,,,,,,,,,,,,,attn_test,,,,zh2x_1_izhi.wav,zh2x_8_axa.wav,izhi.jpg,LEFT,,f,0.1332,space,0.4532,0,0,0,0,1,,,,,,,,,,,,,,,,,,,,,,
5b653f0e3662a8000158b83b,2023-06-16_10h03.26.821,phx_ver10,2022.2.5,Win32,59.94485074,,,,,space,0.1718,0,42,42,21,1,22,training,zh2x,e,zh2x_e,zh2x_3_ezhe.wav,,ezhe.jpg,,,,,,,,,,,,,,,,,,,,,,,,,,,,,,,,,
5b653f0e3662a8000158b83b,2023-06-16_10h03.26.821,phx_ver10,2022.2.5,Win32,59.94485074,,,,,space,0.2003,0,43,43,19,1,20,training,zh2x,e,zh2x_e,zh2x_2_ezhe.wav,,ezhe.jpg,,,,,,,,,,,,,,,,,,,,,,,,,,,,,,,,,
5b653f0e3662a8000158b83b,2023-06-16_10h03.26.821,phx_ver10,2022.2.5,Win32,59.94485074,,,,,space,0.3157,0,44,44,39,1,40,training,zh2x,i,zh2x_i,zh2x_4_izhi.wav,,izhi.jpg,,,,,,,,,,,,,,,,,,,,,,,,,,,,,,,,,
5b653f0e3662a8000158b83b,2023-06-16_10h03.26.821,phx_ver10,2022.2.5,Win32,59.94485074,,,,,space,0.2163,0,45,45,26,1,27,training,zh2x,e,zh2x_e,zh2x_6_exe.wav,,exe.jpg,,,,,,,,,,,,,,,,,,,,,,,,,,,,,,,,,
5b653f0e3662a8000158b83b,2023-06-16_10h03.26.821,phx_ver10,2022.2.5,Win32,59.94485074,,,,,space,0.2329,0,46,46,12,1,13,training,zh2x,a,zh2x_a,zh2x_7_axa.wav,,axa.jpg,,,,,,,,,,,,,,,,,,,,,,,,,,,,,,,,,
5b653f0e3662a8000158b83b,2023-06-16_10h03.26.821,phx_ver10,2022.2.5,Win32,59.94485074,,,,,space,0.0783,0,47,47,20,1,21,training,zh2x,e,zh2x_e,zh2x_2_ezhe.wav,,ezhe.jpg,,,,,,,,,,,,,,,,,,,,,,,,,,,,,,,,,
5b653f0e3662a8000158b83b,2023-06-16_10h03.26.821,phx_ver10,2022.2.5,Win32,59.94485074,,,,,,,,,,,,,attn_test,,,,zh2x_1_izhi.wav,zh2x_1_ezhe.wav,ezhe.jpg,RIGHT,,j,0.0605,space,0.4207,,,,,,,,,,,,,,,,,,,,,,,,,,,
5b653f0e3662a8000158b83b,2023-06-16_10h03.26.821,phx_ver10,2022.2.5,Win32,59.94485074,,,,,,,,,,,,,,,,,,,,,,,,,,,,,,,space,0.756,,,,,,,,,,,,,,,,,,,,
5b653f0e3662a8000158b83b,2023-06-16_10h03.26.821,phx_ver10,2022.2.5,Win32,59.94485074,,,,,,,,,,,,,,,,,,,,,,,,,,,,,,,,,space,3.2622,,,,,,,,,,,,,,,,,,
5b653f0e3662a8000158b83b,2023-06-16_10h03.26.821,phx_ver10,2022.2.5,Win32,59.94485074,,,,,,,,,,,,5,testing_pre,,,,ihi.wav,ifi.wav,,FALSE,,,,,,,,,,,,,,,j,3.0555,space,3.3673,0,0,0,4,1,,,,,,,,,
5b653f0e3662a8000158b83b,2023-06-16_10h03.26.821,phx_ver10,2022.2.5,Win32,59.94485074,,,,,,,,,,,,3,testing_pre,,,,afa.wav,aha.wav,,FALSE,,,,,,,,,,,,,,,j,0.5122,space,0.8334,0,1,1,2,1,,,,,,,,,
5b653f0e3662a8000158b83b,2023-06-16_10h03.26.821,phx_ver10,2022.2.5,Win32,59.94485074,,,,,,,,,,,,2,testing_pre,,,,auhau.wav,aufau.wav,,FALSE,,,,,,,,,,,,,,,j,0.3029,space,0.6629,0,2,2,1,1,,,,,,,,,
5b653f0e3662a8000158b83b,2023-06-16_10h03.26.821,phx_ver10,2022.2.5,Win32,59.94485074,,,,,,,,,,,,4,testing_pre,,,,eihei.wav,eihei.wav,,TRUE,,,,,,,,,,,,,,,f,0.1503,space,0.3672,0,3,3,3,1,,,,,,,,,
5b653f0e3662a8000158b83b,2023-06-16_10h03.26.821,phx_ver10,2022.2.5,Win32,59.94485074,,,,,,,,,,,,1,testing_pre,,,,ifi.wav,ifi.wav,,TRUE,,,,,,,,,,,,,,,f,0.4231,space,0.6308,0,4,4,0,1,,,,,,,,,
5b653f0e3662a8000158b83b,2023-06-16_10h03.26.821,phx_ver10,2022.2.5,Win32,59.94485074,,,,,,,,,,,,,,,,,,,,,,,,,,,,,,,,,,,,,,,,,,,,space,0.5618,,,,,,,
5b653f0e3662a8000158b83b,2023-06-16_10h03.26.821,phx_ver10,2022.2.5,Win32,59.94485074,,,,,,,,,,,,116,testing_3,sh2x,ei,sh2x_ei,sh2x_8_eixei.wav,sh2x_1_eishei.wav,,FALSE,FALSE,,,,,,,,,,,,,,f,0.3667,space,0.6521,,,,,,,,0,0,0,115,1,,
5b653f0e3662a8000158b83b,2023-06-16_10h03.26.821,phx_ver10,2022.2.5,Win32,59.94485074,,,,,,,,,,,,32,testing_3,zh2sh,ai,zh2sh_ai,zh2sh_8_aishai.wav,zh2sh_1_aizhai.wav,,FALSE,FALSE,,,,,,,,,,,,,,j,3.2104,space,3.538,,,,,,,,0,1,1,31,1,,
5b653f0e3662a8000158b83b,2023-06-16_10h03.26.821,phx_ver10,2022.2.5,Win32,59.94485074,,,,,,,,,,,,13,testing_2,zh2x,ai,zh2x_ai,zh2x_1_aizhai.wav,zh2x_1_aizhai.wav,,TRUE,FALSE,,,,,,,,,,,,,,f,0.7061,space,0.9061,,,,,,,,0,2,2,12,1,,
5b653f0e3662a8000158b83b,2023-06-16_10h03.26.821,phx_ver10,2022.2.5,Win32,59.94485074,,,,,,,,,,,,113,testing_3,sh2x,ei,sh2x_ei,sh2x_1_eishei.wav,sh2x_1_eishei.wav,,TRUE,FALSE,,,,,,,,,,,,,,f,0.1663,space,0.3833,,,,,,,,0,3,3,112,1,,
5b653f0e3662a8000158b83b,2023-06-16_10h03.26.821,phx_ver10,2022.2.5,Win32,59.94485074,,,,,,,,,,,,92,testing_3,j2x,ei,j2x_ei,j2x_8_eixei.wav,j2x_1_eijei.wav,,FALSE,FALSE,,,,,,,,,,,,,,j,0.2048,space,0.5498,,,,,,,,0,4,4,91,1,,
5b653f0e3662a8000158b83b,2023-06-16_10h03.26.821,phx_ver10,2022.2.5,Win32,59.94485074,,,,,,,,,,,,86,testing_3,j2x,e,j2x_e,j2x_8_exe.wav,j2x_8_exe.wav,,TRUE,FALSE,,,,,,,,,,,,,,f,0.1837,space,0.5273,,,,,,,,0,5,5,85,1,,
5b653f0e3662a8000158b83b,2023-06-16_10h03.26.821,phx_ver10,2022.2.5,Win32,59.94485074,,,,,,,,,,,,65,testing_3,zh2j,ei,zh2j_ei,zh2j_1_eizhei.wav,zh2j_1_eizhei.wav,,TRUE,FALSE,,,,,,,,,,,,,,f,0.09,space,0.322,,,,,,,,0,6,6,64,1,,
5b653f0e3662a8000158b83b,2023-06-16_10h03.26.821,phx_ver10,2022.2.5,Win32,59.94485074,,,,,,,,,,,,143,testing_3,sh2j,i,sh2j_i,sh2j_1_ishi.wav,sh2j_8_iji.wav,,FALSE,FALSE,,,,,,,,,,,,,,j,0.654,space,0.942,,,,,,,,0,7,7,142,1,,
5b653f0e3662a8000158b83b,2023-06-16_10h03.26.821,phx_ver10,2022.2.5,Win32,59.94485074,,,,,,,,,,,,88,testing_3,j2x,e,j2x_e,j2x_8_exe.wav,j2x_1_eje.wav,,FALSE,FALSE,,,,,,,,,,,,,,j,0.4956,space,0.7516,,,,,,,,0,8,8,87,1,,
5b653f0e3662a8000158b83b,2023-06-16_10h03.26.821,phx_ver10,2022.2.5,Win32,59.94485074,,,,,,,,,,,,83,testing_3,j2x,au,j2x_au,j2x_1_aujau.wav,j2x_8_auxau.wav,,FALSE,FALSE,,,,,,,,,,,,,,j,0.3067,space,0.5945,,,,,,,,0,9,9,82,1,,
5b653f0e3662a8000158b83b,2023-06-16_10h03.26.821,phx_ver10,2022.2.5,Win32,59.94485074,,,,,,,,,,,,98,testing_3,sh2x,a,sh2x_a,sh2x_8_axa.wav,sh2x_8_axa.wav,,TRUE,FALSE,,,,,,,,,,,,,,f,0.6426,space,0.851,,,,,,,,0,10,10,97,1,,
5b653f0e3662a8000158b83b,2023-06-16_10h03.26.821,phx_ver10,2022.2.5,Win32,59.94485074,,,,,,,,,,,,26,testing_3,zh2sh,a,zh2sh_a,zh2sh_8_asha.wav,zh2sh_8_asha.wav,,TRUE,FALSE,,,,,,,,,,,,,,f,0.2514,space,0.5359,,,,,,,,0,11,11,25,1,,
5b653f0e3662a8000158b83b,2023-06-16_10h03.26.821,phx_ver10,2022.2.5,Win32,59.94485074,,,,,,,,,,,,57,testing_3,zh2j,au,zh2j_au,zh2j_1_auzhau.wav,zh2j_1_auzhau.wav,,TRUE,FALSE,,,,,,,,,,,,,,f,0.1948,space,0.5308,,,,,,,,0,12,12,56,1,,
5b653f0e3662a8000158b83b,2023-06-16_10h03.26.821,phx_ver10,2022.2.5,Win32,59.94485074,,,,,,,,,,,,33,testing_3,zh2sh,au,zh2sh_au,zh2sh_1_auzhau.wav,zh2sh_1_auzhau.wav,,TRUE,FALSE,,,,,,,,,,,,,,f,0.1093,space,0.3831,,,,,,,,0,13,13,32,1,,
5b653f0e3662a8000158b83b,2023-06-16_10h03.26.821,phx_ver10,2022.2.5,Win32,59.94485074,,,,,,,,,,,,107,testing_3,sh2x,au,sh2x_au,sh2x_1_aushau.wav,sh2x_8_auxau.wav,,FALSE,FALSE,,,,,,,,,,,,,,j,0.0942,space,0.4176,,,,,,,,0,14,14,106,1,,
5b653f0e3662a8000158b83b,2023-06-16_10h03.26.821,phx_ver10,2022.2.5,Win32,59.94485074,,,,,,,,,,,,61,testing_3,zh2j,e,zh2j_e,zh2j_1_ezhe.wav,zh2j_1_ezhe.wav,,TRUE,FALSE,,,,,,,,,,,,,,f,0.134,space,0.3419,,,,,,,,0,15,15,60,1,,
5b653f0e3662a8000158b83b,2023-06-16_10h03.26.821,phx_ver10,2022.2.5,Win32,59.94485074,,,,,,,,,,,,69,testing_3,zh2j,i,zh2j_i,zh2j_1_izhi.wav,zh2j_1_izhi.wav,,TRUE,FALSE,,,,,,,,,,,,,,f,0.0329,space,0.4162,,,,,,,,0,16,16,68,1,,
5b653f0e3662a8000158b83b,2023-06-16_10h03.26.821,phx_ver10,2022.2.5,Win32,59.94485074,,,,,,,,,,,,111,testing_3,sh2x,e,sh2x_e,sh2x_1_eshe.wav,sh2x_8_exe.wav,,FALSE,FALSE,,,,,,,,,,,,,,j,1.8401,space,2.0799,,,,,,,,0,17,17,110,1,,
5b653f0e3662a8000158b83b,2023-06-16_10h03.26.821,phx_ver10,2022.2.5,Win32,59.94485074,,,,,,,,,,,,94,testing_3,j2x,i,j2x_i,j2x_8_ixi.wav,j2x_8_ixi.wav,,TRUE,FALSE,,,,,,,,,,,,,,f,0.5501,space,0.7713,,,,,,,,0,18,18,93,1,,
5b653f0e3662a8000158b83b,2023-06-16_10h03.26.821,phx_ver10,2022.2.5,Win32,59.94485074,,,,,,,,,,,,20,testing_2,zh2x,au,zh2x_au,zh2x_8_auxau.wav,zh2x_1_auzhau.wav,,FALSE,FALSE,,,,,,,,,,,,,,j,0.3175,space,0.6374,,,,,,,,0,19,19,19,1,,
5b653f0e3662a8000158b83b,2023-06-16_10h03.26.821,phx_ver10,2022.2.5,Win32,59.94485074,,,,,,,,,,,,11,testing_1,zh2x,i,zh2x_i,zh2x_1_izhi.wav,zh2x_8_ixi.wav,,FALSE,TRUE,,,,,,,,,,,,,,j,0.1162,space,0.4833,,,,,,,,0,20,20,10,1,,
5b653f0e3662a8000158b83b,2023-06-16_10h03.26.821,phx_ver10,2022.2.5,Win32,59.94485074,,,,,,,,,,,,102,testing_3,sh2x,ai,sh2x_ai,sh2x_8_aixai.wav,sh2x_8_aixai.wav,,TRUE,FALSE,,,,,,,,,,,,,,f,0.1353,space,0.4631,,,,,,,,0,21,21,101,1,,
5b653f0e3662a8000158b83b,2023-06-16_10h03.26.821,phx_ver10,2022.2.5,Win32,59.94485074,,,,,,,,,,,,42,testing_3,zh2sh,ei,zh2sh_ei,zh2sh_8_eishei.wav,zh2sh_8_eishei.wav,,TRUE,FALSE,,,,,,,,,,,,,,f,0.1829,space,0.4533,,,,,,,,0,22,22,41,1,,
5b653f0e3662a8000158b83b,2023-06-16_10h03.26.821,phx_ver10,2022.2.5,Win32,59.94485074,,,,,,,,,,,,74,testing_3,j2x,a,j2x_a,j2x_8_axa.wav,j2x_8_axa.wav,,TRUE,FALSE,,,,,,,,,,,,,,f,0.4124,space,0.6684,,,,,,,,0,23,23,73,1,,
5b653f0e3662a8000158b83b,2023-06-16_10h03.26.821,phx_ver10,2022.2.5,Win32,59.94485074,,,,,,,,,,,,134,testing_3,sh2j,e,sh2j_e,sh2j_8_eje.wav,sh2j_8_eje.wav,,TRUE,FALSE,,,,,,,,,,,,,,f,0.2405,space,0.6168,,,,,,,,0,24,24,133,1,,
5b653f0e3662a8000158b83b,2023-06-16_10h03.26.821,phx_ver10,2022.2.5,Win32,59.94485074,,,,,,,,,,,,131,testing_3,sh2j,au,sh2j_au,sh2j_1_aushau.wav,sh2j_8_aujau.wav,,FALSE,FALSE,,,,,,,,,,,,,,j,0.1435,space,0.5032,,,,,,,,0,25,25,130,1,,
5b653f0e3662a8000158b83b,2023-06-16_10h03.26.821,phx_ver10,2022.2.5,Win32,59.94485074,,,,,,,,,,,,48,testing_3,zh2sh,i,zh2sh_i,zh2sh_8_ishi.wav,zh2sh_1_izhi.wav,,FALSE,FALSE,,,,,,,,,,,,,,f,1.8195,space,1.9715,,,,,,,,0,26,26,47,1,,
5b653f0e3662a8000158b83b,2023-06-16_10h03.26.821,phx_ver10,2022.2.5,Win32,59.94485074,,,,,,,,,,,,18,testing_2,zh2x,au,zh2x_au,zh2x_8_auxau.wav,zh2x_8_auxau.wav,,TRUE,FALSE,,,,,,,,,,,,,,f,0.3236,space,0.6517,,,,,,,,0,27,27,17,1,,
5b653f0e3662a8000158b83b,2023-06-16_10h03.26.821,phx_ver10,2022.2.5,Win32,59.94485074,,,,,,,,,,,,75,testing_3,j2x,a,j2x_a,j2x_1_aja.wav,j2x_8_axa.wav,,FALSE,FALSE,,,,,,,,,,,,,,j,0.4092,space,0.6411,,,,,,,,0,28,28,74,1,,
5b653f0e3662a8000158b83b,2023-06-16_10h03.26.821,phx_ver10,2022.2.5,Win32,59.94485074,,,,,,,,,,,,53,testing_3,zh2j,ai,zh2j_ai,zh2j_1_aizhai.wav,zh2j_1_aizhai.wav,,TRUE,FALSE,,,,,,,,,,,,,,f,0.1186,space,0.3586,,,,,,,,0,29,29,52,1,,
5b653f0e3662a8000158b83b,2023-06-16_10h03.26.821,phx_ver10,2022.2.5,Win32,59.94485074,,,,,,,,,,,,104,testing_3,sh2x,ai,sh2x_ai,sh2x_8_aixai.wav,sh2x_1_aishai.wav,,FALSE,FALSE,,,,,,,,,,,,,,f,0.4577,space,0.7058,,,,,,,,0,30,30,103,1,,
5b653f0e3662a8000158b83b,2023-06-16_10h03.26.821,phx_ver10,2022.2.5,Win32,59.94485074,,,,,,,,,,,,90,testing_3,j2x,ei,j2x_ei,j2x_8_eixei.wav,j2x_8_eixei.wav,,TRUE,FALSE,,,,,,,,,,,,,,f,0.0291,space,0.2933,,,,,,,,0,31,31,89,1,,
5b653f0e3662a8000158b83b,2023-06-16_10h03.26.821,phx_ver10,2022.2.5,Win32,59.94485074,,,,,,,,,,,,41,testing_3,zh2sh,ei,zh2sh_ei,zh2sh_1_eizhei.wav,zh2sh_1_eizhei.wav,,TRUE,FALSE,,,,,,,,,,,,,,f,0.1456,space,0.3376,,,,,,,,0,32,32,40,1,,
5b653f0e3662a8000158b83b,2023-06-16_10h03.26.821,phx_ver10,2022.2.5,Win32,59.94485074,,,,,,,,,,,,5,testing_1,zh2x,e,zh2x_e,zh2x_1_ezhe.wav,zh2x_1_ezhe_copy.wav,,TRUE,TRUE,,,,,,,,,,,,,,f,0.2446,space,0.4125,,,,,,,,0,33,33,4,1,,
5b653f0e3662a8000158b83b,2023-06-16_10h03.26.821,phx_ver10,2022.2.5,Win32,59.94485074,,,,,,,,,,,,105,testing_3,sh2x,au,sh2x_au,sh2x_1_aushau.wav,sh2x_1_aushau.wav,,TRUE,FALSE,,,,,,,,,,,,,,f,0.0372,space,0.4292,,,,,,,,0,34,34,104,1,,
5b653f0e3662a8000158b83b,2023-06-16_10h03.26.821,phx_ver10,2022.2.5,Win32,59.94485074,,,,,,,,,,,,110,testing_3,sh2x,e,sh2x_e,sh2x_8_exe.wav,sh2x_8_exe.wav,,TRUE,FALSE,,,,,,,,,,,,,,f,0.2762,space,0.5166,,,,,,,,0,35,35,109,1,,
5b653f0e3662a8000158b83b,2023-06-16_10h03.26.821,phx_ver10,2022.2.5,Win32,59.94485074,,,,,,,,,,,,84,testing_3,j2x,au,j2x_au,j2x_8_auxau.wav,j2x_1_aujau.wav,,FALSE,FALSE,,,,,,,,,,,,,,j,0.0074,space,0.3351,,,,,,,,0,36,36,83,1,,
5b653f0e3662a8000158b83b,2023-06-16_10h03.26.821,phx_ver10,2022.2.5,Win32,59.94485074,,,,,,,,,,,,19,testing_2,zh2x,au,zh2x_au,zh2x_1_auzhau.wav,zh2x_8_auxau.wav,,FALSE,FALSE,,,,,,,,,,,,,,f,0.1389,space,0.3628,,,,,,,,0,37,37,18,1,,
5b653f0e3662a8000158b83b,2023-06-16_10h03.26.821,phx_ver10,2022.2.5,Win32,59.94485074,,,,,,,,,,,,34,testing_3,zh2sh,au,zh2sh_au,zh2sh_8_aushau.wav,zh2sh_8_aushau.wav,,TRUE,FALSE,,,,,,,,,,,,,,f,0.1495,space,0.3959,,,,,,,,0,38,38,33,1,,
5b653f0e3662a8000158b83b,2023-06-16_10h03.26.821,phx_ver10,2022.2.5,Win32,59.94485074,,,,,,,,,,,,50,testing_3,zh2j,a,zh2j_a,zh2j_8_aja.wav,zh2j_8_aja.wav,,TRUE,FALSE,,,,,,,,,,,,,,f,0.3171,space,0.541,,,,,,,,0,39,39,49,1,,
5b653f0e3662a8000158b83b,2023-06-16_10h03.26.821,phx_ver10,2022.2.5,Win32,59.94485074,,,,,,,,,,,,125,testing_3,sh2j,ai,sh2j_ai,sh2j_1_aishai.wav,sh2j_1_aishai.wav,,TRUE,FALSE,,,,,,,,,,,,,,f,0.0556,space,0.3833,,,,,,,,0,40,40,124,1,,
5b653f0e3662a8000158b83b,2023-06-16_10h03.26.821,phx_ver10,2022.2.5,Win32,59.94485074,,,,,,,,,,,,81,testing_3,j2x,au,j2x_au,j2x_1_aujau.wav,j2x_1_aujau.wav,,TRUE,FALSE,,,,,,,,,,,,,,f,0.5443,space,0.7443,,,,,,,,0,41,41,80,1,,
5b653f0e3662a8000158b83b,2023-06-16_10h03.26.821,phx_ver10,2022.2.5,Win32,59.94485074,,,,,,,,,,,,138,testing_3,sh2j,ei,sh2j_ei,sh2j_8_eijei.wav,sh2j_8_eijei.wav,,TRUE,FALSE,,,,,,,,,,,,,,f,0.1864,space,0.4184,,,,,,,,0,42,42,137,1,,
5b653f0e3662a8000158b83b,2023-06-16_10h03.26.821,phx_ver10,2022.2.5,Win32,59.94485074,,,,,,,,,,,,8,testing_1,zh2x,e,zh2x_e,zh2x_8_exe.wav,zh2x_1_ezhe.wav,,FALSE,TRUE,,,,,,,,,,,,,,j,0.026,space,0.41,,,,,,,,0,43,43,7,1,,
5b653f0e3662a8000158b83b,2023-06-16_10h03.26.821,phx_ver10,2022.2.5,Win32,59.94485074,,,,,,,,,,,,27,testing_3,zh2sh,a,zh2sh_a,zh2sh_1_azha.wav,zh2sh_8_asha.wav,,FALSE,FALSE,,,,,,,,,,,,,,j,0.0501,space,0.5,,,,,,,,0,44,44,26,1,,
5b653f0e3662a8000158b83b,2023-06-16_10h03.26.821,phx_ver10,2022.2.5,Win32,59.94485074,,,,,,,,,,,,2,testing_1,zh2x,a,zh2x_a,zh2x_8_axa.wav,zh2x_8_axa_copy.wav,,TRUE,TRUE,,,,,,,,,,,,,,f,0.1669,space,0.4548,,,,,,,,0,45,45,1,1,,
5b653f0e3662a8000158b83b,2023-06-16_10h03.26.821,phx_ver10,2022.2.5,Win32,59.94485074,,,,,,,,,,,,59,testing_3,zh2j,au,zh2j_au,zh2j_1_auzhau.wav,zh2j_8_aujau.wav,,FALSE,FALSE,,,,,,,,,,,,,,f,0.5886,space,0.7403,,,,,,,,0,46,46,58,1,,
5b653f0e3662a8000158b83b,2023-06-16_10h03.26.821,phx_ver10,2022.2.5,Win32,59.94485074,,,,,,,,,,,,14,testing_2,zh2x,ai,zh2x_ai,zh2x_8_aixai.wav,zh2x_8_aixai.wav,,TRUE,FALSE,,,,,,,,,,,,,,f,0.0952,space,0.3838,,,,,,,,0,47,47,13,1,,
5b653f0e3662a8000158b83b,2023-06-16_10h03.26.821,phx_ver10,2022.2.5,Win32,59.94485074,,,,,,,,,,,,35,testing_3,zh2sh,au,zh2sh_au,zh2sh_1_auzhau.wav,zh2sh_8_aushau.wav,,FALSE,FALSE,,,,,,,,,,,,,,j,0.2397,space,0.584,,,,,,,,0,48,48,34,1,,
5b653f0e3662a8000158b83b,2023-06-16_10h03.26.821,phx_ver10,2022.2.5,Win32,59.94485074,,,,,,,,,,,,21,testing_2,zh2x,ei,zh2x_ei,zh2x_1_eizhei.wav,zh2x_1_eizhei.wav,,TRUE,FALSE,,,,,,,,,,,,,,f,0.1998,space,0.4798,,,,,,,,0,49,49,20,1,,
5b653f0e3662a8000158b83b,2023-06-16_10h03.26.821,phx_ver10,2022.2.5,Win32,59.94485074,,,,,,,,,,,,77,testing_3,j2x,ai,j2x_ai,j2x_1_aijai.wav,j2x_1_aijai.wav,,TRUE,FALSE,,,,,,,,,,,,,,f,0.7405,space,0.9337,,,,,,,,0,50,50,76,1,,
5b653f0e3662a8000158b83b,2023-06-16_10h03.26.821,phx_ver10,2022.2.5,Win32,59.94485074,,,,,,,,,,,,101,testing_3,sh2x,ai,sh2x_ai,sh2x_1_aishai.wav,sh2x_1_aishai.wav,,TRUE,FALSE,,,,,,,,,,,,,,f,0.1905,space,0.4384,,,,,,,,0,51,51,100,1,,
5b653f0e3662a8000158b83b,2023-06-16_10h03.26.821,phx_ver10,2022.2.5,Win32,59.94485074,,,,,,,,,,,,37,testing_3,zh2sh,e,zh2sh_e,zh2sh_1_ezhe.wav,zh2sh_1_ezhe.wav,,TRUE,FALSE,,,,,,,,,,,,,,f,0.0458,space,0.3895,,,,,,,,0,52,52,36,1,,
5b653f0e3662a8000158b83b,2023-06-16_10h03.26.821,phx_ver10,2022.2.5,Win32,59.94485074,,,,,,,,,,,,71,testing_3,zh2j,i,zh2j_i,zh2j_1_izhi.wav,zh2j_8_iji.wav,,FALSE,FALSE,,,,,,,,,,,,,,f,0.384,space,0.6145,,,,,,,,0,53,53,70,1,,
5b653f0e3662a8000158b83b,2023-06-16_10h03.26.821,phx_ver10,2022.2.5,Win32,59.94485074,,,,,,,,,,,,36,testing_3,zh2sh,au,zh2sh_au,zh2sh_8_aushau.wav,zh2sh_1_auzhau.wav,,FALSE,FALSE,,,,,,,,,,,,,,j,0.183,space,0.518,,,,,,,,0,54,54,35,1,,
5b653f0e3662a8000158b83b,2023-06-16_10h03.26.821,phx_ver10,2022.2.5,Win32,59.94485074,,,,,,,,,,,,43,testing_3,zh2sh,ei,zh2sh_ei,zh2sh_1_eizhei.wav,zh2sh_8_eishei.wav,,FALSE,FALSE,,,,,,,,,,,,,,j,0.1769,space,0.4568,,,,,,,,0,55,55,42,1,,
5b653f0e3662a8000158b83b,2023-06-16_10h03.26.821,phx_ver10,2022.2.5,Win32,59.94485074,,,,,,,,,,,,119,testing_3,sh2x,i,sh2x_i,sh2x_1_ishi.wav,sh2x_8_ixi.wav,,FALSE,FALSE,,,,,,,,,,,,,,j,0.3196,space,1.6714,,,,,,,,0,56,56,118,1,,
5b653f0e3662a8000158b83b,2023-06-16_10h03.26.821,phx_ver10,2022.2.5,Win32,59.94485074,,,,,,,,,,,,23,testing_2,zh2x,ei,zh2x_ei,zh2x_1_eizhei.wav,zh2x_8_eixei.wav,,FALSE,FALSE,,,,,,,,,,,,,,j,0.0119,space,0.3339,,,,,,,,0,57,57,22,1,,
5b653f0e3662a8000158b83b,2023-06-16_10h03.26.821,phx_ver10,2022.2.5,Win32,59.94485074,,,,,,,,,,,,1,testing_1,zh2x,a,zh2x_a,zh2x_1_azha.wav,zh2x_1_azha_copy.wav,,TRUE,TRUE,,,,,,,,,,,,,,f,0.1024,space,0.4005,,,,,,,,0,58,58,0,1,,
5b653f0e3662a8000158b83b,2023-06-16_10h03.26.821,phx_ver10,2022.2.5,Win32,59.94485074,,,,,,,,,,,,73,testing_3,j2x,a,j2x_a,j2x_1_aja.wav,j2x_1_aja.wav,,TRUE,FALSE,,,,,,,,,,,,,,f,0.1663,space,0.5022,,,,,,,,0,59,59,72,1,,
5b653f0e3662a8000158b83b,2023-06-16_10h03.26.821,phx_ver10,2022.2.5,Win32,59.94485074,,,,,,,,,,,,132,testing_3,sh2j,au,sh2j_au,sh2j_8_aujau.wav,sh2j_1_aushau.wav,,FALSE,FALSE,,,,,,,,,,,,,,j,0.3935,space,0.6499,,,,,,,,0,60,60,131,1,,
5b653f0e3662a8000158b83b,2023-06-16_10h03.26.821,phx_ver10,2022.2.5,Win32,59.94485074,,,,,,,,,,,,63,testing_3,zh2j,e,zh2j_e,zh2j_1_ezhe.wav,zh2j_8_eje.wav,,FALSE,FALSE,,,,,,,,,,,,,,f,0.0877,space,0.4499,,,,,,,,0,61,61,62,1,,
5b653f0e3662a8000158b83b,2023-06-16_10h03.26.821,phx_ver10,2022.2.5,Win32,59.94485074,,,,,,,,,,,,79,testing_3,j2x,ai,j2x_ai,j2x_1_aijai.wav,j2x_8_aixai.wav,,FALSE,FALSE,,,,,,,,,,,,,,j,0.5901,space,0.902,,,,,,,,0,62,62,78,1,,
5b653f0e3662a8000158b83b,2023-06-16_10h03.26.821,phx_ver10,2022.2.5,Win32,59.94485074,,,,,,,,,,,,117,testing_3,sh2x,i,sh2x_i,sh2x_1_ishi.wav,sh2x_1_ishi.wav,,TRUE,FALSE,,,,,,,,,,,,,,f,0.2013,space,0.3771,,,,,,,,0,63,63,116,1,,
5b653f0e3662a8000158b83b,2023-06-16_10h03.26.821,phx_ver10,2022.2.5,Win32,59.94485074,,,,,,,,,,,,100,testing_3,sh2x,a,sh2x_a,sh2x_8_axa.wav,sh2x_1_asha.wav,,FALSE,FALSE,,,,,,,,,,,,,,f,0.155,space,0.4839,,,,,,,,0,64,64,99,1,,
5b653f0e3662a8000158b83b,2023-06-16_10h03.26.821,phx_ver10,2022.2.5,Win32,59.94485074,,,,,,,,,,,,87,testing_3,j2x,e,j2x_e,j2x_1_eje.wav,j2x_8_exe.wav,,FALSE,FALSE,,,,,,,,,,,,,,j,0.3272,space,0.543,,,,,,,,0,65,65,86,1,,
5b653f0e3662a8000158b83b,2023-06-16_10h03.26.821,phx_ver10,2022.2.5,Win32,59.94485074,,,,,,,,,,,,129,testing_3,sh2j,au,sh2j_au,sh2j_1_aushau.wav,sh2j_1_aushau.wav,,TRUE,FALSE,,,,,,,,,,,,,,f,0.1054,space,0.4014,,,,,,,,0,66,66,128,1,,
5b653f0e3662a8000158b83b,2023-06-16_10h03.26.821,phx_ver10,2022.2.5,Win32,59.94485074,,,,,,,,,,,,136,testing_3,sh2j,e,sh2j_e,sh2j_8_eje.wav,sh2j_1_eshe.wav,,FALSE,FALSE,,,,,,,,,,,,,,j,0.3059,space,0.5167,,,,,,,,0,67,67,135,1,,
5b653f0e3662a8000158b83b,2023-06-16_10h03.26.821,phx_ver10,2022.2.5,Win32,59.94485074,,,,,,,,,,,,47,testing_3,zh2sh,i,zh2sh_i,zh2sh_1_izhi.wav,zh2sh_8_ishi.wav,,FALSE,FALSE,,,,,,,,,,,,,,j,0.493,space,0.7008,,,,,,,,0,68,68,46,1,,
5b653f0e3662a8000158b83b,2023-06-16_10h03.26.821,phx_ver10,2022.2.5,Win32,59.94485074,,,,,,,,,,,,91,testing_3,j2x,ei,j2x_ei,j2x_1_eijei.wav,j2x_8_eixei.wav,,FALSE,FALSE,,,,,,,,,,,,,,f,0.6002,space,0.9361,,,,,,,,0,69,69,90,1,,
5b653f0e3662a8000158b83b,2023-06-16_10h03.26.821,phx_ver10,2022.2.5,Win32,59.94485074,,,,,,,,,,,,45,testing_3,zh2sh,i,zh2sh_i,zh2sh_1_izhi.wav,zh2sh_1_izhi.wav,,TRUE,FALSE,,,,,,,,,,,,,,f,0.307,space,0.5,,,,,,,,0,70,70,44,1,,
5b653f0e3662a8000158b83b,2023-06-16_10h03.26.821,phx_ver10,2022.2.5,Win32,59.94485074,,,,,,,,,,,,114,testing_3,sh2x,ei,sh2x_ei,sh2x_8_eixei.wav,sh2x_8_eixei.wav,,TRUE,FALSE,,,,,,,,,,,,,,f,0.4007,space,0.5674,,,,,,,,0,71,71,113,1,,
5b653f0e3662a8000158b83b,2023-06-16_10h03.26.821,phx_ver10,2022.2.5,Win32,59.94485074,,,,,,,,,,,,124,testing_3,sh2j,a,sh2j_a,sh2j_8_aja.wav,sh2j_1_asha.wav,,FALSE,FALSE,,,,,,,,,,,,,,j,0.0966,space,0.3525,,,,,,,,0,72,72,123,1,,
5b653f0e3662a8000158b83b,2023-06-16_10h03.26.821,phx_ver10,2022.2.5,Win32,59.94485074,,,,,,,,,,,,130,testing_3,sh2j,au,sh2j_au,sh2j_8_aujau.wav,sh2j_8_aujau.wav,,TRUE,FALSE,,,,,,,,,,,,,,f,0.0336,space,0.2664,,,,,,,,0,73,73,129,1,,
5b653f0e3662a8000158b83b,2023-06-16_10h03.26.821,phx_ver10,2022.2.5,Win32,59.94485074,,,,,,,,,,,,56,testing_3,zh2j,ai,zh2j_ai,zh2j_8_aijai.wav,zh2j_1_aizhai.wav,,FALSE,FALSE,,,,,,,,,,,,,,f,0.0958,space,0.3755,,,,,,,,0,74,74,55,1,,
5b653f0e3662a8000158b83b,2023-06-16_10h03.26.821,phx_ver10,2022.2.5,Win32,59.94485074,,,,,,,,,,,,78,testing_3,j2x,ai,j2x_ai,j2x_8_aixai.wav,j2x_8_aixai.wav,,TRUE,FALSE,,,,,,,,,,,,,,f,0.0886,space,0.3445,,,,,,,,0,75,75,77,1,,
5b653f0e3662a8000158b83b,2023-06-16_10h03.26.821,phx_ver10,2022.2.5,Win32,59.94485074,,,,,,,,,,,,108,testing_3,sh2x,au,sh2x_au,sh2x_8_auxau.wav,sh2x_1_aushau.wav,,FALSE,FALSE,,,,,,,,,,,,,,f,0.2196,space,0.4195,,,,,,,,0,76,76,107,1,,
5b653f0e3662a8000158b83b,2023-06-16_10h03.26.821,phx_ver10,2022.2.5,Win32,59.94485074,,,,,,,,,,,,106,testing_3,sh2x,au,sh2x_au,sh2x_8_auxau.wav,sh2x_8_auxau.wav,,TRUE,FALSE,,,,,,,,,,,,,,f,0.1171,space,0.4356,,,,,,,,0,77,77,105,1,,
5b653f0e3662a8000158b83b,2023-06-16_10h03.26.821,phx_ver10,2022.2.5,Win32,59.94485074,,,,,,,,,,,,97,testing_3,sh2x,a,sh2x_a,sh2x_1_asha.wav,sh2x_1_asha.wav,,TRUE,FALSE,,,,,,,,,,,,,,f,0.1864,space,0.4343,,,,,,,,0,78,78,96,1,,
5b653f0e3662a8000158b83b,2023-06-16_10h03.26.821,phx_ver10,2022.2.5,Win32,59.94485074,,,,,,,,,,,,30,testing_3,zh2sh,ai,zh2sh_ai,zh2sh_8_aishai.wav,zh2sh_8_aishai.wav,,TRUE,FALSE,,,,,,,,,,,,,,f,0.6005,space,0.7685,,,,,,,,0,79,79,29,1,,
5b653f0e3662a8000158b83b,2023-06-16_10h03.26.821,phx_ver10,2022.2.5,Win32,59.94485074,,,,,,,,,,,,93,testing_3,j2x,i,j2x_i,j2x_1_iji.wav,j2x_1_iji.wav,,TRUE,FALSE,,,,,,,,,,,,,,f,0.2663,space,0.5853,,,,,,,,0,80,80,92,1,,
5b653f0e3662a8000158b83b,2023-06-16_10h03.26.821,phx_ver10,2022.2.5,Win32,59.94485074,,,,,,,,,,,,16,testing_2,zh2x,ai,zh2x_ai,zh2x_8_aixai.wav,zh2x_1_aizhai.wav,,FALSE,FALSE,,,,,,,,,,,,,,f,0.7865,space,0.9623,,,,,,,,0,81,81,15,1,,
5b653f0e3662a8000158b83b,2023-06-16_10h03.26.821,phx_ver10,2022.2.5,Win32,59.94485074,,,,,,,,,,,,109,testing_3,sh2x,e,sh2x_e,sh2x_1_eshe.wav,sh2x_1_eshe.wav,,TRUE,FALSE,,,,,,,,,,,,,,f,0.2035,space,0.5235,,,,,,,,0,82,82,108,1,,
5b653f0e3662a8000158b83b,2023-06-16_10h03.26.821,phx_ver10,2022.2.5,Win32,59.94485074,,,,,,,,,,,,123,testing_3,sh2j,a,sh2j_a,sh2j_1_asha.wav,sh2j_8_aja.wav,,FALSE,FALSE,,,,,,,,,,,,,,j,0.1744,space,0.3743,,,,,,,,0,83,83,122,1,,
5b653f0e3662a8000158b83b,2023-06-16_10h03.26.821,phx_ver10,2022.2.5,Win32,59.94485074,,,,,,,,,,,,76,testing_3,j2x,a,j2x_a,j2x_8_axa.wav,j2x_1_aja.wav,,FALSE,FALSE,,,,,,,,,,,,,,j,0.2567,space,0.4727,,,,,,,,0,84,84,75,1,,
5b653f0e3662a8000158b83b,2023-06-16_10h03.26.821,phx_ver10,2022.2.5,Win32,59.94485074,,,,,,,,,,,,80,testing_3,j2x,ai,j2x_ai,j2x_8_aixai.wav,j2x_1_aijai.wav,,FALSE,FALSE,,,,,,,,,,,,,,f,0.774,space,1.0777,,,,,,,,0,85,85,79,1,,
5b653f0e3662a8000158b83b,2023-06-16_10h03.26.821,phx_ver10,2022.2.5,Win32,59.94485074,,,,,,,,,,,,12,testing_1,zh2x,i,zh2x_i,zh2x_8_ixi.wav,zh2x_1_izhi.wav,,FALSE,TRUE,,,,,,,,,,,,,,f,0.1053,space,0.4094,,,,,,,,0,86,86,11,1,,
5b653f0e3662a8000158b83b,2023-06-16_10h03.26.821,phx_ver10,2022.2.5,Win32,59.94485074,,,,,,,,,,,,99,testing_3,sh2x,a,sh2x_a,sh2x_1_asha.wav,sh2x_8_axa.wav,,FALSE,FALSE,,,,,,,,,,,,,,j,0.3778,space,0.5856,,,,,,,,0,87,87,98,1,,
5b653f0e3662a8000158b83b,2023-06-16_10h03.26.821,phx_ver10,2022.2.5,Win32,59.94485074,,,,,,,,,,,,38,testing_3,zh2sh,e,zh2sh_e,zh2sh_8_eshe.wav,zh2sh_8_eshe.wav,,TRUE,FALSE,,,,,,,,,,,,,,f,0.1067,space,0.4027,,,,,,,,0,88,88,37,1,,
5b653f0e3662a8000158b83b,2023-06-16_10h03.26.821,phx_ver10,2022.2.5,Win32,59.94485074,,,,,,,,,,,,24,testing_2,zh2x,ei,zh2x_ei,zh2x_8_eixei.wav,zh2x_1_eizhei.wav,,FALSE,FALSE,,,,,,,,,,,,,,f,0.7946,space,1.1944,,,,,,,,0,89,89,23,1,,
5b653f0e3662a8000158b83b,2023-06-16_10h03.26.821,phx_ver10,2022.2.5,Win32,59.94485074,,,,,,,,,,,,60,testing_3,zh2j,au,zh2j_au,zh2j_8_aujau.wav,zh2j_1_auzhau.wav,,FALSE,FALSE,,,,,,,,,,,,,,f,0.1539,space,0.5007,,,,,,,,0,90,90,59,1,,
5b653f0e3662a8000158b83b,2023-06-16_10h03.26.821,phx_ver10,2022.2.5,Win32,59.94485074,,,,,,,,,,,,55,testing_3,zh2j,ai,zh2j_ai,zh2j_1_aizhai.wav,zh2j_8_aijai.wav,,FALSE,FALSE,,,,,,,,,,,,,,f,0.1496,space,0.2775,,,,,,,,0,91,91,54,1,,
5b653f0e3662a8000158b83b,2023-06-16_10h03.26.821,phx_ver10,2022.2.5,Win32,59.94485074,,,,,,,,,,,,89,testing_3,j2x,ei,j2x_ei,j2x_1_eijei.wav,j2x_1_eijei.wav,,TRUE,FALSE,,,,,,,,,,,,,,f,0.1635,space,0.5394,,,,,,,,0,92,92,88,1,,
5b653f0e3662a8000158b83b,2023-06-16_10h03.26.821,phx_ver10,2022.2.5,Win32,59.94485074,,,,,,,,,,,,127,testing_3,sh2j,ai,sh2j_ai,sh2j_1_aishai.wav,sh2j_8_aijai.wav,,FALSE,FALSE,,,,,,,,,,,,,,f,0.0626,space,0.3903,,,,,,,,0,93,93,126,1,,
5b653f0e3662a8000158b83b,2023-06-16_10h03.26.821,phx_ver10,2022.2.5,Win32,59.94485074,,,,,,,,,,,,141,testing_3,sh2j,i,sh2j_i,sh2j_1_ishi.wav,sh2j_1_ishi.wav,,TRUE,FALSE,,,,,,,,,,,,,,f,0.0793,space,0.3839,,,,,,,,0,94,94,140,1,,
5b653f0e3662a8000158b83b,2023-06-16_10h03.26.821,phx_ver10,2022.2.5,Win32,59.94485074,,,,,,,,,,,,44,testing_3,zh2sh,ei,zh2sh_ei,zh2sh_8_eishei.wav,zh2sh_1_eizhei.wav,,FALSE,FALSE,,,,,,,,,,,,,,f,0.2965,space,0.4405,,,,,,,,0,95,95,43,1,,
5b653f0e3662a8000158b83b,2023-06-16_10h03.26.821,phx_ver10,2022.2.5,Win32,59.94485074,,,,,,,,,,,,137,testing_3,sh2j,ei,sh2j_ei,sh2j_1_eishei.wav,sh2j_1_eishei.wav,,TRUE,FALSE,,,,,,,,,,,,,,f,0.0382,space,0.4222,,,,,,,,0,96,96,136,1,,
5b653f0e3662a8000158b83b,2023-06-16_10h03.26.821,phx_ver10,2022.2.5,Win32,59.94485074,,,,,,,,,,,,72,testing_3,zh2j,i,zh2j_i,zh2j_8_iji.wav,zh2j_1_izhi.wav,,FALSE,FALSE,,,,,,,,,,,,,,f,0.5178,space,0.7739,,,,,,,,0,97,97,71,1,,
5b653f0e3662a8000158b83b,2023-06-16_10h03.26.821,phx_ver10,2022.2.5,Win32,59.94485074,,,,,,,,,,,,4,testing_1,zh2x,a,zh2x_a,zh2x_8_axa.wav,zh2x_1_azha.wav,,FALSE,TRUE,,,,,,,,,,,,,,j,0.3746,space,0.6,,,,,,,,0,98,98,3,1,,
5b653f0e3662a8000158b83b,2023-06-16_10h03.26.821,phx_ver10,2022.2.5,Win32,59.94485074,,,,,,,,,,,,126,testing_3,sh2j,ai,sh2j_ai,sh2j_8_aijai.wav,sh2j_8_aijai.wav,,TRUE,FALSE,,,,,,,,,,,,,,f,0.1347,space,0.4867,,,,,,,,0,99,99,125,1,,
5b653f0e3662a8000158b83b,2023-06-16_10h03.26.821,phx_ver10,2022.2.5,Win32,59.94485074,,,,,,,,,,,,122,testing_3,sh2j,a,sh2j_a,sh2j_8_aja.wav,sh2j_8_aja.wav,,TRUE,FALSE,,,,,,,,,,,,,,f,0.0508,space,0.4191,,,,,,,,0,100,100,121,1,,
5b653f0e3662a8000158b83b,2023-06-16_10h03.26.821,phx_ver10,2022.2.5,Win32,59.94485074,,,,,,,,,,,,66,testing_3,zh2j,ei,zh2j_ei,zh2j_8_eijei.wav,zh2j_8_eijei.wav,,TRUE,FALSE,,,,,,,,,,,,,,f,0.0186,space,0.3626,,,,,,,,0,101,101,65,1,,
5b653f0e3662a8000158b83b,2023-06-16_10h03.26.821,phx_ver10,2022.2.5,Win32,59.94485074,,,,,,,,,,,,85,testing_3,j2x,e,j2x_e,j2x_1_eje.wav,j2x_1_eje.wav,,TRUE,FALSE,,,,,,,,,,,,,,f,0.167,space,0.4203,,,,,,,,0,102,102,84,1,,
5b653f0e3662a8000158b83b,2023-06-16_10h03.26.821,phx_ver10,2022.2.5,Win32,59.94485074,,,,,,,,,,,,112,testing_3,sh2x,e,sh2x_e,sh2x_8_exe.wav,sh2x_1_eshe.wav,,FALSE,FALSE,,,,,,,,,,,,,,f,0.188,space,0.484,,,,,,,,0,103,103,111,1,,
5b653f0e3662a8000158b83b,2023-06-16_10h03.26.821,phx_ver10,2022.2.5,Win32,59.94485074,,,,,,,,,,,,25,testing_3,zh2sh,a,zh2sh_a,zh2sh_1_azha.wav,zh2sh_1_azha.wav,,TRUE,FALSE,,,,,,,,,,,,,,f,0.0567,space,0.3845,,,,,,,,0,104,104,24,1,,
5b653f0e3662a8000158b83b,2023-06-16_10h03.26.821,phx_ver10,2022.2.5,Win32,59.94485074,,,,,,,,,,,,96,testing_3,j2x,i,j2x_i,j2x_8_ixi.wav,j2x_1_iji.wav,,FALSE,FALSE,,,,,,,,,,,,,,j,0.0264,space,0.3464,,,,,,,,0,105,105,95,1,,
5b653f0e3662a8000158b83b,2023-06-16_10h03.26.821,phx_ver10,2022.2.5,Win32,59.94485074,,,,,,,,,,,,95,testing_3,j2x,i,j2x_i,j2x_1_iji.wav,j2x_8_ixi.wav,,FALSE,FALSE,,,,,,,,,,,,,,f,0.2439,space,0.5167,,,,,,,,0,106,106,94,1,,
5b653f0e3662a8000158b83b,2023-06-16_10h03.26.821,phx_ver10,2022.2.5,Win32,59.94485074,,,,,,,,,,,,52,testing_3,zh2j,a,zh2j_a,zh2j_8_aja.wav,zh2j_1_azha.wav,,FALSE,FALSE,,,,,,,,,,,,,,f,0.2075,space,0.4235,,,,,,,,0,107,107,51,1,,
5b653f0e3662a8000158b83b,2023-06-16_10h03.26.821,phx_ver10,2022.2.5,Win32,59.94485074,,,,,,,,,,,,46,testing_3,zh2sh,i,zh2sh_i,zh2sh_8_ishi.wav,zh2sh_8_ishi.wav,,TRUE,FALSE,,,,,,,,,,,,,,f,0.0792,space,0.2232,,,,,,,,0,108,108,45,1,,
5b653f0e3662a8000158b83b,2023-06-16_10h03.26.821,phx_ver10,2022.2.5,Win32,59.94485074,,,,,,,,,,,,9,testing_1,zh2x,i,zh2x_i,zh2x_1_izhi.wav,zh2x_1_izhi_copy.wav,,TRUE,TRUE,,,,,,,,,,,,,,f,0.1912,space,0.3848,,,,,,,,0,109,109,8,1,,
5b653f0e3662a8000158b83b,2023-06-16_10h03.26.821,phx_ver10,2022.2.5,Win32,59.94485074,,,,,,,,,,,,140,testing_3,sh2j,ei,sh2j_ei,sh2j_8_eijei.wav,sh2j_1_eishei.wav,,FALSE,FALSE,,,,,,,,,,,,,,f,0.1109,space,0.3748,,,,,,,,0,110,110,139,1,,
5b653f0e3662a8000158b83b,2023-06-16_10h03.26.821,phx_ver10,2022.2.5,Win32,59.94485074,,,,,,,,,,,,28,testing_3,zh2sh,a,zh2sh_a,zh2sh_8_asha.wav,zh2sh_1_azha.wav,,FALSE,FALSE,,,,,,,,,,,,,,j,0.1768,space,0.4085,,,,,,,,0,111,111,27,1,,
5b653f0e3662a8000158b83b,2023-06-16_10h03.26.821,phx_ver10,2022.2.5,Win32,59.94485074,,,,,,,,,,,,120,testing_3,sh2x,i,sh2x_i,sh2x_8_ixi.wav,sh2x_1_ishi.wav,,FALSE,FALSE,,,,,,,,,,,,,,f,0.073,space,0.3611,,,,,,,,0,112,112,119,1,,
5b653f0e3662a8000158b83b,2023-06-16_10h03.26.821,phx_ver10,2022.2.5,Win32,59.94485074,,,,,,,,,,,,54,testing_3,zh2j,ai,zh2j_ai,zh2j_8_aijai.wav,zh2j_8_aijai.wav,,TRUE,FALSE,,,,,,,,,,,,,,f,0.2108,space,0.3547,,,,,,,,0,113,113,53,1,,
5b653f0e3662a8000158b83b,2023-06-16_10h03.26.821,phx_ver10,2022.2.5,Win32,59.94485074,,,,,,,,,,,,82,testing_3,j2x,au,j2x_au,j2x_8_auxau.wav,j2x_8_auxau.wav,,TRUE,FALSE,,,,,,,,,,,,,,f,0.0539,space,0.1898,,,,,,,,0,114,114,81,1,,
5b653f0e3662a8000158b83b,2023-06-16_10h03.26.821,phx_ver10,2022.2.5,Win32,59.94485074,,,,,,,,,,,,22,testing_2,zh2x,ei,zh2x_ei,zh2x_8_eixei.wav,zh2x_8_eixei.wav,,TRUE,FALSE,,,,,,,,,,,,,,f,0.0456,space,0.3497,,,,,,,,0,115,115,21,1,,
5b653f0e3662a8000158b83b,2023-06-16_10h03.26.821,phx_ver10,2022.2.5,Win32,59.94485074,,,,,,,,,,,,121,testing_3,sh2j,a,sh2j_a,sh2j_1_asha.wav,sh2j_1_asha.wav,,TRUE,FALSE,,,,,,,,,,,,,,f,0.0403,space,0.2563,,,,,,,,0,116,116,120,1,,
5b653f0e3662a8000158b83b,2023-06-16_10h03.26.821,phx_ver10,2022.2.5,Win32,59.94485074,,,,,,,,,,,,64,testing_3,zh2j,e,zh2j_e,zh2j_8_eje.wav,zh2j_1_ezhe.wav,,FALSE,FALSE,,,,,,,,,,,,,,f,0.15,space,0.384,,,,,,,,0,117,117,63,1,,
5b653f0e3662a8000158b83b,2023-06-16_10h03.26.821,phx_ver10,2022.2.5,Win32,59.94485074,,,,,,,,,,,,128,testing_3,sh2j,ai,sh2j_ai,sh2j_8_aijai.wav,sh2j_1_aishai.wav,,FALSE,FALSE,,,,,,,,,,,,,,f,0.0495,space,0.2162,,,,,,,,0,118,118,127,1,,
5b653f0e3662a8000158b83b,2023-06-16_10h03.26.821,phx_ver10,2022.2.5,Win32,59.94485074,,,,,,,,,,,,29,testing_3,zh2sh,ai,zh2sh_ai,zh2sh_1_aizhai.wav,zh2sh_1_aizhai.wav,,TRUE,FALSE,,,,,,,,,,,,,,f,0.0791,space,0.271,,,,,,,,0,119,119,28,1,,
5b653f0e3662a8000158b83b,2023-06-16_10h03.26.821,phx_ver10,2022.2.5,Win32,59.94485074,,,,,,,,,,,,68,testing_3,zh2j,ei,zh2j_ei,zh2j_8_eijei.wav,zh2j_1_eizhei.wav,,FALSE,FALSE,,,,,,,,,,,,,,f,0.2762,space,0.4681,,,,,,,,0,120,120,67,1,,
5b653f0e3662a8000158b83b,2023-06-16_10h03.26.821,phx_ver10,2022.2.5,Win32,59.94485074,,,,,,,,,,,,133,testing_3,sh2j,e,sh2j_e,sh2j_1_eshe.wav,sh2j_1_eshe.wav,,TRUE,FALSE,,,,,,,,,,,,,,f,0.4832,space,0.7377,,,,,,,,0,121,121,132,1,,
5b653f0e3662a8000158b83b,2023-06-16_10h03.26.821,phx_ver10,2022.2.5,Win32,59.94485074,,,,,,,,,,,,6,testing_1,zh2x,e,zh2x_e,zh2x_8_exe.wav,zh2x_8_exe_copy.wav,,TRUE,TRUE,,,,,,,,,,,,,,f,0.2519,space,0.4439,,,,,,,,0,122,122,5,1,,
5b653f0e3662a8000158b83b,2023-06-16_10h03.26.821,phx_ver10,2022.2.5,Win32,59.94485074,,,,,,,,,,,,142,testing_3,sh2j,i,sh2j_i,sh2j_8_iji.wav,sh2j_8_iji.wav,,TRUE,FALSE,,,,,,,,,,,,,,f,0.2588,space,0.4027,,,,,,,,0,123,123,141,1,,
5b653f0e3662a8000158b83b,2023-06-16_10h03.26.821,phx_ver10,2022.2.5,Win32,59.94485074,,,,,,,,,,,,144,testing_3,sh2j,i,sh2j_i,sh2j_8_iji.wav,sh2j_1_ishi.wav,,FALSE,FALSE,,,,,,,,,,,,,,j,0.1629,space,0.3385,,,,,,,,0,124,124,143,1,,
5b653f0e3662a8000158b83b,2023-06-16_10h03.26.821,phx_ver10,2022.2.5,Win32,59.94485074,,,,,,,,,,,,70,testing_3,zh2j,i,zh2j_i,zh2j_8_iji.wav,zh2j_8_iji.wav,,TRUE,FALSE,,,,,,,,,,,,,,f,0.2857,space,0.4937,,,,,,,,0,125,125,69,1,,
5b653f0e3662a8000158b83b,2023-06-16_10h03.26.821,phx_ver10,2022.2.5,Win32,59.94485074,,,,,,,,,,,,118,testing_3,sh2x,i,sh2x_i,sh2x_8_ixi.wav,sh2x_8_ixi.wav,,TRUE,FALSE,,,,,,,,,,,,,,f,0.2188,space,0.5175,,,,,,,,0,126,126,117,1,,
5b653f0e3662a8000158b83b,2023-06-16_10h03.26.821,phx_ver10,2022.2.5,Win32,59.94485074,,,,,,,,,,,,67,testing_3,zh2j,ei,zh2j_ei,zh2j_1_eizhei.wav,zh2j_8_eijei.wav,,FALSE,FALSE,,,,,,,,,,,,,,f,0.3017,space,0.5897,,,,,,,,0,127,127,66,1,,
5b653f0e3662a8000158b83b,2023-06-16_10h03.26.821,phx_ver10,2022.2.5,Win32,59.94485074,,,,,,,,,,,,17,testing_2,zh2x,au,zh2x_au,zh2x_1_auzhau.wav,zh2x_1_auzhau.wav,,TRUE,FALSE,,,,,,,,,,,,,,f,0.1581,space,0.2858,,,,,,,,0,128,128,16,1,,
5b653f0e3662a8000158b83b,2023-06-16_10h03.26.821,phx_ver10,2022.2.5,Win32,59.94485074,,,,,,,,,,,,103,testing_3,sh2x,ai,sh2x_ai,sh2x_1_aishai.wav,sh2x_8_aixai.wav,,FALSE,FALSE,,,,,,,,,,,,,,f,0.4589,space,0.6749,,,,,,,,0,129,129,102,1,,
5b653f0e3662a8000158b83b,2023-06-16_10h03.26.821,phx_ver10,2022.2.5,Win32,59.94485074,,,,,,,,,,,,39,testing_3,zh2sh,e,zh2sh_e,zh2sh_1_ezhe.wav,zh2sh_8_eshe.wav,,FALSE,FALSE,,,,,,,,,,,,,,j,0.3526,space,0.7365,,,,,,,,0,130,130,38,1,,
5b653f0e3662a8000158b83b,2023-06-16_10h03.26.821,phx_ver10,2022.2.5,Win32,59.94485074,,,,,,,,,,,,7,testing_1,zh2x,e,zh2x_e,zh2x_1_ezhe.wav,zh2x_8_exe.wav,,FALSE,TRUE,,,,,,,,,,,,,,j,0.4504,space,0.6904,,,,,,,,0,131,131,6,1,,
5b653f0e3662a8000158b83b,2023-06-16_10h03.26.821,phx_ver10,2022.2.5,Win32,59.94485074,,,,,,,,,,,,135,testing_3,sh2j,e,sh2j_e,sh2j_1_eshe.wav,sh2j_8_eje.wav,,FALSE,FALSE,,,,,,,,,,,,,,j,0.1189,space,0.4627,,,,,,,,0,132,132,134,1,,
5b653f0e3662a8000158b83b,2023-06-16_10h03.26.821,phx_ver10,2022.2.5,Win32,59.94485074,,,,,,,,,,,,49,testing_3,zh2j,a,zh2j_a,zh2j_1_azha.wav,zh2j_1_azha.wav,,TRUE,FALSE,,,,,,,,,,,,,,f,0.3165,space,0.6522,,,,,,,,0,133,133,48,1,,
5b653f0e3662a8000158b83b,2023-06-16_10h03.26.821,phx_ver10,2022.2.5,Win32,59.94485074,,,,,,,,,,,,31,testing_3,zh2sh,ai,zh2sh_ai,zh2sh_1_aizhai.wav,zh2sh_8_aishai.wav,,FALSE,FALSE,,,,,,,,,,,,,,j,0.211,space,0.387,,,,,,,,0,134,134,30,1,,
5b653f0e3662a8000158b83b,2023-06-16_10h03.26.821,phx_ver10,2022.2.5,Win32,59.94485074,,,,,,,,,,,,40,testing_3,zh2sh,e,zh2sh_e,zh2sh_8_eshe.wav,zh2sh_1_ezhe.wav,,FALSE,FALSE,,,,,,,,,,,,,,j,0.4516,space,0.6355,,,,,,,,0,135,135,39,1,,
5b653f0e3662a8000158b83b,2023-06-16_10h03.26.821,phx_ver10,2022.2.5,Win32,59.94485074,,,,,,,,,,,,15,testing_2,zh2x,ai,zh2x_ai,zh2x_1_aizhai.wav,zh2x_8_aixai.wav,,FALSE,FALSE,,,,,,,,,,,,,,f,0.2733,space,0.4995,,,,,,,,0,136,136,14,1,,
5b653f0e3662a8000158b83b,2023-06-16_10h03.26.821,phx_ver10,2022.2.5,Win32,59.94485074,,,,,,,,,,,,115,testing_3,sh2x,ei,sh2x_ei,sh2x_1_eishei.wav,sh2x_8_eixei.wav,,FALSE,FALSE,,,,,,,,,,,,,,f,0.3412,space,0.6452,,,,,,,,0,137,137,114,1,,
5b653f0e3662a8000158b83b,2023-06-16_10h03.26.821,phx_ver10,2022.2.5,Win32,59.94485074,,,,,,,,,,,,139,testing_3,sh2j,ei,sh2j_ei,sh2j_1_eishei.wav,sh2j_8_eijei.wav,,FALSE,FALSE,,,,,,,,,,,,,,j,0.644,space,0.9079,,,,,,,,0,138,138,138,1,,
5b653f0e3662a8000158b83b,2023-06-16_10h03.26.821,phx_ver10,2022.2.5,Win32,59.94485074,,,,,,,,,,,,62,testing_3,zh2j,e,zh2j_e,zh2j_8_eje.wav,zh2j_8_eje.wav,,TRUE,FALSE,,,,,,,,,,,,,,f,0.1274,space,0.3432,,,,,,,,0,139,139,61,1,,
5b653f0e3662a8000158b83b,2023-06-16_10h03.26.821,phx_ver10,2022.2.5,Win32,59.94485074,,,,,,,,,,,,58,testing_3,zh2j,au,zh2j_au,zh2j_8_aujau.wav,zh2j_8_aujau.wav,,TRUE,FALSE,,,,,,,,,,,,,,f,0.1945,space,0.5166,,,,,,,,0,140,140,57,1,,
5b653f0e3662a8000158b83b,2023-06-16_10h03.26.821,phx_ver10,2022.2.5,Win32,59.94485074,,,,,,,,,,,,3,testing_1,zh2x,a,zh2x_a,zh2x_1_azha.wav,zh2x_8_axa.wav,,FALSE,TRUE,,,,,,,,,,,,,,j,0.0371,space,0.213,,,,,,,,0,141,141,2,1,,
5b653f0e3662a8000158b83b,2023-06-16_10h03.26.821,phx_ver10,2022.2.5,Win32,59.94485074,,,,,,,,,,,,10,testing_1,zh2x,i,zh2x_i,zh2x_8_ixi.wav,zh2x_8_ixi_copy.wav,,TRUE,TRUE,,,,,,,,,,,,,,f,0.0786,space,0.2226,,,,,,,,0,142,142,9,1,,
5b653f0e3662a8000158b83b,2023-06-16_10h03.26.821,phx_ver10,2022.2.5,Win32,59.94485074,,,,,,,,,,,,51,testing_3,zh2j,a,zh2j_a,zh2j_1_azha.wav,zh2j_8_aja.wav,,FALSE,FALSE,,,,,,,,,,,,,,f,0.0139,space,0.2858,,,,,,,,0,143,143,50,1,,
5b653f0e3662a8000158b83b,2023-06-16_10h03.26.821,phx_ver10,2022.2.5,Win32,59.94485074,,,,,,,,,,,,,,,,,,,,,,,,,,,,,,,,,,,,,,,,,,,,,,,,,,,space,1.5657
