participant,date,expName,psychopyVersion,OS,frameRate,space_1.keys,space_1.rt,space_2.keys,space_2.rt,space_train.keys,space_train.rt,training.thisRepN,training.thisTrialN,training.thisN,training.thisIndex,training.ran,token_id,task,continuum,vowel,series,sound_1,sound_2,img,same,trained,FJ_attn.keys,FJ_attn.rt,space_attn.keys,space_attn.rt,if_attn_test.thisRepN,if_attn_test.thisTrialN,if_attn_test.thisN,if_attn_test.thisIndex,if_attn_test.ran,space_trans_1.keys,space_trans_1.rt,space_trans_11.keys,space_trans_11.rt,FJ_test.keys,FJ_test.rt,space_test.keys,space_test.rt,testing_pre.thisRepN,testing_pre.thisTrialN,testing_pre.thisN,testing_pre.thisIndex,testing_pre.ran,space_trans_2.keys,space_trans_2.rt,testing_all.thisRepN,testing_all.thisTrialN,testing_all.thisN,testing_all.thisIndex,testing_all.ran,space_ending.keys,space_ending.rt
5b6dbc7d3c02310001e8eb1f,2023-06-16_10h11.08.099,phx_ver10,2022.2.5,Win32,59.96282305,,,,,,,,,,,,,,,,,,,,,,,,,,,,,,,,,,,,,,,,,,,,,,,,,,,,
5b6dbc7d3c02310001e8eb1f,2023-06-16_10h11.08.099,phx_ver10,2022.2.5,Win32,59.96282305,space,3.975,,,,,,,,,,,,,,,,,,,,,,,,,,,,,,,,,,,,,,,,,,,,,,,,,,
5b6dbc7d3c02310001e8eb1f,2023-06-16_10h11.08.099,phx_ver10,2022.2.5,Win32,59.96282305,,,space,1.3841,,,,,,,,,,,,,,,,,,,,,,,,,,,,,,,,,,,,,,,,,,,,,,,,
5b6dbc7d3c02310001e8eb1f,2023-06-16_10h11.08.099,phx_ver10,2022.2.5,Win32,59.96282305,,,,,space,5.3611,0,0,0,8,1,9,training,zh2x,a,zh2x_a,zh2x_5_axa.wav,,axa.jpg,,,,,,,,,,,,,,,,,,,,,,,,,,,,,,,,,
5b6dbc7d3c02310001e8eb1f,2023-06-16_10h11.08.099,phx_ver10,2022.2.5,Win32,59.96282305,,,,,space,1.6037,0,1,1,26,1,27,training,zh2x,e,zh2x_e,zh2x_6_exe.wav,,exe.jpg,,,,,,,,,,,,,,,,,,,,,,,,,,,,,,,,,
5b6dbc7d3c02310001e8eb1f,2023-06-16_10h11.08.099,phx_ver10,2022.2.5,Win32,59.96282305,,,,,space,0.877,0,2,2,19,1,20,training,zh2x,e,zh2x_e,zh2x_2_ezhe.wav,,ezhe.jpg,,,,,,,,,,,,,,,,,,,,,,,,,,,,,,,,,
5b6dbc7d3c02310001e8eb1f,2023-06-16_10h11.08.099,phx_ver10,2022.2.5,Win32,59.96282305,,,,,space,0.3045,0,3,3,25,1,26,training,zh2x,e,zh2x_e,zh2x_6_exe.wav,,exe.jpg,,,,,,,,,,,,,,,,,,,,,,,,,,,,,,,,,
5b6dbc7d3c02310001e8eb1f,2023-06-16_10h11.08.099,phx_ver10,2022.2.5,Win32,59.96282305,,,,,space,0.661,0,4,4,44,1,45,training,zh2x,i,zh2x_i,zh2x_7_ixi.wav,,ixi.jpg,,,,,,,,,,,,,,,,,,,,,,,,,,,,,,,,,
5b6dbc7d3c02310001e8eb1f,2023-06-16_10h11.08.099,phx_ver10,2022.2.5,Win32,59.96282305,,,,,space,0.5686,0,5,5,9,1,10,training,zh2x,a,zh2x_a,zh2x_6_axa.wav,,axa.jpg,,,,,,,,,,,,,,,,,,,,,,,,,,,,,,,,,
5b6dbc7d3c02310001e8eb1f,2023-06-16_10h11.08.099,phx_ver10,2022.2.5,Win32,59.96282305,,,,,,,,,,,,,attn_test,,,,zh2x_1_ezhe.wav,zh2x_8_axa.wav,axa.jpg,RIGHT,,j,0.9084,space,1.6037,0,0,0,0,1,,,,,,,,,,,,,,,,,,,,,,
5b6dbc7d3c02310001e8eb1f,2023-06-16_10h11.08.099,phx_ver10,2022.2.5,Win32,59.96282305,,,,,space,2.0525,0,6,6,17,1,18,training,zh2x,e,zh2x_e,zh2x_2_ezhe.wav,,ezhe.jpg,,,,,,,,,,,,,,,,,,,,,,,,,,,,,,,,,
5b6dbc7d3c02310001e8eb1f,2023-06-16_10h11.08.099,phx_ver10,2022.2.5,Win32,59.96282305,,,,,space,0.3169,0,7,7,16,1,17,training,zh2x,e,zh2x_e,zh2x_1_ezhe.wav,,ezhe.jpg,,,,,,,,,,,,,,,,,,,,,,,,,,,,,,,,,
5b6dbc7d3c02310001e8eb1f,2023-06-16_10h11.08.099,phx_ver10,2022.2.5,Win32,59.96282305,,,,,space,0.1702,0,8,8,22,1,23,training,zh2x,e,zh2x_e,zh2x_3_ezhe.wav,,ezhe.jpg,,,,,,,,,,,,,,,,,,,,,,,,,,,,,,,,,
5b6dbc7d3c02310001e8eb1f,2023-06-16_10h11.08.099,phx_ver10,2022.2.5,Win32,59.96282305,,,,,space,0.2524,0,9,9,18,1,19,training,zh2x,e,zh2x_e,zh2x_2_ezhe.wav,,ezhe.jpg,,,,,,,,,,,,,,,,,,,,,,,,,,,,,,,,,
5b6dbc7d3c02310001e8eb1f,2023-06-16_10h11.08.099,phx_ver10,2022.2.5,Win32,59.96282305,,,,,space,0.2678,0,10,10,20,1,21,training,zh2x,e,zh2x_e,zh2x_2_ezhe.wav,,ezhe.jpg,,,,,,,,,,,,,,,,,,,,,,,,,,,,,,,,,
5b6dbc7d3c02310001e8eb1f,2023-06-16_10h11.08.099,phx_ver10,2022.2.5,Win32,59.96282305,,,,,space,0.4533,0,11,11,45,1,46,training,zh2x,i,zh2x_i,zh2x_7_ixi.wav,,ixi.jpg,,,,,,,,,,,,,,,,,,,,,,,,,,,,,,,,,
5b6dbc7d3c02310001e8eb1f,2023-06-16_10h11.08.099,phx_ver10,2022.2.5,Win32,59.96282305,,,,,,,,,,,,,attn_test,,,,zh2x_8_axa.wav,zh2x_1_ezhe.wav,ezhe.jpg,RIGHT,,j,0.1526,space,0.7922,0,0,0,0,1,,,,,,,,,,,,,,,,,,,,,,
5b6dbc7d3c02310001e8eb1f,2023-06-16_10h11.08.099,phx_ver10,2022.2.5,Win32,59.96282305,,,,,space,0.4523,0,12,12,32,1,33,training,zh2x,i,zh2x_i,zh2x_1_izhi.wav,,izhi.jpg,,,,,,,,,,,,,,,,,,,,,,,,,,,,,,,,,
5b6dbc7d3c02310001e8eb1f,2023-06-16_10h11.08.099,phx_ver10,2022.2.5,Win32,59.96282305,,,,,space,0.2776,0,13,13,3,1,4,training,zh2x,a,zh2x_a,zh2x_2_azha.wav,,azha.jpg,,,,,,,,,,,,,,,,,,,,,,,,,,,,,,,,,
5b6dbc7d3c02310001e8eb1f,2023-06-16_10h11.08.099,phx_ver10,2022.2.5,Win32,59.96282305,,,,,space,0.2598,0,14,14,30,1,31,training,zh2x,e,zh2x_e,zh2x_7_exe.wav,,exe.jpg,,,,,,,,,,,,,,,,,,,,,,,,,,,,,,,,,
5b6dbc7d3c02310001e8eb1f,2023-06-16_10h11.08.099,phx_ver10,2022.2.5,Win32,59.96282305,,,,,space,0.1538,0,15,15,4,1,5,training,zh2x,a,zh2x_a,zh2x_2_azha.wav,,azha.jpg,,,,,,,,,,,,,,,,,,,,,,,,,,,,,,,,,
5b6dbc7d3c02310001e8eb1f,2023-06-16_10h11.08.099,phx_ver10,2022.2.5,Win32,59.96282305,,,,,space,0.06,0,16,16,36,1,37,training,zh2x,i,zh2x_i,zh2x_2_izhi.wav,,izhi.jpg,,,,,,,,,,,,,,,,,,,,,,,,,,,,,,,,,
5b6dbc7d3c02310001e8eb1f,2023-06-16_10h11.08.099,phx_ver10,2022.2.5,Win32,59.96282305,,,,,space,0.0422,0,17,17,12,1,13,training,zh2x,a,zh2x_a,zh2x_7_axa.wav,,axa.jpg,,,,,,,,,,,,,,,,,,,,,,,,,,,,,,,,,
5b6dbc7d3c02310001e8eb1f,2023-06-16_10h11.08.099,phx_ver10,2022.2.5,Win32,59.96282305,,,,,,,,,,,,,attn_test,,,,zh2x_8_axa.wav,zh2x_1_ezhe.wav,axa.jpg,LEFT,,f,0.1279,space,0.7607,0,0,0,0,1,,,,,,,,,,,,,,,,,,,,,,
5b6dbc7d3c02310001e8eb1f,2023-06-16_10h11.08.099,phx_ver10,2022.2.5,Win32,59.96282305,,,,,space,0.2563,0,18,18,14,1,15,training,zh2x,a,zh2x_a,zh2x_7_axa.wav,,axa.jpg,,,,,,,,,,,,,,,,,,,,,,,,,,,,,,,,,
5b6dbc7d3c02310001e8eb1f,2023-06-16_10h11.08.099,phx_ver10,2022.2.5,Win32,59.96282305,,,,,space,0.3112,0,19,19,2,1,3,training,zh2x,a,zh2x_a,zh2x_2_azha.wav,,azha.jpg,,,,,,,,,,,,,,,,,,,,,,,,,,,,,,,,,
5b6dbc7d3c02310001e8eb1f,2023-06-16_10h11.08.099,phx_ver10,2022.2.5,Win32,59.96282305,,,,,space,0.4731,0,20,20,35,1,36,training,zh2x,i,zh2x_i,zh2x_2_izhi.wav,,izhi.jpg,,,,,,,,,,,,,,,,,,,,,,,,,,,,,,,,,
5b6dbc7d3c02310001e8eb1f,2023-06-16_10h11.08.099,phx_ver10,2022.2.5,Win32,59.96282305,,,,,space,0.152,0,21,21,47,1,48,training,zh2x,i,zh2x_i,zh2x_8_ixi.wav,,ixi.jpg,,,,,,,,,,,,,,,,,,,,,,,,,,,,,,,,,
5b6dbc7d3c02310001e8eb1f,2023-06-16_10h11.08.099,phx_ver10,2022.2.5,Win32,59.96282305,,,,,space,0.0345,0,22,22,7,1,8,training,zh2x,a,zh2x_a,zh2x_4_azha.wav,,azha.jpg,,,,,,,,,,,,,,,,,,,,,,,,,,,,,,,,,
5b6dbc7d3c02310001e8eb1f,2023-06-16_10h11.08.099,phx_ver10,2022.2.5,Win32,59.96282305,,,,,space,0.1268,0,23,23,40,1,41,training,zh2x,i,zh2x_i,zh2x_5_ixi.wav,,ixi.jpg,,,,,,,,,,,,,,,,,,,,,,,,,,,,,,,,,
5b6dbc7d3c02310001e8eb1f,2023-06-16_10h11.08.099,phx_ver10,2022.2.5,Win32,59.96282305,,,,,,,,,,,,,attn_test,,,,zh2x_1_izhi.wav,zh2x_8_exe.wav,izhi.jpg,LEFT,,f,0.5681,space,0.9683,0,0,0,0,1,,,,,,,,,,,,,,,,,,,,,,
5b6dbc7d3c02310001e8eb1f,2023-06-16_10h11.08.099,phx_ver10,2022.2.5,Win32,59.96282305,,,,,space,0.399,0,24,24,37,1,38,training,zh2x,i,zh2x_i,zh2x_3_izhi.wav,,izhi.jpg,,,,,,,,,,,,,,,,,,,,,,,,,,,,,,,,,
5b6dbc7d3c02310001e8eb1f,2023-06-16_10h11.08.099,phx_ver10,2022.2.5,Win32,59.96282305,,,,,space,0.2245,0,25,25,27,1,28,training,zh2x,e,zh2x_e,zh2x_7_exe.wav,,exe.jpg,,,,,,,,,,,,,,,,,,,,,,,,,,,,,,,,,
5b6dbc7d3c02310001e8eb1f,2023-06-16_10h11.08.099,phx_ver10,2022.2.5,Win32,59.96282305,,,,,space,0.2702,0,26,26,41,1,42,training,zh2x,i,zh2x_i,zh2x_6_ixi.wav,,ixi.jpg,,,,,,,,,,,,,,,,,,,,,,,,,,,,,,,,,
5b6dbc7d3c02310001e8eb1f,2023-06-16_10h11.08.099,phx_ver10,2022.2.5,Win32,59.96282305,,,,,space,0.4615,0,27,27,5,1,6,training,zh2x,a,zh2x_a,zh2x_3_azha.wav,,azha.jpg,,,,,,,,,,,,,,,,,,,,,,,,,,,,,,,,,
5b6dbc7d3c02310001e8eb1f,2023-06-16_10h11.08.099,phx_ver10,2022.2.5,Win32,59.96282305,,,,,space,0.2677,0,28,28,6,1,7,training,zh2x,a,zh2x_a,zh2x_3_azha.wav,,azha.jpg,,,,,,,,,,,,,,,,,,,,,,,,,,,,,,,,,
5b6dbc7d3c02310001e8eb1f,2023-06-16_10h11.08.099,phx_ver10,2022.2.5,Win32,59.96282305,,,,,space,0.2553,0,29,29,13,1,14,training,zh2x,a,zh2x_a,zh2x_7_axa.wav,,axa.jpg,,,,,,,,,,,,,,,,,,,,,,,,,,,,,,,,,
5b6dbc7d3c02310001e8eb1f,2023-06-16_10h11.08.099,phx_ver10,2022.2.5,Win32,59.96282305,,,,,,,,,,,,,attn_test,,,,zh2x_8_axa.wav,zh2x_1_izhi.wav,axa.jpg,LEFT,,f,0.469,space,0.8691,0,0,0,0,1,,,,,,,,,,,,,,,,,,,,,,
5b6dbc7d3c02310001e8eb1f,2023-06-16_10h11.08.099,phx_ver10,2022.2.5,Win32,59.96282305,,,,,space,0.4949,0,30,30,33,1,34,training,zh2x,i,zh2x_i,zh2x_2_izhi.wav,,izhi.jpg,,,,,,,,,,,,,,,,,,,,,,,,,,,,,,,,,
5b6dbc7d3c02310001e8eb1f,2023-06-16_10h11.08.099,phx_ver10,2022.2.5,Win32,59.96282305,,,,,space,0.2581,0,31,31,29,1,30,training,zh2x,e,zh2x_e,zh2x_7_exe.wav,,exe.jpg,,,,,,,,,,,,,,,,,,,,,,,,,,,,,,,,,
5b6dbc7d3c02310001e8eb1f,2023-06-16_10h11.08.099,phx_ver10,2022.2.5,Win32,59.96282305,,,,,space,0.103,0,32,32,24,1,25,training,zh2x,e,zh2x_e,zh2x_5_exe.wav,,exe.jpg,,,,,,,,,,,,,,,,,,,,,,,,,,,,,,,,,
5b6dbc7d3c02310001e8eb1f,2023-06-16_10h11.08.099,phx_ver10,2022.2.5,Win32,59.96282305,,,,,space,0.14,0,33,33,11,1,12,training,zh2x,a,zh2x_a,zh2x_7_axa.wav,,axa.jpg,,,,,,,,,,,,,,,,,,,,,,,,,,,,,,,,,
5b6dbc7d3c02310001e8eb1f,2023-06-16_10h11.08.099,phx_ver10,2022.2.5,Win32,59.96282305,,,,,space,0.1418,0,34,34,15,1,16,training,zh2x,a,zh2x_a,zh2x_8_axa.wav,,axa.jpg,,,,,,,,,,,,,,,,,,,,,,,,,,,,,,,,,
5b6dbc7d3c02310001e8eb1f,2023-06-16_10h11.08.099,phx_ver10,2022.2.5,Win32,59.96282305,,,,,space,0.2091,0,35,35,46,1,47,training,zh2x,i,zh2x_i,zh2x_7_ixi.wav,,ixi.jpg,,,,,,,,,,,,,,,,,,,,,,,,,,,,,,,,,
5b6dbc7d3c02310001e8eb1f,2023-06-16_10h11.08.099,phx_ver10,2022.2.5,Win32,59.96282305,,,,,,,,,,,,,attn_test,,,,zh2x_1_izhi.wav,zh2x_8_exe.wav,exe.jpg,RIGHT,,j,2.0237,space,2.5269,0,0,0,0,1,,,,,,,,,,,,,,,,,,,,,,
5b6dbc7d3c02310001e8eb1f,2023-06-16_10h11.08.099,phx_ver10,2022.2.5,Win32,59.96282305,,,,,space,0.2523,0,36,36,42,1,43,training,zh2x,i,zh2x_i,zh2x_6_ixi.wav,,ixi.jpg,,,,,,,,,,,,,,,,,,,,,,,,,,,,,,,,,
5b6dbc7d3c02310001e8eb1f,2023-06-16_10h11.08.099,phx_ver10,2022.2.5,Win32,59.96282305,,,,,space,0.2684,0,37,37,0,1,1,training,zh2x,a,zh2x_a,zh2x_1_azha.wav,,azha.jpg,,,,,,,,,,,,,,,,,,,,,,,,,,,,,,,,,
5b6dbc7d3c02310001e8eb1f,2023-06-16_10h11.08.099,phx_ver10,2022.2.5,Win32,59.96282305,,,,,space,0.3147,0,38,38,28,1,29,training,zh2x,e,zh2x_e,zh2x_7_exe.wav,,exe.jpg,,,,,,,,,,,,,,,,,,,,,,,,,,,,,,,,,
5b6dbc7d3c02310001e8eb1f,2023-06-16_10h11.08.099,phx_ver10,2022.2.5,Win32,59.96282305,,,,,space,0.1902,0,39,39,38,1,39,training,zh2x,i,zh2x_i,zh2x_3_izhi.wav,,izhi.jpg,,,,,,,,,,,,,,,,,,,,,,,,,,,,,,,,,
5b6dbc7d3c02310001e8eb1f,2023-06-16_10h11.08.099,phx_ver10,2022.2.5,Win32,59.96282305,,,,,space,0.3088,0,40,40,43,1,44,training,zh2x,i,zh2x_i,zh2x_7_ixi.wav,,ixi.jpg,,,,,,,,,,,,,,,,,,,,,,,,,,,,,,,,,
5b6dbc7d3c02310001e8eb1f,2023-06-16_10h11.08.099,phx_ver10,2022.2.5,Win32,59.96282305,,,,,space,0.1224,0,41,41,39,1,40,training,zh2x,i,zh2x_i,zh2x_4_izhi.wav,,izhi.jpg,,,,,,,,,,,,,,,,,,,,,,,,,,,,,,,,,
5b6dbc7d3c02310001e8eb1f,2023-06-16_10h11.08.099,phx_ver10,2022.2.5,Win32,59.96282305,,,,,,,,,,,,,attn_test,,,,zh2x_8_exe.wav,zh2x_1_ezhe.wav,exe.jpg,LEFT,,f,1.492,space,1.7715,0,0,0,0,1,,,,,,,,,,,,,,,,,,,,,,
5b6dbc7d3c02310001e8eb1f,2023-06-16_10h11.08.099,phx_ver10,2022.2.5,Win32,59.96282305,,,,,space,0.2681,0,42,42,1,1,2,training,zh2x,a,zh2x_a,zh2x_2_azha.wav,,azha.jpg,,,,,,,,,,,,,,,,,,,,,,,,,,,,,,,,,
5b6dbc7d3c02310001e8eb1f,2023-06-16_10h11.08.099,phx_ver10,2022.2.5,Win32,59.96282305,,,,,space,0.0639,0,43,43,31,1,32,training,zh2x,e,zh2x_e,zh2x_8_exe.wav,,exe.jpg,,,,,,,,,,,,,,,,,,,,,,,,,,,,,,,,,
5b6dbc7d3c02310001e8eb1f,2023-06-16_10h11.08.099,phx_ver10,2022.2.5,Win32,59.96282305,,,,,space,0.2762,0,44,44,23,1,24,training,zh2x,e,zh2x_e,zh2x_4_ezhe.wav,,ezhe.jpg,,,,,,,,,,,,,,,,,,,,,,,,,,,,,,,,,
5b6dbc7d3c02310001e8eb1f,2023-06-16_10h11.08.099,phx_ver10,2022.2.5,Win32,59.96282305,,,,,space,0.043,0,45,45,21,1,22,training,zh2x,e,zh2x_e,zh2x_3_ezhe.wav,,ezhe.jpg,,,,,,,,,,,,,,,,,,,,,,,,,,,,,,,,,
5b6dbc7d3c02310001e8eb1f,2023-06-16_10h11.08.099,phx_ver10,2022.2.5,Win32,59.96282305,,,,,space,0.2503,0,46,46,10,1,11,training,zh2x,a,zh2x_a,zh2x_6_axa.wav,,axa.jpg,,,,,,,,,,,,,,,,,,,,,,,,,,,,,,,,,
5b6dbc7d3c02310001e8eb1f,2023-06-16_10h11.08.099,phx_ver10,2022.2.5,Win32,59.96282305,,,,,space,0.0246,0,47,47,34,1,35,training,zh2x,i,zh2x_i,zh2x_2_izhi.wav,,izhi.jpg,,,,,,,,,,,,,,,,,,,,,,,,,,,,,,,,,
5b6dbc7d3c02310001e8eb1f,2023-06-16_10h11.08.099,phx_ver10,2022.2.5,Win32,59.96282305,,,,,,,,,,,,,attn_test,,,,zh2x_8_exe.wav,zh2x_1_ezhe.wav,ezhe.jpg,RIGHT,,j,0.3539,space,0.7577,,,,,,,,,,,,,,,,,,,,,,,,,,,
5b6dbc7d3c02310001e8eb1f,2023-06-16_10h11.08.099,phx_ver10,2022.2.5,Win32,59.96282305,,,,,,,,,,,,,,,,,,,,,,,,,,,,,,,space,2.7128,,,,,,,,,,,,,,,,,,,,
5b6dbc7d3c02310001e8eb1f,2023-06-16_10h11.08.099,phx_ver10,2022.2.5,Win32,59.96282305,,,,,,,,,,,,,,,,,,,,,,,,,,,,,,,,,space,6.7491,,,,,,,,,,,,,,,,,,
5b6dbc7d3c02310001e8eb1f,2023-06-16_10h11.08.099,phx_ver10,2022.2.5,Win32,59.96282305,,,,,,,,,,,,3,testing_pre,,,,afa.wav,aha.wav,,FALSE,,,,,,,,,,,,,,,j,1.0947,space,1.4788,0,0,0,2,1,,,,,,,,,
5b6dbc7d3c02310001e8eb1f,2023-06-16_10h11.08.099,phx_ver10,2022.2.5,Win32,59.96282305,,,,,,,,,,,,4,testing_pre,,,,eihei.wav,eihei.wav,,TRUE,,,,,,,,,,,,,,,f,0.5086,space,0.8206,0,1,1,3,1,,,,,,,,,
5b6dbc7d3c02310001e8eb1f,2023-06-16_10h11.08.099,phx_ver10,2022.2.5,Win32,59.96282305,,,,,,,,,,,,1,testing_pre,,,,ifi.wav,ifi.wav,,TRUE,,,,,,,,,,,,,,,f,0.3588,space,0.6781,0,2,2,0,1,,,,,,,,,
5b6dbc7d3c02310001e8eb1f,2023-06-16_10h11.08.099,phx_ver10,2022.2.5,Win32,59.96282305,,,,,,,,,,,,2,testing_pre,,,,auhau.wav,aufau.wav,,FALSE,,,,,,,,,,,,,,,j,2.2816,space,2.5381,0,3,3,1,1,,,,,,,,,
5b6dbc7d3c02310001e8eb1f,2023-06-16_10h11.08.099,phx_ver10,2022.2.5,Win32,59.96282305,,,,,,,,,,,,5,testing_pre,,,,ihi.wav,ifi.wav,,FALSE,,,,,,,,,,,,,,,j,0.0522,space,0.4362,0,4,4,4,1,,,,,,,,,
5b6dbc7d3c02310001e8eb1f,2023-06-16_10h11.08.099,phx_ver10,2022.2.5,Win32,59.96282305,,,,,,,,,,,,,,,,,,,,,,,,,,,,,,,,,,,,,,,,,,,,space,0.9297,,,,,,,
5b6dbc7d3c02310001e8eb1f,2023-06-16_10h11.08.099,phx_ver10,2022.2.5,Win32,59.96282305,,,,,,,,,,,,89,testing_3,j2x,ei,j2x_ei,j2x_1_eijei.wav,j2x_1_eijei.wav,,TRUE,FALSE,,,,,,,,,,,,,,f,0.3398,space,0.6119,,,,,,,,0,0,0,88,1,,
5b6dbc7d3c02310001e8eb1f,2023-06-16_10h11.08.099,phx_ver10,2022.2.5,Win32,59.96282305,,,,,,,,,,,,135,testing_3,sh2j,e,sh2j_e,sh2j_1_eshe.wav,sh2j_8_eje.wav,,FALSE,FALSE,,,,,,,,,,,,,,j,0.3748,space,0.6867,,,,,,,,0,1,1,134,1,,
5b6dbc7d3c02310001e8eb1f,2023-06-16_10h11.08.099,phx_ver10,2022.2.5,Win32,59.96282305,,,,,,,,,,,,54,testing_3,zh2j,ai,zh2j_ai,zh2j_8_aijai.wav,zh2j_8_aijai.wav,,TRUE,FALSE,,,,,,,,,,,,,,f,0.2874,space,0.6237,,,,,,,,0,2,2,53,1,,
5b6dbc7d3c02310001e8eb1f,2023-06-16_10h11.08.099,phx_ver10,2022.2.5,Win32,59.96282305,,,,,,,,,,,,29,testing_3,zh2sh,ai,zh2sh_ai,zh2sh_1_aizhai.wav,zh2sh_1_aizhai.wav,,TRUE,FALSE,,,,,,,,,,,,,,f,1.6382,space,1.893,,,,,,,,0,3,3,28,1,,
5b6dbc7d3c02310001e8eb1f,2023-06-16_10h11.08.099,phx_ver10,2022.2.5,Win32,59.96282305,,,,,,,,,,,,123,testing_3,sh2j,a,sh2j_a,sh2j_1_asha.wav,sh2j_8_aja.wav,,FALSE,FALSE,,,,,,,,,,,,,,j,0.2355,space,0.5354,,,,,,,,0,4,4,122,1,,
5b6dbc7d3c02310001e8eb1f,2023-06-16_10h11.08.099,phx_ver10,2022.2.5,Win32,59.96282305,,,,,,,,,,,,82,testing_3,j2x,au,j2x_au,j2x_8_auxau.wav,j2x_8_auxau.wav,,TRUE,FALSE,,,,,,,,,,,,,,j,0.4017,space,0.7021,,,,,,,,0,5,5,81,1,,
5b6dbc7d3c02310001e8eb1f,2023-06-16_10h11.08.099,phx_ver10,2022.2.5,Win32,59.96282305,,,,,,,,,,,,65,testing_3,zh2j,ei,zh2j_ei,zh2j_1_eizhei.wav,zh2j_1_eizhei.wav,,TRUE,FALSE,,,,,,,,,,,,,,j,0.2527,space,0.6125,,,,,,,,0,6,6,64,1,,
5b6dbc7d3c02310001e8eb1f,2023-06-16_10h11.08.099,phx_ver10,2022.2.5,Win32,59.96282305,,,,,,,,,,,,141,testing_3,sh2j,i,sh2j_i,sh2j_1_ishi.wav,sh2j_1_ishi.wav,,TRUE,FALSE,,,,,,,,,,,,,,f,1.0159,space,1.3256,,,,,,,,0,7,7,140,1,,
5b6dbc7d3c02310001e8eb1f,2023-06-16_10h11.08.099,phx_ver10,2022.2.5,Win32,59.96282305,,,,,,,,,,,,22,testing_2,zh2x,ei,zh2x_ei,zh2x_8_eixei.wav,zh2x_8_eixei.wav,,TRUE,FALSE,,,,,,,,,,,,,,f,0.1166,space,0.4296,,,,,,,,0,8,8,21,1,,
5b6dbc7d3c02310001e8eb1f,2023-06-16_10h11.08.099,phx_ver10,2022.2.5,Win32,59.96282305,,,,,,,,,,,,75,testing_3,j2x,a,j2x_a,j2x_1_aja.wav,j2x_8_axa.wav,,FALSE,FALSE,,,,,,,,,,,,,,j,0.0008,space,0.4518,,,,,,,,0,9,9,74,1,,
5b6dbc7d3c02310001e8eb1f,2023-06-16_10h11.08.099,phx_ver10,2022.2.5,Win32,59.96282305,,,,,,,,,,,,1,testing_1,zh2x,a,zh2x_a,zh2x_1_azha.wav,zh2x_1_azha_copy.wav,,TRUE,TRUE,,,,,,,,,,,,,,j,0.0501,space,0.4675,,,,,,,,0,10,10,0,1,,
5b6dbc7d3c02310001e8eb1f,2023-06-16_10h11.08.099,phx_ver10,2022.2.5,Win32,59.96282305,,,,,,,,,,,,120,testing_3,sh2x,i,sh2x_i,sh2x_8_ixi.wav,sh2x_1_ishi.wav,,FALSE,FALSE,,,,,,,,,,,,,,j,0.6994,space,1.0383,,,,,,,,0,11,11,119,1,,
5b6dbc7d3c02310001e8eb1f,2023-06-16_10h11.08.099,phx_ver10,2022.2.5,Win32,59.96282305,,,,,,,,,,,,113,testing_3,sh2x,ei,sh2x_ei,sh2x_1_eishei.wav,sh2x_1_eishei.wav,,TRUE,FALSE,,,,,,,,,,,,,,f,0.1356,space,0.4582,,,,,,,,0,12,12,112,1,,
5b6dbc7d3c02310001e8eb1f,2023-06-16_10h11.08.099,phx_ver10,2022.2.5,Win32,59.96282305,,,,,,,,,,,,139,testing_3,sh2j,ei,sh2j_ei,sh2j_1_eishei.wav,sh2j_8_eijei.wav,,FALSE,FALSE,,,,,,,,,,,,,,j,0.0045,space,0.3523,,,,,,,,0,13,13,138,1,,
5b6dbc7d3c02310001e8eb1f,2023-06-16_10h11.08.099,phx_ver10,2022.2.5,Win32,59.96282305,,,,,,,,,,,,115,testing_3,sh2x,ei,sh2x_ei,sh2x_1_eishei.wav,sh2x_8_eixei.wav,,FALSE,FALSE,,,,,,,,,,,,,,j,0.3615,space,0.6815,,,,,,,,0,14,14,114,1,,
5b6dbc7d3c02310001e8eb1f,2023-06-16_10h11.08.099,phx_ver10,2022.2.5,Win32,59.96282305,,,,,,,,,,,,103,testing_3,sh2x,ai,sh2x_ai,sh2x_1_aishai.wav,sh2x_8_aixai.wav,,FALSE,FALSE,,,,,,,,,,,,,,j,0.0637,space,0.4198,,,,,,,,0,15,15,102,1,,
5b6dbc7d3c02310001e8eb1f,2023-06-16_10h11.08.099,phx_ver10,2022.2.5,Win32,59.96282305,,,,,,,,,,,,114,testing_3,sh2x,ei,sh2x_ei,sh2x_8_eixei.wav,sh2x_8_eixei.wav,,TRUE,FALSE,,,,,,,,,,,,,,f,0.1205,space,0.4529,,,,,,,,0,16,16,113,1,,
5b6dbc7d3c02310001e8eb1f,2023-06-16_10h11.08.099,phx_ver10,2022.2.5,Win32,59.96282305,,,,,,,,,,,,49,testing_3,zh2j,a,zh2j_a,zh2j_1_azha.wav,zh2j_1_azha.wav,,TRUE,FALSE,,,,,,,,,,,,,,f,0.0131,space,0.3345,,,,,,,,0,17,17,48,1,,
5b6dbc7d3c02310001e8eb1f,2023-06-16_10h11.08.099,phx_ver10,2022.2.5,Win32,59.96282305,,,,,,,,,,,,62,testing_3,zh2j,e,zh2j_e,zh2j_8_eje.wav,zh2j_8_eje.wav,,TRUE,FALSE,,,,,,,,,,,,,,f,0.1422,space,0.4462,,,,,,,,0,18,18,61,1,,
5b6dbc7d3c02310001e8eb1f,2023-06-16_10h11.08.099,phx_ver10,2022.2.5,Win32,59.96282305,,,,,,,,,,,,95,testing_3,j2x,i,j2x_i,j2x_1_iji.wav,j2x_8_ixi.wav,,FALSE,FALSE,,,,,,,,,,,,,,j,0.3775,space,0.6254,,,,,,,,0,19,19,94,1,,
5b6dbc7d3c02310001e8eb1f,2023-06-16_10h11.08.099,phx_ver10,2022.2.5,Win32,59.96282305,,,,,,,,,,,,25,testing_3,zh2sh,a,zh2sh_a,zh2sh_1_azha.wav,zh2sh_1_azha.wav,,TRUE,FALSE,,,,,,,,,,,,,,f,0.1375,space,0.456,,,,,,,,0,20,20,24,1,,
5b6dbc7d3c02310001e8eb1f,2023-06-16_10h11.08.099,phx_ver10,2022.2.5,Win32,59.96282305,,,,,,,,,,,,121,testing_3,sh2j,a,sh2j_a,sh2j_1_asha.wav,sh2j_1_asha.wav,,TRUE,FALSE,,,,,,,,,,,,,,f,0.5925,space,0.7859,,,,,,,,0,21,21,120,1,,
5b6dbc7d3c02310001e8eb1f,2023-06-16_10h11.08.099,phx_ver10,2022.2.5,Win32,59.96282305,,,,,,,,,,,,32,testing_3,zh2sh,ai,zh2sh_ai,zh2sh_8_aishai.wav,zh2sh_1_aizhai.wav,,FALSE,FALSE,,,,,,,,,,,,,,j,0.3513,space,0.6312,,,,,,,,0,22,22,31,1,,
5b6dbc7d3c02310001e8eb1f,2023-06-16_10h11.08.099,phx_ver10,2022.2.5,Win32,59.96282305,,,,,,,,,,,,35,testing_3,zh2sh,au,zh2sh_au,zh2sh_1_auzhau.wav,zh2sh_8_aushau.wav,,FALSE,FALSE,,,,,,,,,,,,,,j,0.2988,space,0.622,,,,,,,,0,23,23,34,1,,
5b6dbc7d3c02310001e8eb1f,2023-06-16_10h11.08.099,phx_ver10,2022.2.5,Win32,59.96282305,,,,,,,,,,,,102,testing_3,sh2x,ai,sh2x_ai,sh2x_8_aixai.wav,sh2x_8_aixai.wav,,TRUE,FALSE,,,,,,,,,,,,,,j,0.1174,space,0.4935,,,,,,,,0,24,24,101,1,,
5b6dbc7d3c02310001e8eb1f,2023-06-16_10h11.08.099,phx_ver10,2022.2.5,Win32,59.96282305,,,,,,,,,,,,80,testing_3,j2x,ai,j2x_ai,j2x_8_aixai.wav,j2x_1_aijai.wav,,FALSE,FALSE,,,,,,,,,,,,,,j,0.5214,space,0.7877,,,,,,,,0,25,25,79,1,,
5b6dbc7d3c02310001e8eb1f,2023-06-16_10h11.08.099,phx_ver10,2022.2.5,Win32,59.96282305,,,,,,,,,,,,76,testing_3,j2x,a,j2x_a,j2x_8_axa.wav,j2x_1_aja.wav,,FALSE,FALSE,,,,,,,,,,,,,,j,0.0439,space,0.3873,,,,,,,,0,26,26,75,1,,
5b6dbc7d3c02310001e8eb1f,2023-06-16_10h11.08.099,phx_ver10,2022.2.5,Win32,59.96282305,,,,,,,,,,,,50,testing_3,zh2j,a,zh2j_a,zh2j_8_aja.wav,zh2j_8_aja.wav,,TRUE,FALSE,,,,,,,,,,,,,,f,0.346,space,0.61,,,,,,,,0,27,27,49,1,,
5b6dbc7d3c02310001e8eb1f,2023-06-16_10h11.08.099,phx_ver10,2022.2.5,Win32,59.96282305,,,,,,,,,,,,116,testing_3,sh2x,ei,sh2x_ei,sh2x_8_eixei.wav,sh2x_1_eishei.wav,,FALSE,FALSE,,,,,,,,,,,,,,j,0.2057,space,0.5413,,,,,,,,0,28,28,115,1,,
5b6dbc7d3c02310001e8eb1f,2023-06-16_10h11.08.099,phx_ver10,2022.2.5,Win32,59.96282305,,,,,,,,,,,,110,testing_3,sh2x,e,sh2x_e,sh2x_8_exe.wav,sh2x_8_exe.wav,,TRUE,FALSE,,,,,,,,,,,,,,f,0.2924,space,0.5882,,,,,,,,0,29,29,109,1,,
5b6dbc7d3c02310001e8eb1f,2023-06-16_10h11.08.099,phx_ver10,2022.2.5,Win32,59.96282305,,,,,,,,,,,,118,testing_3,sh2x,i,sh2x_i,sh2x_8_ixi.wav,sh2x_8_ixi.wav,,TRUE,FALSE,,,,,,,,,,,,,,f,0.1869,space,0.443,,,,,,,,0,30,30,117,1,,
5b6dbc7d3c02310001e8eb1f,2023-06-16_10h11.08.099,phx_ver10,2022.2.5,Win32,59.96282305,,,,,,,,,,,,12,testing_1,zh2x,i,zh2x_i,zh2x_8_ixi.wav,zh2x_1_izhi.wav,,FALSE,TRUE,,,,,,,,,,,,,,j,0.2393,space,0.4874,,,,,,,,0,31,31,11,1,,
5b6dbc7d3c02310001e8eb1f,2023-06-16_10h11.08.099,phx_ver10,2022.2.5,Win32,59.96282305,,,,,,,,,,,,39,testing_3,zh2sh,e,zh2sh_e,zh2sh_1_ezhe.wav,zh2sh_8_eshe.wav,,FALSE,FALSE,,,,,,,,,,,,,,j,0.1447,space,0.4889,,,,,,,,0,32,32,38,1,,
5b6dbc7d3c02310001e8eb1f,2023-06-16_10h11.08.099,phx_ver10,2022.2.5,Win32,59.96282305,,,,,,,,,,,,105,testing_3,sh2x,au,sh2x_au,sh2x_1_aushau.wav,sh2x_1_aushau.wav,,TRUE,FALSE,,,,,,,,,,,,,,f,0.2852,space,0.4874,,,,,,,,0,33,33,104,1,,
5b6dbc7d3c02310001e8eb1f,2023-06-16_10h11.08.099,phx_ver10,2022.2.5,Win32,59.96282305,,,,,,,,,,,,73,testing_3,j2x,a,j2x_a,j2x_1_aja.wav,j2x_1_aja.wav,,TRUE,FALSE,,,,,,,,,,,,,,j,0.2419,space,0.561,,,,,,,,0,34,34,72,1,,
5b6dbc7d3c02310001e8eb1f,2023-06-16_10h11.08.099,phx_ver10,2022.2.5,Win32,59.96282305,,,,,,,,,,,,117,testing_3,sh2x,i,sh2x_i,sh2x_1_ishi.wav,sh2x_1_ishi.wav,,TRUE,FALSE,,,,,,,,,,,,,,f,0.3189,space,0.6263,,,,,,,,0,35,35,116,1,,
5b6dbc7d3c02310001e8eb1f,2023-06-16_10h11.08.099,phx_ver10,2022.2.5,Win32,59.96282305,,,,,,,,,,,,128,testing_3,sh2j,ai,sh2j_ai,sh2j_8_aijai.wav,sh2j_1_aishai.wav,,FALSE,FALSE,,,,,,,,,,,,,,j,0.0045,space,0.2602,,,,,,,,0,36,36,127,1,,
5b6dbc7d3c02310001e8eb1f,2023-06-16_10h11.08.099,phx_ver10,2022.2.5,Win32,59.96282305,,,,,,,,,,,,81,testing_3,j2x,au,j2x_au,j2x_1_aujau.wav,j2x_1_aujau.wav,,TRUE,FALSE,,,,,,,,,,,,,,f,0.1439,space,0.488,,,,,,,,0,37,37,80,1,,
5b6dbc7d3c02310001e8eb1f,2023-06-16_10h11.08.099,phx_ver10,2022.2.5,Win32,59.96282305,,,,,,,,,,,,30,testing_3,zh2sh,ai,zh2sh_ai,zh2sh_8_aishai.wav,zh2sh_8_aishai.wav,,TRUE,FALSE,,,,,,,,,,,,,,f,0.1347,space,0.4499,,,,,,,,0,38,38,29,1,,
5b6dbc7d3c02310001e8eb1f,2023-06-16_10h11.08.099,phx_ver10,2022.2.5,Win32,59.96282305,,,,,,,,,,,,84,testing_3,j2x,au,j2x_au,j2x_8_auxau.wav,j2x_1_aujau.wav,,FALSE,FALSE,,,,,,,,,,,,,,j,0.2887,space,0.5228,,,,,,,,0,39,39,83,1,,
5b6dbc7d3c02310001e8eb1f,2023-06-16_10h11.08.099,phx_ver10,2022.2.5,Win32,59.96282305,,,,,,,,,,,,43,testing_3,zh2sh,ei,zh2sh_ei,zh2sh_1_eizhei.wav,zh2sh_8_eishei.wav,,FALSE,FALSE,,,,,,,,,,,,,,j,0.2617,space,0.5521,,,,,,,,0,40,40,42,1,,
5b6dbc7d3c02310001e8eb1f,2023-06-16_10h11.08.099,phx_ver10,2022.2.5,Win32,59.96282305,,,,,,,,,,,,59,testing_3,zh2j,au,zh2j_au,zh2j_1_auzhau.wav,zh2j_8_aujau.wav,,FALSE,FALSE,,,,,,,,,,,,,,j,0.0448,space,0.4369,,,,,,,,0,41,41,58,1,,
5b6dbc7d3c02310001e8eb1f,2023-06-16_10h11.08.099,phx_ver10,2022.2.5,Win32,59.96282305,,,,,,,,,,,,20,testing_2,zh2x,au,zh2x_au,zh2x_8_auxau.wav,zh2x_1_auzhau.wav,,FALSE,FALSE,,,,,,,,,,,,,,j,0.5136,space,0.7608,,,,,,,,0,42,42,19,1,,
5b6dbc7d3c02310001e8eb1f,2023-06-16_10h11.08.099,phx_ver10,2022.2.5,Win32,59.96282305,,,,,,,,,,,,125,testing_3,sh2j,ai,sh2j_ai,sh2j_1_aishai.wav,sh2j_1_aishai.wav,,TRUE,FALSE,,,,,,,,,,,,,,f,0.2218,space,0.497,,,,,,,,0,43,43,124,1,,
5b6dbc7d3c02310001e8eb1f,2023-06-16_10h11.08.099,phx_ver10,2022.2.5,Win32,59.96282305,,,,,,,,,,,,108,testing_3,sh2x,au,sh2x_au,sh2x_8_auxau.wav,sh2x_1_aushau.wav,,FALSE,FALSE,,,,,,,,,,,,,,j,0.0176,space,0.2501,,,,,,,,0,44,44,107,1,,
5b6dbc7d3c02310001e8eb1f,2023-06-16_10h11.08.099,phx_ver10,2022.2.5,Win32,59.96282305,,,,,,,,,,,,11,testing_1,zh2x,i,zh2x_i,zh2x_1_izhi.wav,zh2x_8_ixi.wav,,FALSE,TRUE,,,,,,,,,,,,,,j,0.0009,space,0.2779,,,,,,,,0,45,45,10,1,,
5b6dbc7d3c02310001e8eb1f,2023-06-16_10h11.08.099,phx_ver10,2022.2.5,Win32,59.96282305,,,,,,,,,,,,119,testing_3,sh2x,i,sh2x_i,sh2x_1_ishi.wav,sh2x_8_ixi.wav,,FALSE,FALSE,,,,,,,,,,,,,,f,0.0183,space,0.3702,,,,,,,,0,46,46,118,1,,
5b6dbc7d3c02310001e8eb1f,2023-06-16_10h11.08.099,phx_ver10,2022.2.5,Win32,59.96282305,,,,,,,,,,,,69,testing_3,zh2j,i,zh2j_i,zh2j_1_izhi.wav,zh2j_1_izhi.wav,,TRUE,FALSE,,,,,,,,,,,,,,f,0.564,space,0.7315,,,,,,,,0,47,47,68,1,,
5b6dbc7d3c02310001e8eb1f,2023-06-16_10h11.08.099,phx_ver10,2022.2.5,Win32,59.96282305,,,,,,,,,,,,134,testing_3,sh2j,e,sh2j_e,sh2j_8_eje.wav,sh2j_8_eje.wav,,TRUE,FALSE,,,,,,,,,,,,,,f,0.3181,space,0.5516,,,,,,,,0,48,48,133,1,,
5b6dbc7d3c02310001e8eb1f,2023-06-16_10h11.08.099,phx_ver10,2022.2.5,Win32,59.96282305,,,,,,,,,,,,6,testing_1,zh2x,e,zh2x_e,zh2x_8_exe.wav,zh2x_8_exe_copy.wav,,TRUE,TRUE,,,,,,,,,,,,,,f,0.3013,space,0.5012,,,,,,,,0,49,49,5,1,,
5b6dbc7d3c02310001e8eb1f,2023-06-16_10h11.08.099,phx_ver10,2022.2.5,Win32,59.96282305,,,,,,,,,,,,31,testing_3,zh2sh,ai,zh2sh_ai,zh2sh_1_aizhai.wav,zh2sh_8_aishai.wav,,FALSE,FALSE,,,,,,,,,,,,,,j,0.2847,space,0.4682,,,,,,,,0,50,50,30,1,,
5b6dbc7d3c02310001e8eb1f,2023-06-16_10h11.08.099,phx_ver10,2022.2.5,Win32,59.96282305,,,,,,,,,,,,107,testing_3,sh2x,au,sh2x_au,sh2x_1_aushau.wav,sh2x_8_auxau.wav,,FALSE,FALSE,,,,,,,,,,,,,,j,0.456,space,0.7018,,,,,,,,0,51,51,106,1,,
5b6dbc7d3c02310001e8eb1f,2023-06-16_10h11.08.099,phx_ver10,2022.2.5,Win32,59.96282305,,,,,,,,,,,,42,testing_3,zh2sh,ei,zh2sh_ei,zh2sh_8_eishei.wav,zh2sh_8_eishei.wav,,TRUE,FALSE,,,,,,,,,,,,,,f,0.0005,space,0.4074,,,,,,,,0,52,52,41,1,,
5b6dbc7d3c02310001e8eb1f,2023-06-16_10h11.08.099,phx_ver10,2022.2.5,Win32,59.96282305,,,,,,,,,,,,15,testing_2,zh2x,ai,zh2x_ai,zh2x_1_aizhai.wav,zh2x_8_aixai.wav,,FALSE,FALSE,,,,,,,,,,,,,,j,0.3731,space,0.6188,,,,,,,,0,53,53,14,1,,
5b6dbc7d3c02310001e8eb1f,2023-06-16_10h11.08.099,phx_ver10,2022.2.5,Win32,59.96282305,,,,,,,,,,,,83,testing_3,j2x,au,j2x_au,j2x_1_aujau.wav,j2x_8_auxau.wav,,FALSE,FALSE,,,,,,,,,,,,,,j,0.5209,space,0.9357,,,,,,,,0,54,54,82,1,,
5b6dbc7d3c02310001e8eb1f,2023-06-16_10h11.08.099,phx_ver10,2022.2.5,Win32,59.96282305,,,,,,,,,,,,86,testing_3,j2x,e,j2x_e,j2x_8_exe.wav,j2x_8_exe.wav,,TRUE,FALSE,,,,,,,,,,,,,,f,0.1099,space,0.435,,,,,,,,0,55,55,85,1,,
5b6dbc7d3c02310001e8eb1f,2023-06-16_10h11.08.099,phx_ver10,2022.2.5,Win32,59.96282305,,,,,,,,,,,,45,testing_3,zh2sh,i,zh2sh_i,zh2sh_1_izhi.wav,zh2sh_1_izhi.wav,,TRUE,FALSE,,,,,,,,,,,,,,f,0.1068,space,0.3881,,,,,,,,0,56,56,44,1,,
5b6dbc7d3c02310001e8eb1f,2023-06-16_10h11.08.099,phx_ver10,2022.2.5,Win32,59.96282305,,,,,,,,,,,,60,testing_3,zh2j,au,zh2j_au,zh2j_8_aujau.wav,zh2j_1_auzhau.wav,,FALSE,FALSE,,,,,,,,,,,,,,f,0.6881,space,0.9866,,,,,,,,0,57,57,59,1,,
5b6dbc7d3c02310001e8eb1f,2023-06-16_10h11.08.099,phx_ver10,2022.2.5,Win32,59.96282305,,,,,,,,,,,,142,testing_3,sh2j,i,sh2j_i,sh2j_8_iji.wav,sh2j_8_iji.wav,,TRUE,FALSE,,,,,,,,,,,,,,f,0.0513,space,0.3569,,,,,,,,0,58,58,141,1,,
5b6dbc7d3c02310001e8eb1f,2023-06-16_10h11.08.099,phx_ver10,2022.2.5,Win32,59.96282305,,,,,,,,,,,,126,testing_3,sh2j,ai,sh2j_ai,sh2j_8_aijai.wav,sh2j_8_aijai.wav,,TRUE,FALSE,,,,,,,,,,,,,,f,0.0856,space,0.379,,,,,,,,0,59,59,125,1,,
5b6dbc7d3c02310001e8eb1f,2023-06-16_10h11.08.099,phx_ver10,2022.2.5,Win32,59.96282305,,,,,,,,,,,,38,testing_3,zh2sh,e,zh2sh_e,zh2sh_8_eshe.wav,zh2sh_8_eshe.wav,,TRUE,FALSE,,,,,,,,,,,,,,f,0.4893,space,0.6353,,,,,,,,0,60,60,37,1,,
5b6dbc7d3c02310001e8eb1f,2023-06-16_10h11.08.099,phx_ver10,2022.2.5,Win32,59.96282305,,,,,,,,,,,,129,testing_3,sh2j,au,sh2j_au,sh2j_1_aushau.wav,sh2j_1_aushau.wav,,TRUE,FALSE,,,,,,,,,,,,,,f,0.4589,space,0.7492,,,,,,,,0,61,61,128,1,,
5b6dbc7d3c02310001e8eb1f,2023-06-16_10h11.08.099,phx_ver10,2022.2.5,Win32,59.96282305,,,,,,,,,,,,144,testing_3,sh2j,i,sh2j_i,sh2j_8_iji.wav,sh2j_1_ishi.wav,,FALSE,FALSE,,,,,,,,,,,,,,j,0.1507,space,0.4852,,,,,,,,0,62,62,143,1,,
5b6dbc7d3c02310001e8eb1f,2023-06-16_10h11.08.099,phx_ver10,2022.2.5,Win32,59.96282305,,,,,,,,,,,,67,testing_3,zh2j,ei,zh2j_ei,zh2j_1_eizhei.wav,zh2j_8_eijei.wav,,FALSE,FALSE,,,,,,,,,,,,,,f,0.0506,space,0.3867,,,,,,,,0,63,63,66,1,,
5b6dbc7d3c02310001e8eb1f,2023-06-16_10h11.08.099,phx_ver10,2022.2.5,Win32,59.96282305,,,,,,,,,,,,85,testing_3,j2x,e,j2x_e,j2x_1_eje.wav,j2x_1_eje.wav,,TRUE,FALSE,,,,,,,,,,,,,,f,0.1844,space,0.4881,,,,,,,,0,64,64,84,1,,
5b6dbc7d3c02310001e8eb1f,2023-06-16_10h11.08.099,phx_ver10,2022.2.5,Win32,59.96282305,,,,,,,,,,,,41,testing_3,zh2sh,ei,zh2sh_ei,zh2sh_1_eizhei.wav,zh2sh_1_eizhei.wav,,TRUE,FALSE,,,,,,,,,,,,,,f,0.3388,space,0.5068,,,,,,,,0,65,65,40,1,,
5b6dbc7d3c02310001e8eb1f,2023-06-16_10h11.08.099,phx_ver10,2022.2.5,Win32,59.96282305,,,,,,,,,,,,130,testing_3,sh2j,au,sh2j_au,sh2j_8_aujau.wav,sh2j_8_aujau.wav,,TRUE,FALSE,,,,,,,,,,,,,,f,0.1069,space,0.5949,,,,,,,,0,66,66,129,1,,
5b6dbc7d3c02310001e8eb1f,2023-06-16_10h11.08.099,phx_ver10,2022.2.5,Win32,59.96282305,,,,,,,,,,,,16,testing_2,zh2x,ai,zh2x_ai,zh2x_8_aixai.wav,zh2x_1_aizhai.wav,,FALSE,FALSE,,,,,,,,,,,,,,j,0.0908,space,0.4107,,,,,,,,0,67,67,15,1,,
5b6dbc7d3c02310001e8eb1f,2023-06-16_10h11.08.099,phx_ver10,2022.2.5,Win32,59.96282305,,,,,,,,,,,,46,testing_3,zh2sh,i,zh2sh_i,zh2sh_8_ishi.wav,zh2sh_8_ishi.wav,,TRUE,FALSE,,,,,,,,,,,,,,f,0.3527,space,1.2874,,,,,,,,0,68,68,45,1,,
5b6dbc7d3c02310001e8eb1f,2023-06-16_10h11.08.099,phx_ver10,2022.2.5,Win32,59.96282305,,,,,,,,,,,,112,testing_3,sh2x,e,sh2x_e,sh2x_8_exe.wav,sh2x_1_eshe.wav,,FALSE,FALSE,,,,,,,,,,,,,,j,0.1727,space,0.4049,,,,,,,,0,69,69,111,1,,
5b6dbc7d3c02310001e8eb1f,2023-06-16_10h11.08.099,phx_ver10,2022.2.5,Win32,59.96282305,,,,,,,,,,,,5,testing_1,zh2x,e,zh2x_e,zh2x_1_ezhe.wav,zh2x_1_ezhe_copy.wav,,TRUE,TRUE,,,,,,,,,,,,,,f,0.1568,space,0.4765,,,,,,,,0,70,70,4,1,,
5b6dbc7d3c02310001e8eb1f,2023-06-16_10h11.08.099,phx_ver10,2022.2.5,Win32,59.96282305,,,,,,,,,,,,58,testing_3,zh2j,au,zh2j_au,zh2j_8_aujau.wav,zh2j_8_aujau.wav,,TRUE,FALSE,,,,,,,,,,,,,,f,0.5185,space,0.6868,,,,,,,,0,71,71,57,1,,
5b6dbc7d3c02310001e8eb1f,2023-06-16_10h11.08.099,phx_ver10,2022.2.5,Win32,59.96282305,,,,,,,,,,,,66,testing_3,zh2j,ei,zh2j_ei,zh2j_8_eijei.wav,zh2j_8_eijei.wav,,TRUE,FALSE,,,,,,,,,,,,,,f,0.0671,space,0.45,,,,,,,,0,72,72,65,1,,
5b6dbc7d3c02310001e8eb1f,2023-06-16_10h11.08.099,phx_ver10,2022.2.5,Win32,59.96282305,,,,,,,,,,,,53,testing_3,zh2j,ai,zh2j_ai,zh2j_1_aizhai.wav,zh2j_1_aizhai.wav,,TRUE,FALSE,,,,,,,,,,,,,,f,0.0344,space,0.4354,,,,,,,,0,73,73,52,1,,
5b6dbc7d3c02310001e8eb1f,2023-06-16_10h11.08.099,phx_ver10,2022.2.5,Win32,59.96282305,,,,,,,,,,,,13,testing_2,zh2x,ai,zh2x_ai,zh2x_1_aizhai.wav,zh2x_1_aizhai.wav,,TRUE,FALSE,,,,,,,,,,,,,,f,0.1013,space,0.4523,,,,,,,,0,74,74,12,1,,
5b6dbc7d3c02310001e8eb1f,2023-06-16_10h11.08.099,phx_ver10,2022.2.5,Win32,59.96282305,,,,,,,,,,,,104,testing_3,sh2x,ai,sh2x_ai,sh2x_8_aixai.wav,sh2x_1_aishai.wav,,FALSE,FALSE,,,,,,,,,,,,,,j,0.0676,space,0.3177,,,,,,,,0,75,75,103,1,,
5b6dbc7d3c02310001e8eb1f,2023-06-16_10h11.08.099,phx_ver10,2022.2.5,Win32,59.96282305,,,,,,,,,,,,19,testing_2,zh2x,au,zh2x_au,zh2x_1_auzhau.wav,zh2x_8_auxau.wav,,FALSE,FALSE,,,,,,,,,,,,,,j,0.0194,space,0.3848,,,,,,,,0,76,76,18,1,,
5b6dbc7d3c02310001e8eb1f,2023-06-16_10h11.08.099,phx_ver10,2022.2.5,Win32,59.96282305,,,,,,,,,,,,70,testing_3,zh2j,i,zh2j_i,zh2j_8_iji.wav,zh2j_8_iji.wav,,TRUE,FALSE,,,,,,,,,,,,,,f,0.1043,space,0.4337,,,,,,,,0,77,77,69,1,,
5b6dbc7d3c02310001e8eb1f,2023-06-16_10h11.08.099,phx_ver10,2022.2.5,Win32,59.96282305,,,,,,,,,,,,57,testing_3,zh2j,au,zh2j_au,zh2j_1_auzhau.wav,zh2j_1_auzhau.wav,,TRUE,FALSE,,,,,,,,,,,,,,f,0.2305,space,0.886,,,,,,,,0,78,78,56,1,,
5b6dbc7d3c02310001e8eb1f,2023-06-16_10h11.08.099,phx_ver10,2022.2.5,Win32,59.96282305,,,,,,,,,,,,71,testing_3,zh2j,i,zh2j_i,zh2j_1_izhi.wav,zh2j_8_iji.wav,,FALSE,FALSE,,,,,,,,,,,,,,f,0.3054,space,0.6722,,,,,,,,0,79,79,70,1,,
5b6dbc7d3c02310001e8eb1f,2023-06-16_10h11.08.099,phx_ver10,2022.2.5,Win32,59.96282305,,,,,,,,,,,,127,testing_3,sh2j,ai,sh2j_ai,sh2j_1_aishai.wav,sh2j_8_aijai.wav,,FALSE,FALSE,,,,,,,,,,,,,,j,0.4858,space,0.729,,,,,,,,0,80,80,126,1,,
5b6dbc7d3c02310001e8eb1f,2023-06-16_10h11.08.099,phx_ver10,2022.2.5,Win32,59.96282305,,,,,,,,,,,,52,testing_3,zh2j,a,zh2j_a,zh2j_8_aja.wav,zh2j_1_azha.wav,,FALSE,FALSE,,,,,,,,,,,,,,f,0.1217,space,0.4724,,,,,,,,0,81,81,51,1,,
5b6dbc7d3c02310001e8eb1f,2023-06-16_10h11.08.099,phx_ver10,2022.2.5,Win32,59.96282305,,,,,,,,,,,,3,testing_1,zh2x,a,zh2x_a,zh2x_1_azha.wav,zh2x_8_axa.wav,,FALSE,TRUE,,,,,,,,,,,,,,j,0.5526,space,0.7943,,,,,,,,0,82,82,2,1,,
5b6dbc7d3c02310001e8eb1f,2023-06-16_10h11.08.099,phx_ver10,2022.2.5,Win32,59.96282305,,,,,,,,,,,,92,testing_3,j2x,ei,j2x_ei,j2x_8_eixei.wav,j2x_1_eijei.wav,,FALSE,FALSE,,,,,,,,,,,,,,j,0.3179,space,0.6524,,,,,,,,0,83,83,91,1,,
5b6dbc7d3c02310001e8eb1f,2023-06-16_10h11.08.099,phx_ver10,2022.2.5,Win32,59.96282305,,,,,,,,,,,,74,testing_3,j2x,a,j2x_a,j2x_8_axa.wav,j2x_8_axa.wav,,TRUE,FALSE,,,,,,,,,,,,,,f,0.2167,space,0.5381,,,,,,,,0,84,84,73,1,,
5b6dbc7d3c02310001e8eb1f,2023-06-16_10h11.08.099,phx_ver10,2022.2.5,Win32,59.96282305,,,,,,,,,,,,34,testing_3,zh2sh,au,zh2sh_au,zh2sh_8_aushau.wav,zh2sh_8_aushau.wav,,TRUE,FALSE,,,,,,,,,,,,,,f,0.2015,space,1.0207,,,,,,,,0,85,85,33,1,,
5b6dbc7d3c02310001e8eb1f,2023-06-16_10h11.08.099,phx_ver10,2022.2.5,Win32,59.96282305,,,,,,,,,,,,44,testing_3,zh2sh,ei,zh2sh_ei,zh2sh_8_eishei.wav,zh2sh_1_eizhei.wav,,FALSE,FALSE,,,,,,,,,,,,,,j,0.362,space,0.563,,,,,,,,0,86,86,43,1,,
5b6dbc7d3c02310001e8eb1f,2023-06-16_10h11.08.099,phx_ver10,2022.2.5,Win32,59.96282305,,,,,,,,,,,,87,testing_3,j2x,e,j2x_e,j2x_1_eje.wav,j2x_8_exe.wav,,FALSE,FALSE,,,,,,,,,,,,,,j,0.0729,space,0.4091,,,,,,,,0,87,87,86,1,,
5b6dbc7d3c02310001e8eb1f,2023-06-16_10h11.08.099,phx_ver10,2022.2.5,Win32,59.96282305,,,,,,,,,,,,124,testing_3,sh2j,a,sh2j_a,sh2j_8_aja.wav,sh2j_1_asha.wav,,FALSE,FALSE,,,,,,,,,,,,,,j,0.1728,space,0.4757,,,,,,,,0,88,88,123,1,,
5b6dbc7d3c02310001e8eb1f,2023-06-16_10h11.08.099,phx_ver10,2022.2.5,Win32,59.96282305,,,,,,,,,,,,138,testing_3,sh2j,ei,sh2j_ei,sh2j_8_eijei.wav,sh2j_8_eijei.wav,,TRUE,FALSE,,,,,,,,,,,,,,f,0.1213,space,0.4572,,,,,,,,0,89,89,137,1,,
5b6dbc7d3c02310001e8eb1f,2023-06-16_10h11.08.099,phx_ver10,2022.2.5,Win32,59.96282305,,,,,,,,,,,,7,testing_1,zh2x,e,zh2x_e,zh2x_1_ezhe.wav,zh2x_8_exe.wav,,FALSE,TRUE,,,,,,,,,,,,,,j,0.3197,space,0.4961,,,,,,,,0,90,90,6,1,,
5b6dbc7d3c02310001e8eb1f,2023-06-16_10h11.08.099,phx_ver10,2022.2.5,Win32,59.96282305,,,,,,,,,,,,26,testing_3,zh2sh,a,zh2sh_a,zh2sh_8_asha.wav,zh2sh_8_asha.wav,,TRUE,FALSE,,,,,,,,,,,,,,f,0.1518,space,0.4855,,,,,,,,0,91,91,25,1,,
5b6dbc7d3c02310001e8eb1f,2023-06-16_10h11.08.099,phx_ver10,2022.2.5,Win32,59.96282305,,,,,,,,,,,,2,testing_1,zh2x,a,zh2x_a,zh2x_8_axa.wav,zh2x_8_axa_copy.wav,,TRUE,TRUE,,,,,,,,,,,,,,f,0.2226,space,0.7579,,,,,,,,0,92,92,1,1,,
5b6dbc7d3c02310001e8eb1f,2023-06-16_10h11.08.099,phx_ver10,2022.2.5,Win32,59.96282305,,,,,,,,,,,,140,testing_3,sh2j,ei,sh2j_ei,sh2j_8_eijei.wav,sh2j_1_eishei.wav,,FALSE,FALSE,,,,,,,,,,,,,,j,0.4675,space,1.3049,,,,,,,,0,93,93,139,1,,
5b6dbc7d3c02310001e8eb1f,2023-06-16_10h11.08.099,phx_ver10,2022.2.5,Win32,59.96282305,,,,,,,,,,,,143,testing_3,sh2j,i,sh2j_i,sh2j_1_ishi.wav,sh2j_8_iji.wav,,FALSE,FALSE,,,,,,,,,,,,,,j,0.3777,space,1.0018,,,,,,,,0,94,94,142,1,,
5b6dbc7d3c02310001e8eb1f,2023-06-16_10h11.08.099,phx_ver10,2022.2.5,Win32,59.96282305,,,,,,,,,,,,88,testing_3,j2x,e,j2x_e,j2x_8_exe.wav,j2x_1_eje.wav,,FALSE,FALSE,,,,,,,,,,,,,,j,0.2711,space,0.5427,,,,,,,,0,95,95,87,1,,
5b6dbc7d3c02310001e8eb1f,2023-06-16_10h11.08.099,phx_ver10,2022.2.5,Win32,59.96282305,,,,,,,,,,,,91,testing_3,j2x,ei,j2x_ei,j2x_1_eijei.wav,j2x_8_eixei.wav,,FALSE,FALSE,,,,,,,,,,,,,,j,0.247,space,0.5264,,,,,,,,0,96,96,90,1,,
5b6dbc7d3c02310001e8eb1f,2023-06-16_10h11.08.099,phx_ver10,2022.2.5,Win32,59.96282305,,,,,,,,,,,,23,testing_2,zh2x,ei,zh2x_ei,zh2x_1_eizhei.wav,zh2x_8_eixei.wav,,FALSE,FALSE,,,,,,,,,,,,,,j,0.1828,space,0.4621,,,,,,,,0,97,97,22,1,,
5b6dbc7d3c02310001e8eb1f,2023-06-16_10h11.08.099,phx_ver10,2022.2.5,Win32,59.96282305,,,,,,,,,,,,18,testing_2,zh2x,au,zh2x_au,zh2x_8_auxau.wav,zh2x_8_auxau.wav,,TRUE,FALSE,,,,,,,,,,,,,,f,0.6104,space,0.9137,,,,,,,,0,98,98,17,1,,
5b6dbc7d3c02310001e8eb1f,2023-06-16_10h11.08.099,phx_ver10,2022.2.5,Win32,59.96282305,,,,,,,,,,,,68,testing_3,zh2j,ei,zh2j_ei,zh2j_8_eijei.wav,zh2j_1_eizhei.wav,,FALSE,FALSE,,,,,,,,,,,,,,f,0.3455,space,0.6012,,,,,,,,0,99,99,67,1,,
5b6dbc7d3c02310001e8eb1f,2023-06-16_10h11.08.099,phx_ver10,2022.2.5,Win32,59.96282305,,,,,,,,,,,,56,testing_3,zh2j,ai,zh2j_ai,zh2j_8_aijai.wav,zh2j_1_aizhai.wav,,FALSE,FALSE,,,,,,,,,,,,,,f,0.3525,space,0.6162,,,,,,,,0,100,100,55,1,,
5b6dbc7d3c02310001e8eb1f,2023-06-16_10h11.08.099,phx_ver10,2022.2.5,Win32,59.96282305,,,,,,,,,,,,97,testing_3,sh2x,a,sh2x_a,sh2x_1_asha.wav,sh2x_1_asha.wav,,TRUE,FALSE,,,,,,,,,,,,,,f,0.2101,space,0.4092,,,,,,,,0,101,101,96,1,,
5b6dbc7d3c02310001e8eb1f,2023-06-16_10h11.08.099,phx_ver10,2022.2.5,Win32,59.96282305,,,,,,,,,,,,99,testing_3,sh2x,a,sh2x_a,sh2x_1_asha.wav,sh2x_8_axa.wav,,FALSE,FALSE,,,,,,,,,,,,,,j,0.3623,space,0.5615,,,,,,,,0,102,102,98,1,,
5b6dbc7d3c02310001e8eb1f,2023-06-16_10h11.08.099,phx_ver10,2022.2.5,Win32,59.96282305,,,,,,,,,,,,63,testing_3,zh2j,e,zh2j_e,zh2j_1_ezhe.wav,zh2j_8_eje.wav,,FALSE,FALSE,,,,,,,,,,,,,,j,0.2232,space,0.4393,,,,,,,,0,103,103,62,1,,
5b6dbc7d3c02310001e8eb1f,2023-06-16_10h11.08.099,phx_ver10,2022.2.5,Win32,59.96282305,,,,,,,,,,,,77,testing_3,j2x,ai,j2x_ai,j2x_1_aijai.wav,j2x_1_aijai.wav,,TRUE,FALSE,,,,,,,,,,,,,,f,0.3212,space,0.5692,,,,,,,,0,104,104,76,1,,
5b6dbc7d3c02310001e8eb1f,2023-06-16_10h11.08.099,phx_ver10,2022.2.5,Win32,59.96282305,,,,,,,,,,,,28,testing_3,zh2sh,a,zh2sh_a,zh2sh_8_asha.wav,zh2sh_1_azha.wav,,FALSE,FALSE,,,,,,,,,,,,,,j,0.1674,space,0.3512,,,,,,,,0,105,105,27,1,,
5b6dbc7d3c02310001e8eb1f,2023-06-16_10h11.08.099,phx_ver10,2022.2.5,Win32,59.96282305,,,,,,,,,,,,109,testing_3,sh2x,e,sh2x_e,sh2x_1_eshe.wav,sh2x_1_eshe.wav,,TRUE,FALSE,,,,,,,,,,,,,,f,0.5218,space,0.6365,,,,,,,,0,106,106,108,1,,
5b6dbc7d3c02310001e8eb1f,2023-06-16_10h11.08.099,phx_ver10,2022.2.5,Win32,59.96282305,,,,,,,,,,,,8,testing_1,zh2x,e,zh2x_e,zh2x_8_exe.wav,zh2x_1_ezhe.wav,,FALSE,TRUE,,,,,,,,,,,,,,j,0.378,space,0.6426,,,,,,,,0,107,107,7,1,,
5b6dbc7d3c02310001e8eb1f,2023-06-16_10h11.08.099,phx_ver10,2022.2.5,Win32,59.96282305,,,,,,,,,,,,17,testing_2,zh2x,au,zh2x_au,zh2x_1_auzhau.wav,zh2x_1_auzhau.wav,,TRUE,FALSE,,,,,,,,,,,,,,f,0.3849,space,0.702,,,,,,,,0,108,108,16,1,,
5b6dbc7d3c02310001e8eb1f,2023-06-16_10h11.08.099,phx_ver10,2022.2.5,Win32,59.96282305,,,,,,,,,,,,10,testing_1,zh2x,i,zh2x_i,zh2x_8_ixi.wav,zh2x_8_ixi_copy.wav,,TRUE,TRUE,,,,,,,,,,,,,,f,0.0343,space,0.3265,,,,,,,,0,109,109,9,1,,
5b6dbc7d3c02310001e8eb1f,2023-06-16_10h11.08.099,phx_ver10,2022.2.5,Win32,59.96282305,,,,,,,,,,,,27,testing_3,zh2sh,a,zh2sh_a,zh2sh_1_azha.wav,zh2sh_8_asha.wav,,FALSE,FALSE,,,,,,,,,,,,,,j,0.2091,space,0.4666,,,,,,,,0,110,110,26,1,,
5b6dbc7d3c02310001e8eb1f,2023-06-16_10h11.08.099,phx_ver10,2022.2.5,Win32,59.96282305,,,,,,,,,,,,136,testing_3,sh2j,e,sh2j_e,sh2j_8_eje.wav,sh2j_1_eshe.wav,,FALSE,FALSE,,,,,,,,,,,,,,j,0.843,space,1.054,,,,,,,,0,111,111,135,1,,
5b6dbc7d3c02310001e8eb1f,2023-06-16_10h11.08.099,phx_ver10,2022.2.5,Win32,59.96282305,,,,,,,,,,,,132,testing_3,sh2j,au,sh2j_au,sh2j_8_aujau.wav,sh2j_1_aushau.wav,,FALSE,FALSE,,,,,,,,,,,,,,j,0.3796,space,0.5559,,,,,,,,0,112,112,131,1,,
5b6dbc7d3c02310001e8eb1f,2023-06-16_10h11.08.099,phx_ver10,2022.2.5,Win32,59.96282305,,,,,,,,,,,,106,testing_3,sh2x,au,sh2x_au,sh2x_8_auxau.wav,sh2x_8_auxau.wav,,TRUE,FALSE,,,,,,,,,,,,,,f,0.6907,space,1.0418,,,,,,,,0,113,113,105,1,,
5b6dbc7d3c02310001e8eb1f,2023-06-16_10h11.08.099,phx_ver10,2022.2.5,Win32,59.96282305,,,,,,,,,,,,4,testing_1,zh2x,a,zh2x_a,zh2x_8_axa.wav,zh2x_1_azha.wav,,FALSE,TRUE,,,,,,,,,,,,,,j,0.4534,space,0.7093,,,,,,,,0,114,114,3,1,,
5b6dbc7d3c02310001e8eb1f,2023-06-16_10h11.08.099,phx_ver10,2022.2.5,Win32,59.96282305,,,,,,,,,,,,78,testing_3,j2x,ai,j2x_ai,j2x_8_aixai.wav,j2x_8_aixai.wav,,TRUE,FALSE,,,,,,,,,,,,,,f,0.6292,space,0.8612,,,,,,,,0,115,115,77,1,,
5b6dbc7d3c02310001e8eb1f,2023-06-16_10h11.08.099,phx_ver10,2022.2.5,Win32,59.96282305,,,,,,,,,,,,131,testing_3,sh2j,au,sh2j_au,sh2j_1_aushau.wav,sh2j_8_aujau.wav,,FALSE,FALSE,,,,,,,,,,,,,,j,0.2668,space,0.5004,,,,,,,,0,116,116,130,1,,
5b6dbc7d3c02310001e8eb1f,2023-06-16_10h11.08.099,phx_ver10,2022.2.5,Win32,59.96282305,,,,,,,,,,,,61,testing_3,zh2j,e,zh2j_e,zh2j_1_ezhe.wav,zh2j_1_ezhe.wav,,TRUE,FALSE,,,,,,,,,,,,,,f,0.2255,space,0.4414,,,,,,,,0,117,117,60,1,,
5b6dbc7d3c02310001e8eb1f,2023-06-16_10h11.08.099,phx_ver10,2022.2.5,Win32,59.96282305,,,,,,,,,,,,94,testing_3,j2x,i,j2x_i,j2x_8_ixi.wav,j2x_8_ixi.wav,,TRUE,FALSE,,,,,,,,,,,,,,f,0.0745,space,0.3317,,,,,,,,0,118,118,93,1,,
5b6dbc7d3c02310001e8eb1f,2023-06-16_10h11.08.099,phx_ver10,2022.2.5,Win32,59.96282305,,,,,,,,,,,,96,testing_3,j2x,i,j2x_i,j2x_8_ixi.wav,j2x_1_iji.wav,,FALSE,FALSE,,,,,,,,,,,,,,j,0.0016,space,0.2367,,,,,,,,0,119,119,95,1,,
5b6dbc7d3c02310001e8eb1f,2023-06-16_10h11.08.099,phx_ver10,2022.2.5,Win32,59.96282305,,,,,,,,,,,,122,testing_3,sh2j,a,sh2j_a,sh2j_8_aja.wav,sh2j_8_aja.wav,,TRUE,FALSE,,,,,,,,,,,,,,f,0.4992,space,0.7676,,,,,,,,0,120,120,121,1,,
5b6dbc7d3c02310001e8eb1f,2023-06-16_10h11.08.099,phx_ver10,2022.2.5,Win32,59.96282305,,,,,,,,,,,,9,testing_1,zh2x,i,zh2x_i,zh2x_1_izhi.wav,zh2x_1_izhi_copy.wav,,TRUE,TRUE,,,,,,,,,,,,,,f,0.5479,space,0.8492,,,,,,,,0,121,121,8,1,,
5b6dbc7d3c02310001e8eb1f,2023-06-16_10h11.08.099,phx_ver10,2022.2.5,Win32,59.96282305,,,,,,,,,,,,137,testing_3,sh2j,ei,sh2j_ei,sh2j_1_eishei.wav,sh2j_1_eishei.wav,,TRUE,FALSE,,,,,,,,,,,,,,f,0.185,space,0.552,,,,,,,,0,122,122,136,1,,
5b6dbc7d3c02310001e8eb1f,2023-06-16_10h11.08.099,phx_ver10,2022.2.5,Win32,59.96282305,,,,,,,,,,,,90,testing_3,j2x,ei,j2x_ei,j2x_8_eixei.wav,j2x_8_eixei.wav,,TRUE,FALSE,,,,,,,,,,,,,,f,0.7495,space,0.9367,,,,,,,,0,123,123,89,1,,
5b6dbc7d3c02310001e8eb1f,2023-06-16_10h11.08.099,phx_ver10,2022.2.5,Win32,59.96282305,,,,,,,,,,,,21,testing_2,zh2x,ei,zh2x_ei,zh2x_1_eizhei.wav,zh2x_1_eizhei.wav,,TRUE,FALSE,,,,,,,,,,,,,,f,0.4296,space,0.6616,,,,,,,,0,124,124,20,1,,
5b6dbc7d3c02310001e8eb1f,2023-06-16_10h11.08.099,phx_ver10,2022.2.5,Win32,59.96282305,,,,,,,,,,,,51,testing_3,zh2j,a,zh2j_a,zh2j_1_azha.wav,zh2j_8_aja.wav,,FALSE,FALSE,,,,,,,,,,,,,,f,0.1385,space,0.6366,,,,,,,,0,125,125,50,1,,
5b6dbc7d3c02310001e8eb1f,2023-06-16_10h11.08.099,phx_ver10,2022.2.5,Win32,59.96282305,,,,,,,,,,,,100,testing_3,sh2x,a,sh2x_a,sh2x_8_axa.wav,sh2x_1_asha.wav,,FALSE,FALSE,,,,,,,,,,,,,,j,0.0285,space,0.3015,,,,,,,,0,126,126,99,1,,
5b6dbc7d3c02310001e8eb1f,2023-06-16_10h11.08.099,phx_ver10,2022.2.5,Win32,59.96282305,,,,,,,,,,,,33,testing_3,zh2sh,au,zh2sh_au,zh2sh_1_auzhau.wav,zh2sh_1_auzhau.wav,,TRUE,FALSE,,,,,,,,,,,,,,f,0.5334,space,0.7564,,,,,,,,0,127,127,32,1,,
5b6dbc7d3c02310001e8eb1f,2023-06-16_10h11.08.099,phx_ver10,2022.2.5,Win32,59.96282305,,,,,,,,,,,,24,testing_2,zh2x,ei,zh2x_ei,zh2x_8_eixei.wav,zh2x_1_eizhei.wav,,FALSE,FALSE,,,,,,,,,,,,,,j,0.2927,space,0.5245,,,,,,,,0,128,128,23,1,,
5b6dbc7d3c02310001e8eb1f,2023-06-16_10h11.08.099,phx_ver10,2022.2.5,Win32,59.96282305,,,,,,,,,,,,101,testing_3,sh2x,ai,sh2x_ai,sh2x_1_aishai.wav,sh2x_1_aishai.wav,,TRUE,FALSE,,,,,,,,,,,,,,f,1.348,space,1.628,,,,,,,,0,129,129,100,1,,
5b6dbc7d3c02310001e8eb1f,2023-06-16_10h11.08.099,phx_ver10,2022.2.5,Win32,59.96282305,,,,,,,,,,,,133,testing_3,sh2j,e,sh2j_e,sh2j_1_eshe.wav,sh2j_1_eshe.wav,,TRUE,FALSE,,,,,,,,,,,,,,f,0.1425,space,0.4379,,,,,,,,0,130,130,132,1,,
5b6dbc7d3c02310001e8eb1f,2023-06-16_10h11.08.099,phx_ver10,2022.2.5,Win32,59.96282305,,,,,,,,,,,,93,testing_3,j2x,i,j2x_i,j2x_1_iji.wav,j2x_1_iji.wav,,TRUE,FALSE,,,,,,,,,,,,,,f,0.1864,space,0.5298,,,,,,,,0,131,131,92,1,,
5b6dbc7d3c02310001e8eb1f,2023-06-16_10h11.08.099,phx_ver10,2022.2.5,Win32,59.96282305,,,,,,,,,,,,40,testing_3,zh2sh,e,zh2sh_e,zh2sh_8_eshe.wav,zh2sh_1_ezhe.wav,,FALSE,FALSE,,,,,,,,,,,,,,j,0.1862,space,0.4107,,,,,,,,0,132,132,39,1,,
5b6dbc7d3c02310001e8eb1f,2023-06-16_10h11.08.099,phx_ver10,2022.2.5,Win32,59.96282305,,,,,,,,,,,,98,testing_3,sh2x,a,sh2x_a,sh2x_8_axa.wav,sh2x_8_axa.wav,,TRUE,FALSE,,,,,,,,,,,,,,j,0.8786,space,1.136,,,,,,,,0,133,133,97,1,,
5b6dbc7d3c02310001e8eb1f,2023-06-16_10h11.08.099,phx_ver10,2022.2.5,Win32,59.96282305,,,,,,,,,,,,48,testing_3,zh2sh,i,zh2sh_i,zh2sh_8_ishi.wav,zh2sh_1_izhi.wav,,FALSE,FALSE,,,,,,,,,,,,,,j,1.8776,space,2.0544,,,,,,,,0,134,134,47,1,,
5b6dbc7d3c02310001e8eb1f,2023-06-16_10h11.08.099,phx_ver10,2022.2.5,Win32,59.96282305,,,,,,,,,,,,47,testing_3,zh2sh,i,zh2sh_i,zh2sh_1_izhi.wav,zh2sh_8_ishi.wav,,FALSE,FALSE,,,,,,,,,,,,,,j,0.6513,space,0.9523,,,,,,,,0,135,135,46,1,,
5b6dbc7d3c02310001e8eb1f,2023-06-16_10h11.08.099,phx_ver10,2022.2.5,Win32,59.96282305,,,,,,,,,,,,55,testing_3,zh2j,ai,zh2j_ai,zh2j_1_aizhai.wav,zh2j_8_aijai.wav,,FALSE,FALSE,,,,,,,,,,,,,,f,0.6818,space,0.9618,,,,,,,,0,136,136,54,1,,
5b6dbc7d3c02310001e8eb1f,2023-06-16_10h11.08.099,phx_ver10,2022.2.5,Win32,59.96282305,,,,,,,,,,,,72,testing_3,zh2j,i,zh2j_i,zh2j_8_iji.wav,zh2j_1_izhi.wav,,FALSE,FALSE,,,,,,,,,,,,,,f,0.1494,space,0.4166,,,,,,,,0,137,137,71,1,,
5b6dbc7d3c02310001e8eb1f,2023-06-16_10h11.08.099,phx_ver10,2022.2.5,Win32,59.96282305,,,,,,,,,,,,37,testing_3,zh2sh,e,zh2sh_e,zh2sh_1_ezhe.wav,zh2sh_1_ezhe.wav,,TRUE,FALSE,,,,,,,,,,,,,,f,0.5013,space,0.7674,,,,,,,,0,138,138,36,1,,
5b6dbc7d3c02310001e8eb1f,2023-06-16_10h11.08.099,phx_ver10,2022.2.5,Win32,59.96282305,,,,,,,,,,,,36,testing_3,zh2sh,au,zh2sh_au,zh2sh_8_aushau.wav,zh2sh_1_auzhau.wav,,FALSE,FALSE,,,,,,,,,,,,,,j,0.2106,space,0.5852,,,,,,,,0,139,139,35,1,,
5b6dbc7d3c02310001e8eb1f,2023-06-16_10h11.08.099,phx_ver10,2022.2.5,Win32,59.96282305,,,,,,,,,,,,79,testing_3,j2x,ai,j2x_ai,j2x_1_aijai.wav,j2x_8_aixai.wav,,FALSE,FALSE,,,,,,,,,,,,,,j,0.2844,space,0.5516,,,,,,,,0,140,140,78,1,,
5b6dbc7d3c02310001e8eb1f,2023-06-16_10h11.08.099,phx_ver10,2022.2.5,Win32,59.96282305,,,,,,,,,,,,111,testing_3,sh2x,e,sh2x_e,sh2x_1_eshe.wav,sh2x_8_exe.wav,,FALSE,FALSE,,,,,,,,,,,,,,j,0.3589,space,0.6621,,,,,,,,0,141,141,110,1,,
5b6dbc7d3c02310001e8eb1f,2023-06-16_10h11.08.099,phx_ver10,2022.2.5,Win32,59.96282305,,,,,,,,,,,,14,testing_2,zh2x,ai,zh2x_ai,zh2x_8_aixai.wav,zh2x_8_aixai.wav,,TRUE,FALSE,,,,,,,,,,,,,,f,0.8031,space,1.162,,,,,,,,0,142,142,13,1,,
5b6dbc7d3c02310001e8eb1f,2023-06-16_10h11.08.099,phx_ver10,2022.2.5,Win32,59.96282305,,,,,,,,,,,,64,testing_3,zh2j,e,zh2j_e,zh2j_8_eje.wav,zh2j_1_ezhe.wav,,FALSE,FALSE,,,,,,,,,,,,,,f,0.1276,space,0.3908,,,,,,,,0,143,143,63,1,,
5b6dbc7d3c02310001e8eb1f,2023-06-16_10h11.08.099,phx_ver10,2022.2.5,Win32,59.96282305,,,,,,,,,,,,,,,,,,,,,,,,,,,,,,,,,,,,,,,,,,,,,,,,,,,space,3.0967
