participant,date,expName,psychopyVersion,OS,frameRate,space_1.keys,space_1.rt,space_2.keys,space_2.rt,space_train.keys,space_train.rt,training.thisRepN,training.thisTrialN,training.thisN,training.thisIndex,training.ran,token_id,task,continuum,vowel,series,sound_1,sound_2,img,same,trained,FJ_attn.keys,FJ_attn.rt,space_attn.keys,space_attn.rt,if_attn_test.thisRepN,if_attn_test.thisTrialN,if_attn_test.thisN,if_attn_test.thisIndex,if_attn_test.ran,space_trans_1.keys,space_trans_1.rt,space_trans_11.keys,space_trans_11.rt,FJ_test.keys,FJ_test.rt,space_test.keys,space_test.rt,testing_pre.thisRepN,testing_pre.thisTrialN,testing_pre.thisN,testing_pre.thisIndex,testing_pre.ran,space_trans_2.keys,space_trans_2.rt,testing_all.thisRepN,testing_all.thisTrialN,testing_all.thisN,testing_all.thisIndex,testing_all.ran,space_ending.keys,space_ending.rt
5b704c7f4ee52200010f68b0,2023-06-16_10h26.32.326,phx_ver10,2022.2.5,Win32,60.21557175,,,,,,,,,,,,,,,,,,,,,,,,,,,,,,,,,,,,,,,,,,,,,,,,,,,,
5b704c7f4ee52200010f68b0,2023-06-16_10h26.32.326,phx_ver10,2022.2.5,Win32,60.21557175,space,12.8985,,,,,,,,,,,,,,,,,,,,,,,,,,,,,,,,,,,,,,,,,,,,,,,,,,
5b704c7f4ee52200010f68b0,2023-06-16_10h26.32.326,phx_ver10,2022.2.5,Win32,60.21557175,,,space,3.3355,,,,,,,,,,,,,,,,,,,,,,,,,,,,,,,,,,,,,,,,,,,,,,,,
5b704c7f4ee52200010f68b0,2023-06-16_10h26.32.326,phx_ver10,2022.2.5,Win32,60.21557175,,,,,space,10.3831,0,0,0,1,1,2,training,zh2x,a,zh2x_a,zh2x_2_azha.wav,,azha.jpg,,,,,,,,,,,,,,,,,,,,,,,,,,,,,,,,,
5b704c7f4ee52200010f68b0,2023-06-16_10h26.32.326,phx_ver10,2022.2.5,Win32,60.21557175,,,,,space,9.95,0,1,1,8,1,9,training,zh2x,a,zh2x_a,zh2x_5_axa.wav,,axa.jpg,,,,,,,,,,,,,,,,,,,,,,,,,,,,,,,,,
5b704c7f4ee52200010f68b0,2023-06-16_10h26.32.326,phx_ver10,2022.2.5,Win32,60.21557175,,,,,space,10.0556,0,2,2,36,1,37,training,zh2x,i,zh2x_i,zh2x_2_izhi.wav,,izhi.jpg,,,,,,,,,,,,,,,,,,,,,,,,,,,,,,,,,
5b704c7f4ee52200010f68b0,2023-06-16_10h26.32.326,phx_ver10,2022.2.5,Win32,60.21557175,,,,,space,6.5533,0,3,3,46,1,47,training,zh2x,i,zh2x_i,zh2x_7_ixi.wav,,ixi.jpg,,,,,,,,,,,,,,,,,,,,,,,,,,,,,,,,,
5b704c7f4ee52200010f68b0,2023-06-16_10h26.32.326,phx_ver10,2022.2.5,Win32,60.21557175,,,,,space,6.0395,0,4,4,21,1,22,training,zh2x,e,zh2x_e,zh2x_3_ezhe.wav,,ezhe.jpg,,,,,,,,,,,,,,,,,,,,,,,,,,,,,,,,,
5b704c7f4ee52200010f68b0,2023-06-16_10h26.32.326,phx_ver10,2022.2.5,Win32,60.21557175,,,,,space,3.1929,0,5,5,19,1,20,training,zh2x,e,zh2x_e,zh2x_2_ezhe.wav,,ezhe.jpg,,,,,,,,,,,,,,,,,,,,,,,,,,,,,,,,,
5b704c7f4ee52200010f68b0,2023-06-16_10h26.32.326,phx_ver10,2022.2.5,Win32,60.21557175,,,,,,,,,,,,,attn_test,,,,zh2x_8_ixi.wav,zh2x_8_axa.wav,ixi.jpg,LEFT,,f,17.9183,space,24.5024,0,0,0,0,1,,,,,,,,,,,,,,,,,,,,,,
5b704c7f4ee52200010f68b0,2023-06-16_10h26.32.326,phx_ver10,2022.2.5,Win32,60.21557175,,,,,space,2.587,0,6,6,42,1,43,training,zh2x,i,zh2x_i,zh2x_6_ixi.wav,,ixi.jpg,,,,,,,,,,,,,,,,,,,,,,,,,,,,,,,,,
5b704c7f4ee52200010f68b0,2023-06-16_10h26.32.326,phx_ver10,2022.2.5,Win32,60.21557175,,,,,space,6.5421,0,7,7,24,1,25,training,zh2x,e,zh2x_e,zh2x_5_exe.wav,,exe.jpg,,,,,,,,,,,,,,,,,,,,,,,,,,,,,,,,,
5b704c7f4ee52200010f68b0,2023-06-16_10h26.32.326,phx_ver10,2022.2.5,Win32,60.21557175,,,,,space,1.9902,0,8,8,9,1,10,training,zh2x,a,zh2x_a,zh2x_6_axa.wav,,axa.jpg,,,,,,,,,,,,,,,,,,,,,,,,,,,,,,,,,
5b704c7f4ee52200010f68b0,2023-06-16_10h26.32.326,phx_ver10,2022.2.5,Win32,60.21557175,,,,,space,2.0188,0,9,9,0,1,1,training,zh2x,a,zh2x_a,zh2x_1_azha.wav,,azha.jpg,,,,,,,,,,,,,,,,,,,,,,,,,,,,,,,,,
5b704c7f4ee52200010f68b0,2023-06-16_10h26.32.326,phx_ver10,2022.2.5,Win32,60.21557175,,,,,space,2.2897,0,10,10,31,1,32,training,zh2x,e,zh2x_e,zh2x_8_exe.wav,,exe.jpg,,,,,,,,,,,,,,,,,,,,,,,,,,,,,,,,,
5b704c7f4ee52200010f68b0,2023-06-16_10h26.32.326,phx_ver10,2022.2.5,Win32,60.21557175,,,,,space,2.0224,0,11,11,35,1,36,training,zh2x,i,zh2x_i,zh2x_2_izhi.wav,,izhi.jpg,,,,,,,,,,,,,,,,,,,,,,,,,,,,,,,,,
5b704c7f4ee52200010f68b0,2023-06-16_10h26.32.326,phx_ver10,2022.2.5,Win32,60.21557175,,,,,,,,,,,,,attn_test,,,,zh2x_1_ezhe.wav,zh2x_8_exe.wav,exe.jpg,RIGHT,,f,7.7175,space,9.9132,0,0,0,0,1,,,,,,,,,,,,,,,,,,,,,,
5b704c7f4ee52200010f68b0,2023-06-16_10h26.32.326,phx_ver10,2022.2.5,Win32,60.21557175,,,,,space,2.8579,0,12,12,18,1,19,training,zh2x,e,zh2x_e,zh2x_2_ezhe.wav,,ezhe.jpg,,,,,,,,,,,,,,,,,,,,,,,,,,,,,,,,,
5b704c7f4ee52200010f68b0,2023-06-16_10h26.32.326,phx_ver10,2022.2.5,Win32,60.21557175,,,,,space,1.6036,0,13,13,6,1,7,training,zh2x,a,zh2x_a,zh2x_3_azha.wav,,azha.jpg,,,,,,,,,,,,,,,,,,,,,,,,,,,,,,,,,
5b704c7f4ee52200010f68b0,2023-06-16_10h26.32.326,phx_ver10,2022.2.5,Win32,60.21557175,,,,,space,0.8671,0,14,14,23,1,24,training,zh2x,e,zh2x_e,zh2x_4_ezhe.wav,,ezhe.jpg,,,,,,,,,,,,,,,,,,,,,,,,,,,,,,,,,
5b704c7f4ee52200010f68b0,2023-06-16_10h26.32.326,phx_ver10,2022.2.5,Win32,60.21557175,,,,,space,1.0231,0,15,15,3,1,4,training,zh2x,a,zh2x_a,zh2x_2_azha.wav,,azha.jpg,,,,,,,,,,,,,,,,,,,,,,,,,,,,,,,,,
5b704c7f4ee52200010f68b0,2023-06-16_10h26.32.326,phx_ver10,2022.2.5,Win32,60.21557175,,,,,space,1.3849,0,16,16,12,1,13,training,zh2x,a,zh2x_a,zh2x_7_axa.wav,,axa.jpg,,,,,,,,,,,,,,,,,,,,,,,,,,,,,,,,,
5b704c7f4ee52200010f68b0,2023-06-16_10h26.32.326,phx_ver10,2022.2.5,Win32,60.21557175,,,,,space,0.7497,0,17,17,44,1,45,training,zh2x,i,zh2x_i,zh2x_7_ixi.wav,,ixi.jpg,,,,,,,,,,,,,,,,,,,,,,,,,,,,,,,,,
5b704c7f4ee52200010f68b0,2023-06-16_10h26.32.326,phx_ver10,2022.2.5,Win32,60.21557175,,,,,,,,,,,,,attn_test,,,,zh2x_8_axa.wav,zh2x_1_ezhe.wav,axa.jpg,LEFT,,j,5.4507,space,6.1842,0,0,0,0,1,,,,,,,,,,,,,,,,,,,,,,
5b704c7f4ee52200010f68b0,2023-06-16_10h26.32.326,phx_ver10,2022.2.5,Win32,60.21557175,,,,,space,2.2493,0,18,18,25,1,26,training,zh2x,e,zh2x_e,zh2x_6_exe.wav,,exe.jpg,,,,,,,,,,,,,,,,,,,,,,,,,,,,,,,,,
5b704c7f4ee52200010f68b0,2023-06-16_10h26.32.326,phx_ver10,2022.2.5,Win32,60.21557175,,,,,space,2.301,0,19,19,37,1,38,training,zh2x,i,zh2x_i,zh2x_3_izhi.wav,,izhi.jpg,,,,,,,,,,,,,,,,,,,,,,,,,,,,,,,,,
5b704c7f4ee52200010f68b0,2023-06-16_10h26.32.326,phx_ver10,2022.2.5,Win32,60.21557175,,,,,space,1.0672,0,20,20,15,1,16,training,zh2x,a,zh2x_a,zh2x_8_axa.wav,,axa.jpg,,,,,,,,,,,,,,,,,,,,,,,,,,,,,,,,,
5b704c7f4ee52200010f68b0,2023-06-16_10h26.32.326,phx_ver10,2022.2.5,Win32,60.21557175,,,,,space,1.1025,0,21,21,39,1,40,training,zh2x,i,zh2x_i,zh2x_4_izhi.wav,,izhi.jpg,,,,,,,,,,,,,,,,,,,,,,,,,,,,,,,,,
5b704c7f4ee52200010f68b0,2023-06-16_10h26.32.326,phx_ver10,2022.2.5,Win32,60.21557175,,,,,space,0.3644,0,22,22,43,1,44,training,zh2x,i,zh2x_i,zh2x_7_ixi.wav,,ixi.jpg,,,,,,,,,,,,,,,,,,,,,,,,,,,,,,,,,
5b704c7f4ee52200010f68b0,2023-06-16_10h26.32.326,phx_ver10,2022.2.5,Win32,60.21557175,,,,,space,0.019,0,23,23,40,1,41,training,zh2x,i,zh2x_i,zh2x_5_ixi.wav,,ixi.jpg,,,,,,,,,,,,,,,,,,,,,,,,,,,,,,,,,
5b704c7f4ee52200010f68b0,2023-06-16_10h26.32.326,phx_ver10,2022.2.5,Win32,60.21557175,,,,,,,,,,,,,attn_test,,,,zh2x_1_izhi.wav,zh2x_1_azha.wav,izhi.jpg,LEFT,,f,9.567,space,11.0876,0,0,0,0,1,,,,,,,,,,,,,,,,,,,,,,
5b704c7f4ee52200010f68b0,2023-06-16_10h26.32.326,phx_ver10,2022.2.5,Win32,60.21557175,,,,,space,2.6754,0,24,24,20,1,21,training,zh2x,e,zh2x_e,zh2x_2_ezhe.wav,,ezhe.jpg,,,,,,,,,,,,,,,,,,,,,,,,,,,,,,,,,
5b704c7f4ee52200010f68b0,2023-06-16_10h26.32.326,phx_ver10,2022.2.5,Win32,60.21557175,,,,,space,0.6675,0,25,25,38,1,39,training,zh2x,i,zh2x_i,zh2x_3_izhi.wav,,izhi.jpg,,,,,,,,,,,,,,,,,,,,,,,,,,,,,,,,,
5b704c7f4ee52200010f68b0,2023-06-16_10h26.32.326,phx_ver10,2022.2.5,Win32,60.21557175,,,,,space,0.7183,0,26,26,45,1,46,training,zh2x,i,zh2x_i,zh2x_7_ixi.wav,,ixi.jpg,,,,,,,,,,,,,,,,,,,,,,,,,,,,,,,,,
5b704c7f4ee52200010f68b0,2023-06-16_10h26.32.326,phx_ver10,2022.2.5,Win32,60.21557175,,,,,space,0.2529,0,27,27,7,1,8,training,zh2x,a,zh2x_a,zh2x_4_azha.wav,,azha.jpg,,,,,,,,,,,,,,,,,,,,,,,,,,,,,,,,,
5b704c7f4ee52200010f68b0,2023-06-16_10h26.32.326,phx_ver10,2022.2.5,Win32,60.21557175,,,,,space,0.1026,0,28,28,34,1,35,training,zh2x,i,zh2x_i,zh2x_2_izhi.wav,,izhi.jpg,,,,,,,,,,,,,,,,,,,,,,,,,,,,,,,,,
5b704c7f4ee52200010f68b0,2023-06-16_10h26.32.326,phx_ver10,2022.2.5,Win32,60.21557175,,,,,space,2.8007,0,29,29,47,1,48,training,zh2x,i,zh2x_i,zh2x_8_ixi.wav,,ixi.jpg,,,,,,,,,,,,,,,,,,,,,,,,,,,,,,,,,
5b704c7f4ee52200010f68b0,2023-06-16_10h26.32.326,phx_ver10,2022.2.5,Win32,60.21557175,,,,,,,,,,,,,attn_test,,,,zh2x_1_izhi.wav,zh2x_8_ixi.wav,izhi.jpg,LEFT,,f,4.1045,space,4.8725,0,0,0,0,1,,,,,,,,,,,,,,,,,,,,,,
5b704c7f4ee52200010f68b0,2023-06-16_10h26.32.326,phx_ver10,2022.2.5,Win32,60.21557175,,,,,space,1.9581,0,30,30,17,1,18,training,zh2x,e,zh2x_e,zh2x_2_ezhe.wav,,ezhe.jpg,,,,,,,,,,,,,,,,,,,,,,,,,,,,,,,,,
5b704c7f4ee52200010f68b0,2023-06-16_10h26.32.326,phx_ver10,2022.2.5,Win32,60.21557175,,,,,space,0.5706,0,31,31,29,1,30,training,zh2x,e,zh2x_e,zh2x_7_exe.wav,,exe.jpg,,,,,,,,,,,,,,,,,,,,,,,,,,,,,,,,,
5b704c7f4ee52200010f68b0,2023-06-16_10h26.32.326,phx_ver10,2022.2.5,Win32,60.21557175,,,,,space,0.0911,0,32,32,13,1,14,training,zh2x,a,zh2x_a,zh2x_7_axa.wav,,axa.jpg,,,,,,,,,,,,,,,,,,,,,,,,,,,,,,,,,
5b704c7f4ee52200010f68b0,2023-06-16_10h26.32.326,phx_ver10,2022.2.5,Win32,60.21557175,,,,,space,0.0881,0,33,33,10,1,11,training,zh2x,a,zh2x_a,zh2x_6_axa.wav,,axa.jpg,,,,,,,,,,,,,,,,,,,,,,,,,,,,,,,,,
5b704c7f4ee52200010f68b0,2023-06-16_10h26.32.326,phx_ver10,2022.2.5,Win32,60.21557175,,,,,space,0.0829,0,34,34,14,1,15,training,zh2x,a,zh2x_a,zh2x_7_axa.wav,,axa.jpg,,,,,,,,,,,,,,,,,,,,,,,,,,,,,,,,,
5b704c7f4ee52200010f68b0,2023-06-16_10h26.32.326,phx_ver10,2022.2.5,Win32,60.21557175,,,,,space,0.6044,0,35,35,30,1,31,training,zh2x,e,zh2x_e,zh2x_7_exe.wav,,exe.jpg,,,,,,,,,,,,,,,,,,,,,,,,,,,,,,,,,
5b704c7f4ee52200010f68b0,2023-06-16_10h26.32.326,phx_ver10,2022.2.5,Win32,60.21557175,,,,,,,,,,,,,attn_test,,,,zh2x_8_axa.wav,zh2x_8_ixi.wav,axa.jpg,LEFT,,f,4.4026,space,5.7161,0,0,0,0,1,,,,,,,,,,,,,,,,,,,,,,
5b704c7f4ee52200010f68b0,2023-06-16_10h26.32.326,phx_ver10,2022.2.5,Win32,60.21557175,,,,,space,0.8829,0,36,36,33,1,34,training,zh2x,i,zh2x_i,zh2x_2_izhi.wav,,izhi.jpg,,,,,,,,,,,,,,,,,,,,,,,,,,,,,,,,,
5b704c7f4ee52200010f68b0,2023-06-16_10h26.32.326,phx_ver10,2022.2.5,Win32,60.21557175,,,,,space,0.019,0,37,37,2,1,3,training,zh2x,a,zh2x_a,zh2x_2_azha.wav,,azha.jpg,,,,,,,,,,,,,,,,,,,,,,,,,,,,,,,,,
5b704c7f4ee52200010f68b0,2023-06-16_10h26.32.326,phx_ver10,2022.2.5,Win32,60.21557175,,,,,space,0.1503,0,38,38,28,1,29,training,zh2x,e,zh2x_e,zh2x_7_exe.wav,,exe.jpg,,,,,,,,,,,,,,,,,,,,,,,,,,,,,,,,,
5b704c7f4ee52200010f68b0,2023-06-16_10h26.32.326,phx_ver10,2022.2.5,Win32,60.21557175,,,,,space,0.5516,0,39,39,26,1,27,training,zh2x,e,zh2x_e,zh2x_6_exe.wav,,exe.jpg,,,,,,,,,,,,,,,,,,,,,,,,,,,,,,,,,
5b704c7f4ee52200010f68b0,2023-06-16_10h26.32.326,phx_ver10,2022.2.5,Win32,60.21557175,,,,,space,0.3887,0,40,40,41,1,42,training,zh2x,i,zh2x_i,zh2x_6_ixi.wav,,ixi.jpg,,,,,,,,,,,,,,,,,,,,,,,,,,,,,,,,,
5b704c7f4ee52200010f68b0,2023-06-16_10h26.32.326,phx_ver10,2022.2.5,Win32,60.21557175,,,,,space,0.3542,0,41,41,4,1,5,training,zh2x,a,zh2x_a,zh2x_2_azha.wav,,azha.jpg,,,,,,,,,,,,,,,,,,,,,,,,,,,,,,,,,
5b704c7f4ee52200010f68b0,2023-06-16_10h26.32.326,phx_ver10,2022.2.5,Win32,60.21557175,,,,,,,,,,,,,attn_test,,,,zh2x_8_exe.wav,zh2x_1_ezhe.wav,exe.jpg,LEFT,,f,1.8838,space,2.7491,0,0,0,0,1,,,,,,,,,,,,,,,,,,,,,,
5b704c7f4ee52200010f68b0,2023-06-16_10h26.32.326,phx_ver10,2022.2.5,Win32,60.21557175,,,,,space,0.901,0,42,42,16,1,17,training,zh2x,e,zh2x_e,zh2x_1_ezhe.wav,,ezhe.jpg,,,,,,,,,,,,,,,,,,,,,,,,,,,,,,,,,
5b704c7f4ee52200010f68b0,2023-06-16_10h26.32.326,phx_ver10,2022.2.5,Win32,60.21557175,,,,,space,0.6496,0,43,43,27,1,28,training,zh2x,e,zh2x_e,zh2x_7_exe.wav,,exe.jpg,,,,,,,,,,,,,,,,,,,,,,,,,,,,,,,,,
5b704c7f4ee52200010f68b0,2023-06-16_10h26.32.326,phx_ver10,2022.2.5,Win32,60.21557175,,,,,space,0.1518,0,44,44,32,1,33,training,zh2x,i,zh2x_i,zh2x_1_izhi.wav,,izhi.jpg,,,,,,,,,,,,,,,,,,,,,,,,,,,,,,,,,
5b704c7f4ee52200010f68b0,2023-06-16_10h26.32.326,phx_ver10,2022.2.5,Win32,60.21557175,,,,,space,0.2527,0,45,45,22,1,23,training,zh2x,e,zh2x_e,zh2x_3_ezhe.wav,,ezhe.jpg,,,,,,,,,,,,,,,,,,,,,,,,,,,,,,,,,
5b704c7f4ee52200010f68b0,2023-06-16_10h26.32.326,phx_ver10,2022.2.5,Win32,60.21557175,,,,,space,0.3669,0,46,46,5,1,6,training,zh2x,a,zh2x_a,zh2x_3_azha.wav,,azha.jpg,,,,,,,,,,,,,,,,,,,,,,,,,,,,,,,,,
5b704c7f4ee52200010f68b0,2023-06-16_10h26.32.326,phx_ver10,2022.2.5,Win32,60.21557175,,,,,space,0.434,0,47,47,11,1,12,training,zh2x,a,zh2x_a,zh2x_7_axa.wav,,axa.jpg,,,,,,,,,,,,,,,,,,,,,,,,,,,,,,,,,
5b704c7f4ee52200010f68b0,2023-06-16_10h26.32.326,phx_ver10,2022.2.5,Win32,60.21557175,,,,,,,,,,,,,attn_test,,,,zh2x_8_exe.wav,zh2x_1_ezhe.wav,exe.jpg,LEFT,,f,2.7359,space,10.3865,,,,,,,,,,,,,,,,,,,,,,,,,,,
5b704c7f4ee52200010f68b0,2023-06-16_10h26.32.326,phx_ver10,2022.2.5,Win32,60.21557175,,,,,,,,,,,,,,,,,,,,,,,,,,,,,,,space,1.8641,,,,,,,,,,,,,,,,,,,,
5b704c7f4ee52200010f68b0,2023-06-16_10h26.32.326,phx_ver10,2022.2.5,Win32,60.21557175,,,,,,,,,,,,,,,,,,,,,,,,,,,,,,,,,space,21.0639,,,,,,,,,,,,,,,,,,
5b704c7f4ee52200010f68b0,2023-06-16_10h26.32.326,phx_ver10,2022.2.5,Win32,60.21557175,,,,,,,,,,,,1,testing_pre,,,,ifi.wav,ifi.wav,,TRUE,,,,,,,,,,,,,,,f,1.3888,space,2.7411,0,0,0,0,1,,,,,,,,,
5b704c7f4ee52200010f68b0,2023-06-16_10h26.32.326,phx_ver10,2022.2.5,Win32,60.21557175,,,,,,,,,,,,2,testing_pre,,,,auhau.wav,aufau.wav,,FALSE,,,,,,,,,,,,,,,j,4.4023,space,5.5222,0,1,1,1,1,,,,,,,,,
5b704c7f4ee52200010f68b0,2023-06-16_10h26.32.326,phx_ver10,2022.2.5,Win32,60.21557175,,,,,,,,,,,,5,testing_pre,,,,ihi.wav,ifi.wav,,FALSE,,,,,,,,,,,,,,,j,2.2753,space,3.323,0,2,2,4,1,,,,,,,,,
5b704c7f4ee52200010f68b0,2023-06-16_10h26.32.326,phx_ver10,2022.2.5,Win32,60.21557175,,,,,,,,,,,,3,testing_pre,,,,afa.wav,aha.wav,,FALSE,,,,,,,,,,,,,,,f,1.0413,space,1.5515,0,3,3,2,1,,,,,,,,,
5b704c7f4ee52200010f68b0,2023-06-16_10h26.32.326,phx_ver10,2022.2.5,Win32,60.21557175,,,,,,,,,,,,4,testing_pre,,,,eihei.wav,eihei.wav,,TRUE,,,,,,,,,,,,,,,f,0.5976,space,1.4345,0,4,4,3,1,,,,,,,,,
5b704c7f4ee52200010f68b0,2023-06-16_10h26.32.326,phx_ver10,2022.2.5,Win32,60.21557175,,,,,,,,,,,,,,,,,,,,,,,,,,,,,,,,,,,,,,,,,,,,space,1.4645,,,,,,,
5b704c7f4ee52200010f68b0,2023-06-16_10h26.32.326,phx_ver10,2022.2.5,Win32,60.21557175,,,,,,,,,,,,25,testing_3,zh2sh,a,zh2sh_a,zh2sh_1_azha.wav,zh2sh_1_azha.wav,,TRUE,FALSE,,,,,,,,,,,,,,f,0.7371,space,1.4112,,,,,,,,0,0,0,24,1,,
5b704c7f4ee52200010f68b0,2023-06-16_10h26.32.326,phx_ver10,2022.2.5,Win32,60.21557175,,,,,,,,,,,,133,testing_3,sh2j,e,sh2j_e,sh2j_1_eshe.wav,sh2j_1_eshe.wav,,TRUE,FALSE,,,,,,,,,,,,,,f,0.5623,space,1.0328,,,,,,,,0,1,1,132,1,,
5b704c7f4ee52200010f68b0,2023-06-16_10h26.32.326,phx_ver10,2022.2.5,Win32,60.21557175,,,,,,,,,,,,82,testing_3,j2x,au,j2x_au,j2x_8_auxau.wav,j2x_8_auxau.wav,,TRUE,FALSE,,,,,,,,,,,,,,f,0.7749,space,1.2072,,,,,,,,0,2,2,81,1,,
5b704c7f4ee52200010f68b0,2023-06-16_10h26.32.326,phx_ver10,2022.2.5,Win32,60.21557175,,,,,,,,,,,,87,testing_3,j2x,e,j2x_e,j2x_1_eje.wav,j2x_8_exe.wav,,FALSE,FALSE,,,,,,,,,,,,,,j,1.1528,space,1.9909,,,,,,,,0,3,3,86,1,,
5b704c7f4ee52200010f68b0,2023-06-16_10h26.32.326,phx_ver10,2022.2.5,Win32,60.21557175,,,,,,,,,,,,60,testing_3,zh2j,au,zh2j_au,zh2j_8_aujau.wav,zh2j_1_auzhau.wav,,FALSE,FALSE,,,,,,,,,,,,,,f,0.9175,space,1.4014,,,,,,,,0,4,4,59,1,,
5b704c7f4ee52200010f68b0,2023-06-16_10h26.32.326,phx_ver10,2022.2.5,Win32,60.21557175,,,,,,,,,,,,73,testing_3,j2x,a,j2x_a,j2x_1_aja.wav,j2x_1_aja.wav,,TRUE,FALSE,,,,,,,,,,,,,,f,0.5678,space,1.5837,,,,,,,,0,5,5,72,1,,
5b704c7f4ee52200010f68b0,2023-06-16_10h26.32.326,phx_ver10,2022.2.5,Win32,60.21557175,,,,,,,,,,,,122,testing_3,sh2j,a,sh2j_a,sh2j_8_aja.wav,sh2j_8_aja.wav,,TRUE,FALSE,,,,,,,,,,,,,,f,0.4521,space,0.9072,,,,,,,,0,6,6,121,1,,
5b704c7f4ee52200010f68b0,2023-06-16_10h26.32.326,phx_ver10,2022.2.5,Win32,60.21557175,,,,,,,,,,,,97,testing_3,sh2x,a,sh2x_a,sh2x_1_asha.wav,sh2x_1_asha.wav,,TRUE,FALSE,,,,,,,,,,,,,,f,0.5344,space,1.0736,,,,,,,,0,7,7,96,1,,
5b704c7f4ee52200010f68b0,2023-06-16_10h26.32.326,phx_ver10,2022.2.5,Win32,60.21557175,,,,,,,,,,,,43,testing_3,zh2sh,ei,zh2sh_ei,zh2sh_1_eizhei.wav,zh2sh_8_eishei.wav,,FALSE,FALSE,,,,,,,,,,,,,,j,1.4185,space,2.0184,,,,,,,,0,8,8,42,1,,
5b704c7f4ee52200010f68b0,2023-06-16_10h26.32.326,phx_ver10,2022.2.5,Win32,60.21557175,,,,,,,,,,,,138,testing_3,sh2j,ei,sh2j_ei,sh2j_8_eijei.wav,sh2j_8_eijei.wav,,TRUE,FALSE,,,,,,,,,,,,,,f,0.5162,space,1.0718,,,,,,,,0,9,9,137,1,,
5b704c7f4ee52200010f68b0,2023-06-16_10h26.32.326,phx_ver10,2022.2.5,Win32,60.21557175,,,,,,,,,,,,92,testing_3,j2x,ei,j2x_ei,j2x_8_eixei.wav,j2x_1_eijei.wav,,FALSE,FALSE,,,,,,,,,,,,,,j,1.4435,space,1.8915,,,,,,,,0,10,10,91,1,,
5b704c7f4ee52200010f68b0,2023-06-16_10h26.32.326,phx_ver10,2022.2.5,Win32,60.21557175,,,,,,,,,,,,126,testing_3,sh2j,ai,sh2j_ai,sh2j_8_aijai.wav,sh2j_8_aijai.wav,,TRUE,FALSE,,,,,,,,,,,,,,f,0.5196,space,0.8819,,,,,,,,0,11,11,125,1,,
5b704c7f4ee52200010f68b0,2023-06-16_10h26.32.326,phx_ver10,2022.2.5,Win32,60.21557175,,,,,,,,,,,,83,testing_3,j2x,au,j2x_au,j2x_1_aujau.wav,j2x_8_auxau.wav,,FALSE,FALSE,,,,,,,,,,,,,,j,1.626,space,2.2737,,,,,,,,0,12,12,82,1,,
5b704c7f4ee52200010f68b0,2023-06-16_10h26.32.326,phx_ver10,2022.2.5,Win32,60.21557175,,,,,,,,,,,,18,testing_2,zh2x,au,zh2x_au,zh2x_8_auxau.wav,zh2x_8_auxau.wav,,TRUE,FALSE,,,,,,,,,,,,,,f,0.4192,space,0.9167,,,,,,,,0,13,13,17,1,,
5b704c7f4ee52200010f68b0,2023-06-16_10h26.32.326,phx_ver10,2022.2.5,Win32,60.21557175,,,,,,,,,,,,139,testing_3,sh2j,ei,sh2j_ei,sh2j_1_eishei.wav,sh2j_8_eijei.wav,,FALSE,FALSE,,,,,,,,,,,,,,j,0.7851,space,1.3766,,,,,,,,0,14,14,138,1,,
5b704c7f4ee52200010f68b0,2023-06-16_10h26.32.326,phx_ver10,2022.2.5,Win32,60.21557175,,,,,,,,,,,,47,testing_3,zh2sh,i,zh2sh_i,zh2sh_1_izhi.wav,zh2sh_8_ishi.wav,,FALSE,FALSE,,,,,,,,,,,,,,f,2.8926,space,3.4222,,,,,,,,0,15,15,46,1,,
5b704c7f4ee52200010f68b0,2023-06-16_10h26.32.326,phx_ver10,2022.2.5,Win32,60.21557175,,,,,,,,,,,,109,testing_3,sh2x,e,sh2x_e,sh2x_1_eshe.wav,sh2x_1_eshe.wav,,TRUE,FALSE,,,,,,,,,,,,,,f,0.5504,space,0.8717,,,,,,,,0,16,16,108,1,,
5b704c7f4ee52200010f68b0,2023-06-16_10h26.32.326,phx_ver10,2022.2.5,Win32,60.21557175,,,,,,,,,,,,80,testing_3,j2x,ai,j2x_ai,j2x_8_aixai.wav,j2x_1_aijai.wav,,FALSE,FALSE,,,,,,,,,,,,,,j,0.817,space,1.1836,,,,,,,,0,17,17,79,1,,
5b704c7f4ee52200010f68b0,2023-06-16_10h26.32.326,phx_ver10,2022.2.5,Win32,60.21557175,,,,,,,,,,,,99,testing_3,sh2x,a,sh2x_a,sh2x_1_asha.wav,sh2x_8_axa.wav,,FALSE,FALSE,,,,,,,,,,,,,,f,0.4067,space,0.8003,,,,,,,,0,18,18,98,1,,
5b704c7f4ee52200010f68b0,2023-06-16_10h26.32.326,phx_ver10,2022.2.5,Win32,60.21557175,,,,,,,,,,,,32,testing_3,zh2sh,ai,zh2sh_ai,zh2sh_8_aishai.wav,zh2sh_1_aizhai.wav,,FALSE,FALSE,,,,,,,,,,,,,,j,0.4734,space,0.8415,,,,,,,,0,19,19,31,1,,
5b704c7f4ee52200010f68b0,2023-06-16_10h26.32.326,phx_ver10,2022.2.5,Win32,60.21557175,,,,,,,,,,,,140,testing_3,sh2j,ei,sh2j_ei,sh2j_8_eijei.wav,sh2j_1_eishei.wav,,FALSE,FALSE,,,,,,,,,,,,,,j,0.5096,space,0.8778,,,,,,,,0,20,20,139,1,,
5b704c7f4ee52200010f68b0,2023-06-16_10h26.32.326,phx_ver10,2022.2.5,Win32,60.21557175,,,,,,,,,,,,91,testing_3,j2x,ei,j2x_ei,j2x_1_eijei.wav,j2x_8_eixei.wav,,FALSE,FALSE,,,,,,,,,,,,,,j,0.503,space,0.8554,,,,,,,,0,21,21,90,1,,
5b704c7f4ee52200010f68b0,2023-06-16_10h26.32.326,phx_ver10,2022.2.5,Win32,60.21557175,,,,,,,,,,,,22,testing_2,zh2x,ei,zh2x_ei,zh2x_8_eixei.wav,zh2x_8_eixei.wav,,TRUE,FALSE,,,,,,,,,,,,,,f,0.3054,space,0.694,,,,,,,,0,22,22,21,1,,
5b704c7f4ee52200010f68b0,2023-06-16_10h26.32.326,phx_ver10,2022.2.5,Win32,60.21557175,,,,,,,,,,,,58,testing_3,zh2j,au,zh2j_au,zh2j_8_aujau.wav,zh2j_8_aujau.wav,,TRUE,FALSE,,,,,,,,,,,,,,f,0.5735,space,0.934,,,,,,,,0,23,23,57,1,,
5b704c7f4ee52200010f68b0,2023-06-16_10h26.32.326,phx_ver10,2022.2.5,Win32,60.21557175,,,,,,,,,,,,129,testing_3,sh2j,au,sh2j_au,sh2j_1_aushau.wav,sh2j_1_aushau.wav,,TRUE,FALSE,,,,,,,,,,,,,,f,0.3043,space,2.2652,,,,,,,,0,24,24,128,1,,
5b704c7f4ee52200010f68b0,2023-06-16_10h26.32.326,phx_ver10,2022.2.5,Win32,60.21557175,,,,,,,,,,,,132,testing_3,sh2j,au,sh2j_au,sh2j_8_aujau.wav,sh2j_1_aushau.wav,,FALSE,FALSE,,,,,,,,,,,,,,j,0.6216,space,1.0269,,,,,,,,0,25,25,131,1,,
5b704c7f4ee52200010f68b0,2023-06-16_10h26.32.326,phx_ver10,2022.2.5,Win32,60.21557175,,,,,,,,,,,,38,testing_3,zh2sh,e,zh2sh_e,zh2sh_8_eshe.wav,zh2sh_8_eshe.wav,,TRUE,FALSE,,,,,,,,,,,,,,f,0.457,space,0.8021,,,,,,,,0,26,26,37,1,,
5b704c7f4ee52200010f68b0,2023-06-16_10h26.32.326,phx_ver10,2022.2.5,Win32,60.21557175,,,,,,,,,,,,46,testing_3,zh2sh,i,zh2sh_i,zh2sh_8_ishi.wav,zh2sh_8_ishi.wav,,TRUE,FALSE,,,,,,,,,,,,,,f,0.3268,space,0.7206,,,,,,,,0,27,27,45,1,,
5b704c7f4ee52200010f68b0,2023-06-16_10h26.32.326,phx_ver10,2022.2.5,Win32,60.21557175,,,,,,,,,,,,55,testing_3,zh2j,ai,zh2j_ai,zh2j_1_aizhai.wav,zh2j_8_aijai.wav,,FALSE,FALSE,,,,,,,,,,,,,,f,0.2193,space,0.5818,,,,,,,,0,28,28,54,1,,
5b704c7f4ee52200010f68b0,2023-06-16_10h26.32.326,phx_ver10,2022.2.5,Win32,60.21557175,,,,,,,,,,,,78,testing_3,j2x,ai,j2x_ai,j2x_8_aixai.wav,j2x_8_aixai.wav,,TRUE,FALSE,,,,,,,,,,,,,,f,0.2009,space,0.6722,,,,,,,,0,29,29,77,1,,
5b704c7f4ee52200010f68b0,2023-06-16_10h26.32.326,phx_ver10,2022.2.5,Win32,60.21557175,,,,,,,,,,,,28,testing_3,zh2sh,a,zh2sh_a,zh2sh_8_asha.wav,zh2sh_1_azha.wav,,FALSE,FALSE,,,,,,,,,,,,,,j,0.7438,space,1.1166,,,,,,,,0,30,30,27,1,,
5b704c7f4ee52200010f68b0,2023-06-16_10h26.32.326,phx_ver10,2022.2.5,Win32,60.21557175,,,,,,,,,,,,29,testing_3,zh2sh,ai,zh2sh_ai,zh2sh_1_aizhai.wav,zh2sh_1_aizhai.wav,,TRUE,FALSE,,,,,,,,,,,,,,f,0.3677,space,0.7676,,,,,,,,0,31,31,28,1,,
5b704c7f4ee52200010f68b0,2023-06-16_10h26.32.326,phx_ver10,2022.2.5,Win32,60.21557175,,,,,,,,,,,,40,testing_3,zh2sh,e,zh2sh_e,zh2sh_8_eshe.wav,zh2sh_1_ezhe.wav,,FALSE,FALSE,,,,,,,,,,,,,,j,0.6264,space,1.0208,,,,,,,,0,32,32,39,1,,
5b704c7f4ee52200010f68b0,2023-06-16_10h26.32.326,phx_ver10,2022.2.5,Win32,60.21557175,,,,,,,,,,,,44,testing_3,zh2sh,ei,zh2sh_ei,zh2sh_8_eishei.wav,zh2sh_1_eizhei.wav,,FALSE,FALSE,,,,,,,,,,,,,,j,0.2728,space,0.6411,,,,,,,,0,33,33,43,1,,
5b704c7f4ee52200010f68b0,2023-06-16_10h26.32.326,phx_ver10,2022.2.5,Win32,60.21557175,,,,,,,,,,,,100,testing_3,sh2x,a,sh2x_a,sh2x_8_axa.wav,sh2x_1_asha.wav,,FALSE,FALSE,,,,,,,,,,,,,,f,0.817,space,1.1579,,,,,,,,0,34,34,99,1,,
5b704c7f4ee52200010f68b0,2023-06-16_10h26.32.326,phx_ver10,2022.2.5,Win32,60.21557175,,,,,,,,,,,,5,testing_1,zh2x,e,zh2x_e,zh2x_1_ezhe.wav,zh2x_1_ezhe_copy.wav,,TRUE,TRUE,,,,,,,,,,,,,,f,0.3947,space,0.7698,,,,,,,,0,35,35,4,1,,
5b704c7f4ee52200010f68b0,2023-06-16_10h26.32.326,phx_ver10,2022.2.5,Win32,60.21557175,,,,,,,,,,,,27,testing_3,zh2sh,a,zh2sh_a,zh2sh_1_azha.wav,zh2sh_8_asha.wav,,FALSE,FALSE,,,,,,,,,,,,,,j,0.9882,space,1.3563,,,,,,,,0,36,36,26,1,,
5b704c7f4ee52200010f68b0,2023-06-16_10h26.32.326,phx_ver10,2022.2.5,Win32,60.21557175,,,,,,,,,,,,1,testing_1,zh2x,a,zh2x_a,zh2x_1_azha.wav,zh2x_1_azha_copy.wav,,TRUE,TRUE,,,,,,,,,,,,,,f,0.501,space,0.891,,,,,,,,0,37,37,0,1,,
5b704c7f4ee52200010f68b0,2023-06-16_10h26.32.326,phx_ver10,2022.2.5,Win32,60.21557175,,,,,,,,,,,,39,testing_3,zh2sh,e,zh2sh_e,zh2sh_1_ezhe.wav,zh2sh_8_eshe.wav,,FALSE,FALSE,,,,,,,,,,,,,,j,0.5177,space,0.8751,,,,,,,,0,38,38,38,1,,
5b704c7f4ee52200010f68b0,2023-06-16_10h26.32.326,phx_ver10,2022.2.5,Win32,60.21557175,,,,,,,,,,,,131,testing_3,sh2j,au,sh2j_au,sh2j_1_aushau.wav,sh2j_8_aujau.wav,,FALSE,FALSE,,,,,,,,,,,,,,j,0.9207,space,1.411,,,,,,,,0,39,39,130,1,,
5b704c7f4ee52200010f68b0,2023-06-16_10h26.32.326,phx_ver10,2022.2.5,Win32,60.21557175,,,,,,,,,,,,36,testing_3,zh2sh,au,zh2sh_au,zh2sh_8_aushau.wav,zh2sh_1_auzhau.wav,,FALSE,FALSE,,,,,,,,,,,,,,j,0.4516,space,0.7847,,,,,,,,0,40,40,35,1,,
5b704c7f4ee52200010f68b0,2023-06-16_10h26.32.326,phx_ver10,2022.2.5,Win32,60.21557175,,,,,,,,,,,,20,testing_2,zh2x,au,zh2x_au,zh2x_8_auxau.wav,zh2x_1_auzhau.wav,,FALSE,FALSE,,,,,,,,,,,,,,j,0.1507,space,0.5887,,,,,,,,0,41,41,19,1,,
5b704c7f4ee52200010f68b0,2023-06-16_10h26.32.326,phx_ver10,2022.2.5,Win32,60.21557175,,,,,,,,,,,,101,testing_3,sh2x,ai,sh2x_ai,sh2x_1_aishai.wav,sh2x_1_aishai.wav,,TRUE,FALSE,,,,,,,,,,,,,,f,0.2526,space,0.5214,,,,,,,,0,42,42,100,1,,
5b704c7f4ee52200010f68b0,2023-06-16_10h26.32.326,phx_ver10,2022.2.5,Win32,60.21557175,,,,,,,,,,,,23,testing_2,zh2x,ei,zh2x_ei,zh2x_1_eizhei.wav,zh2x_8_eixei.wav,,FALSE,FALSE,,,,,,,,,,,,,,j,0.2531,space,0.6259,,,,,,,,0,43,43,22,1,,
5b704c7f4ee52200010f68b0,2023-06-16_10h26.32.326,phx_ver10,2022.2.5,Win32,60.21557175,,,,,,,,,,,,72,testing_3,zh2j,i,zh2j_i,zh2j_8_iji.wav,zh2j_1_izhi.wav,,FALSE,FALSE,,,,,,,,,,,,,,f,0.5574,space,0.8921,,,,,,,,0,44,44,71,1,,
5b704c7f4ee52200010f68b0,2023-06-16_10h26.32.326,phx_ver10,2022.2.5,Win32,60.21557175,,,,,,,,,,,,33,testing_3,zh2sh,au,zh2sh_au,zh2sh_1_auzhau.wav,zh2sh_1_auzhau.wav,,TRUE,FALSE,,,,,,,,,,,,,,f,0.4022,space,0.7012,,,,,,,,0,45,45,32,1,,
5b704c7f4ee52200010f68b0,2023-06-16_10h26.32.326,phx_ver10,2022.2.5,Win32,60.21557175,,,,,,,,,,,,15,testing_2,zh2x,ai,zh2x_ai,zh2x_1_aizhai.wav,zh2x_8_aixai.wav,,FALSE,FALSE,,,,,,,,,,,,,,j,0.5678,space,0.8874,,,,,,,,0,46,46,14,1,,
5b704c7f4ee52200010f68b0,2023-06-16_10h26.32.326,phx_ver10,2022.2.5,Win32,60.21557175,,,,,,,,,,,,26,testing_3,zh2sh,a,zh2sh_a,zh2sh_8_asha.wav,zh2sh_8_asha.wav,,TRUE,FALSE,,,,,,,,,,,,,,f,0.3355,space,0.6524,,,,,,,,0,47,47,25,1,,
5b704c7f4ee52200010f68b0,2023-06-16_10h26.32.326,phx_ver10,2022.2.5,Win32,60.21557175,,,,,,,,,,,,136,testing_3,sh2j,e,sh2j_e,sh2j_8_eje.wav,sh2j_1_eshe.wav,,FALSE,FALSE,,,,,,,,,,,,,,j,0.6069,space,0.9669,,,,,,,,0,48,48,135,1,,
5b704c7f4ee52200010f68b0,2023-06-16_10h26.32.326,phx_ver10,2022.2.5,Win32,60.21557175,,,,,,,,,,,,121,testing_3,sh2j,a,sh2j_a,sh2j_1_asha.wav,sh2j_1_asha.wav,,TRUE,FALSE,,,,,,,,,,,,,,f,0.4346,space,0.7167,,,,,,,,0,49,49,120,1,,
5b704c7f4ee52200010f68b0,2023-06-16_10h26.32.326,phx_ver10,2022.2.5,Win32,60.21557175,,,,,,,,,,,,10,testing_1,zh2x,i,zh2x_i,zh2x_8_ixi.wav,zh2x_8_ixi_copy.wav,,TRUE,TRUE,,,,,,,,,,,,,,f,0.6745,space,1.103,,,,,,,,0,50,50,9,1,,
5b704c7f4ee52200010f68b0,2023-06-16_10h26.32.326,phx_ver10,2022.2.5,Win32,60.21557175,,,,,,,,,,,,108,testing_3,sh2x,au,sh2x_au,sh2x_8_auxau.wav,sh2x_1_aushau.wav,,FALSE,FALSE,,,,,,,,,,,,,,f,0.4829,space,0.8344,,,,,,,,0,51,51,107,1,,
5b704c7f4ee52200010f68b0,2023-06-16_10h26.32.326,phx_ver10,2022.2.5,Win32,60.21557175,,,,,,,,,,,,24,testing_2,zh2x,ei,zh2x_ei,zh2x_8_eixei.wav,zh2x_1_eizhei.wav,,FALSE,FALSE,,,,,,,,,,,,,,j,0.3678,space,0.6676,,,,,,,,0,52,52,23,1,,
5b704c7f4ee52200010f68b0,2023-06-16_10h26.32.326,phx_ver10,2022.2.5,Win32,60.21557175,,,,,,,,,,,,114,testing_3,sh2x,ei,sh2x_ei,sh2x_8_eixei.wav,sh2x_8_eixei.wav,,TRUE,FALSE,,,,,,,,,,,,,,f,0.4676,space,0.7697,,,,,,,,0,53,53,113,1,,
5b704c7f4ee52200010f68b0,2023-06-16_10h26.32.326,phx_ver10,2022.2.5,Win32,60.21557175,,,,,,,,,,,,21,testing_2,zh2x,ei,zh2x_ei,zh2x_1_eizhei.wav,zh2x_1_eizhei.wav,,TRUE,FALSE,,,,,,,,,,,,,,j,0.3012,space,0.6499,,,,,,,,0,54,54,20,1,,
5b704c7f4ee52200010f68b0,2023-06-16_10h26.32.326,phx_ver10,2022.2.5,Win32,60.21557175,,,,,,,,,,,,128,testing_3,sh2j,ai,sh2j_ai,sh2j_8_aijai.wav,sh2j_1_aishai.wav,,FALSE,FALSE,,,,,,,,,,,,,,j,0.4005,space,0.7518,,,,,,,,0,55,55,127,1,,
5b704c7f4ee52200010f68b0,2023-06-16_10h26.32.326,phx_ver10,2022.2.5,Win32,60.21557175,,,,,,,,,,,,111,testing_3,sh2x,e,sh2x_e,sh2x_1_eshe.wav,sh2x_8_exe.wav,,FALSE,FALSE,,,,,,,,,,,,,,j,0.4039,space,0.7239,,,,,,,,0,56,56,110,1,,
5b704c7f4ee52200010f68b0,2023-06-16_10h26.32.326,phx_ver10,2022.2.5,Win32,60.21557175,,,,,,,,,,,,79,testing_3,j2x,ai,j2x_ai,j2x_1_aijai.wav,j2x_8_aixai.wav,,FALSE,FALSE,,,,,,,,,,,,,,j,0.3838,space,0.7332,,,,,,,,0,57,57,78,1,,
5b704c7f4ee52200010f68b0,2023-06-16_10h26.32.326,phx_ver10,2022.2.5,Win32,60.21557175,,,,,,,,,,,,74,testing_3,j2x,a,j2x_a,j2x_8_axa.wav,j2x_8_axa.wav,,TRUE,FALSE,,,,,,,,,,,,,,f,0.5852,space,0.9185,,,,,,,,0,58,58,73,1,,
5b704c7f4ee52200010f68b0,2023-06-16_10h26.32.326,phx_ver10,2022.2.5,Win32,60.21557175,,,,,,,,,,,,3,testing_1,zh2x,a,zh2x_a,zh2x_1_azha.wav,zh2x_8_axa.wav,,FALSE,TRUE,,,,,,,,,,,,,,j,0.301,space,0.5832,,,,,,,,0,59,59,2,1,,
5b704c7f4ee52200010f68b0,2023-06-16_10h26.32.326,phx_ver10,2022.2.5,Win32,60.21557175,,,,,,,,,,,,68,testing_3,zh2j,ei,zh2j_ei,zh2j_8_eijei.wav,zh2j_1_eizhei.wav,,FALSE,FALSE,,,,,,,,,,,,,,f,0.1045,space,0.5686,,,,,,,,0,60,60,67,1,,
5b704c7f4ee52200010f68b0,2023-06-16_10h26.32.326,phx_ver10,2022.2.5,Win32,60.21557175,,,,,,,,,,,,85,testing_3,j2x,e,j2x_e,j2x_1_eje.wav,j2x_1_eje.wav,,TRUE,FALSE,,,,,,,,,,,,,,f,0.3509,space,0.7562,,,,,,,,0,61,61,84,1,,
5b704c7f4ee52200010f68b0,2023-06-16_10h26.32.326,phx_ver10,2022.2.5,Win32,60.21557175,,,,,,,,,,,,30,testing_3,zh2sh,ai,zh2sh_ai,zh2sh_8_aishai.wav,zh2sh_8_aishai.wav,,TRUE,FALSE,,,,,,,,,,,,,,f,0.0564,space,0.3762,,,,,,,,0,62,62,29,1,,
5b704c7f4ee52200010f68b0,2023-06-16_10h26.32.326,phx_ver10,2022.2.5,Win32,60.21557175,,,,,,,,,,,,16,testing_2,zh2x,ai,zh2x_ai,zh2x_8_aixai.wav,zh2x_1_aizhai.wav,,FALSE,FALSE,,,,,,,,,,,,,,j,0.3341,space,0.6862,,,,,,,,0,63,63,15,1,,
5b704c7f4ee52200010f68b0,2023-06-16_10h26.32.326,phx_ver10,2022.2.5,Win32,60.21557175,,,,,,,,,,,,7,testing_1,zh2x,e,zh2x_e,zh2x_1_ezhe.wav,zh2x_8_exe.wav,,FALSE,TRUE,,,,,,,,,,,,,,j,0.1825,space,0.8009,,,,,,,,0,64,64,6,1,,
5b704c7f4ee52200010f68b0,2023-06-16_10h26.32.326,phx_ver10,2022.2.5,Win32,60.21557175,,,,,,,,,,,,67,testing_3,zh2j,ei,zh2j_ei,zh2j_1_eizhei.wav,zh2j_8_eijei.wav,,FALSE,FALSE,,,,,,,,,,,,,,f,0.6525,space,1.0053,,,,,,,,0,65,65,66,1,,
5b704c7f4ee52200010f68b0,2023-06-16_10h26.32.326,phx_ver10,2022.2.5,Win32,60.21557175,,,,,,,,,,,,34,testing_3,zh2sh,au,zh2sh_au,zh2sh_8_aushau.wav,zh2sh_8_aushau.wav,,TRUE,FALSE,,,,,,,,,,,,,,f,0.0889,space,0.4346,,,,,,,,0,66,66,33,1,,
5b704c7f4ee52200010f68b0,2023-06-16_10h26.32.326,phx_ver10,2022.2.5,Win32,60.21557175,,,,,,,,,,,,14,testing_2,zh2x,ai,zh2x_ai,zh2x_8_aixai.wav,zh2x_8_aixai.wav,,TRUE,FALSE,,,,,,,,,,,,,,f,0.0338,space,0.3698,,,,,,,,0,67,67,13,1,,
5b704c7f4ee52200010f68b0,2023-06-16_10h26.32.326,phx_ver10,2022.2.5,Win32,60.21557175,,,,,,,,,,,,115,testing_3,sh2x,ei,sh2x_ei,sh2x_1_eishei.wav,sh2x_8_eixei.wav,,FALSE,FALSE,,,,,,,,,,,,,,f,0.4171,space,0.8167,,,,,,,,0,68,68,114,1,,
5b704c7f4ee52200010f68b0,2023-06-16_10h26.32.326,phx_ver10,2022.2.5,Win32,60.21557175,,,,,,,,,,,,120,testing_3,sh2x,i,sh2x_i,sh2x_8_ixi.wav,sh2x_1_ishi.wav,,FALSE,FALSE,,,,,,,,,,,,,,f,0.8006,space,1.1358,,,,,,,,0,69,69,119,1,,
5b704c7f4ee52200010f68b0,2023-06-16_10h26.32.326,phx_ver10,2022.2.5,Win32,60.21557175,,,,,,,,,,,,116,testing_3,sh2x,ei,sh2x_ei,sh2x_8_eixei.wav,sh2x_1_eishei.wav,,FALSE,FALSE,,,,,,,,,,,,,,f,0.0685,space,0.4056,,,,,,,,0,70,70,115,1,,
5b704c7f4ee52200010f68b0,2023-06-16_10h26.32.326,phx_ver10,2022.2.5,Win32,60.21557175,,,,,,,,,,,,50,testing_3,zh2j,a,zh2j_a,zh2j_8_aja.wav,zh2j_8_aja.wav,,TRUE,FALSE,,,,,,,,,,,,,,j,0.2087,space,0.5185,,,,,,,,0,71,71,49,1,,
5b704c7f4ee52200010f68b0,2023-06-16_10h26.32.326,phx_ver10,2022.2.5,Win32,60.21557175,,,,,,,,,,,,61,testing_3,zh2j,e,zh2j_e,zh2j_1_ezhe.wav,zh2j_1_ezhe.wav,,TRUE,FALSE,,,,,,,,,,,,,,f,0.9178,space,1.222,,,,,,,,0,72,72,60,1,,
5b704c7f4ee52200010f68b0,2023-06-16_10h26.32.326,phx_ver10,2022.2.5,Win32,60.21557175,,,,,,,,,,,,49,testing_3,zh2j,a,zh2j_a,zh2j_1_azha.wav,zh2j_1_azha.wav,,TRUE,FALSE,,,,,,,,,,,,,,f,0.2404,space,0.5339,,,,,,,,0,73,73,48,1,,
5b704c7f4ee52200010f68b0,2023-06-16_10h26.32.326,phx_ver10,2022.2.5,Win32,60.21557175,,,,,,,,,,,,141,testing_3,sh2j,i,sh2j_i,sh2j_1_ishi.wav,sh2j_1_ishi.wav,,TRUE,FALSE,,,,,,,,,,,,,,f,0.1261,space,0.4177,,,,,,,,0,74,74,140,1,,
5b704c7f4ee52200010f68b0,2023-06-16_10h26.32.326,phx_ver10,2022.2.5,Win32,60.21557175,,,,,,,,,,,,86,testing_3,j2x,e,j2x_e,j2x_8_exe.wav,j2x_8_exe.wav,,TRUE,FALSE,,,,,,,,,,,,,,f,1.657,space,2.1007,,,,,,,,0,75,75,85,1,,
5b704c7f4ee52200010f68b0,2023-06-16_10h26.32.326,phx_ver10,2022.2.5,Win32,60.21557175,,,,,,,,,,,,119,testing_3,sh2x,i,sh2x_i,sh2x_1_ishi.wav,sh2x_8_ixi.wav,,FALSE,FALSE,,,,,,,,,,,,,,f,0.3515,space,0.6519,,,,,,,,0,76,76,118,1,,
5b704c7f4ee52200010f68b0,2023-06-16_10h26.32.326,phx_ver10,2022.2.5,Win32,60.21557175,,,,,,,,,,,,89,testing_3,j2x,ei,j2x_ei,j2x_1_eijei.wav,j2x_1_eijei.wav,,TRUE,FALSE,,,,,,,,,,,,,,f,0.0999,space,0.3669,,,,,,,,0,77,77,88,1,,
5b704c7f4ee52200010f68b0,2023-06-16_10h26.32.326,phx_ver10,2022.2.5,Win32,60.21557175,,,,,,,,,,,,142,testing_3,sh2j,i,sh2j_i,sh2j_8_iji.wav,sh2j_8_iji.wav,,TRUE,FALSE,,,,,,,,,,,,,,f,0.7879,space,1.0539,,,,,,,,0,78,78,141,1,,
5b704c7f4ee52200010f68b0,2023-06-16_10h26.32.326,phx_ver10,2022.2.5,Win32,60.21557175,,,,,,,,,,,,105,testing_3,sh2x,au,sh2x_au,sh2x_1_aushau.wav,sh2x_1_aushau.wav,,TRUE,FALSE,,,,,,,,,,,,,,f,0.6753,space,1.0347,,,,,,,,0,79,79,104,1,,
5b704c7f4ee52200010f68b0,2023-06-16_10h26.32.326,phx_ver10,2022.2.5,Win32,60.21557175,,,,,,,,,,,,98,testing_3,sh2x,a,sh2x_a,sh2x_8_axa.wav,sh2x_8_axa.wav,,TRUE,FALSE,,,,,,,,,,,,,,f,0.1567,space,0.4526,,,,,,,,0,80,80,97,1,,
5b704c7f4ee52200010f68b0,2023-06-16_10h26.32.326,phx_ver10,2022.2.5,Win32,60.21557175,,,,,,,,,,,,84,testing_3,j2x,au,j2x_au,j2x_8_auxau.wav,j2x_1_aujau.wav,,FALSE,FALSE,,,,,,,,,,,,,,j,1.7739,space,2.2055,,,,,,,,0,81,81,83,1,,
5b704c7f4ee52200010f68b0,2023-06-16_10h26.32.326,phx_ver10,2022.2.5,Win32,60.21557175,,,,,,,,,,,,75,testing_3,j2x,a,j2x_a,j2x_1_aja.wav,j2x_8_axa.wav,,FALSE,FALSE,,,,,,,,,,,,,,j,0.1551,space,0.4343,,,,,,,,0,82,82,74,1,,
5b704c7f4ee52200010f68b0,2023-06-16_10h26.32.326,phx_ver10,2022.2.5,Win32,60.21557175,,,,,,,,,,,,63,testing_3,zh2j,e,zh2j_e,zh2j_1_ezhe.wav,zh2j_8_eje.wav,,FALSE,FALSE,,,,,,,,,,,,,,f,0.2173,space,0.4702,,,,,,,,0,83,83,62,1,,
5b704c7f4ee52200010f68b0,2023-06-16_10h26.32.326,phx_ver10,2022.2.5,Win32,60.21557175,,,,,,,,,,,,71,testing_3,zh2j,i,zh2j_i,zh2j_1_izhi.wav,zh2j_8_iji.wav,,FALSE,FALSE,,,,,,,,,,,,,,f,0.0671,space,0.3502,,,,,,,,0,84,84,70,1,,
5b704c7f4ee52200010f68b0,2023-06-16_10h26.32.326,phx_ver10,2022.2.5,Win32,60.21557175,,,,,,,,,,,,8,testing_1,zh2x,e,zh2x_e,zh2x_8_exe.wav,zh2x_1_ezhe.wav,,FALSE,TRUE,,,,,,,,,,,,,,j,0.237,space,0.5248,,,,,,,,0,85,85,7,1,,
5b704c7f4ee52200010f68b0,2023-06-16_10h26.32.326,phx_ver10,2022.2.5,Win32,60.21557175,,,,,,,,,,,,54,testing_3,zh2j,ai,zh2j_ai,zh2j_8_aijai.wav,zh2j_8_aijai.wav,,TRUE,FALSE,,,,,,,,,,,,,,f,0.4637,space,0.7136,,,,,,,,0,86,86,53,1,,
5b704c7f4ee52200010f68b0,2023-06-16_10h26.32.326,phx_ver10,2022.2.5,Win32,60.21557175,,,,,,,,,,,,143,testing_3,sh2j,i,sh2j_i,sh2j_1_ishi.wav,sh2j_8_iji.wav,,FALSE,FALSE,,,,,,,,,,,,,,f,0.1672,space,0.4346,,,,,,,,0,87,87,142,1,,
5b704c7f4ee52200010f68b0,2023-06-16_10h26.32.326,phx_ver10,2022.2.5,Win32,60.21557175,,,,,,,,,,,,48,testing_3,zh2sh,i,zh2sh_i,zh2sh_8_ishi.wav,zh2sh_1_izhi.wav,,FALSE,FALSE,,,,,,,,,,,,,,f,1.0505,space,1.3883,,,,,,,,0,88,88,47,1,,
5b704c7f4ee52200010f68b0,2023-06-16_10h26.32.326,phx_ver10,2022.2.5,Win32,60.21557175,,,,,,,,,,,,112,testing_3,sh2x,e,sh2x_e,sh2x_8_exe.wav,sh2x_1_eshe.wav,,FALSE,FALSE,,,,,,,,,,,,,,j,1.4004,space,1.7332,,,,,,,,0,89,89,111,1,,
5b704c7f4ee52200010f68b0,2023-06-16_10h26.32.326,phx_ver10,2022.2.5,Win32,60.21557175,,,,,,,,,,,,77,testing_3,j2x,ai,j2x_ai,j2x_1_aijai.wav,j2x_1_aijai.wav,,TRUE,FALSE,,,,,,,,,,,,,,f,0.0336,space,0.3209,,,,,,,,0,90,90,76,1,,
5b704c7f4ee52200010f68b0,2023-06-16_10h26.32.326,phx_ver10,2022.2.5,Win32,60.21557175,,,,,,,,,,,,95,testing_3,j2x,i,j2x_i,j2x_1_iji.wav,j2x_8_ixi.wav,,FALSE,FALSE,,,,,,,,,,,,,,j,0.1714,space,0.4912,,,,,,,,0,91,91,94,1,,
5b704c7f4ee52200010f68b0,2023-06-16_10h26.32.326,phx_ver10,2022.2.5,Win32,60.21557175,,,,,,,,,,,,135,testing_3,sh2j,e,sh2j_e,sh2j_1_eshe.wav,sh2j_8_eje.wav,,FALSE,FALSE,,,,,,,,,,,,,,j,0.1167,space,0.4178,,,,,,,,0,92,92,134,1,,
5b704c7f4ee52200010f68b0,2023-06-16_10h26.32.326,phx_ver10,2022.2.5,Win32,60.21557175,,,,,,,,,,,,134,testing_3,sh2j,e,sh2j_e,sh2j_8_eje.wav,sh2j_8_eje.wav,,TRUE,FALSE,,,,,,,,,,,,,,f,0.3673,space,0.6683,,,,,,,,0,93,93,133,1,,
5b704c7f4ee52200010f68b0,2023-06-16_10h26.32.326,phx_ver10,2022.2.5,Win32,60.21557175,,,,,,,,,,,,102,testing_3,sh2x,ai,sh2x_ai,sh2x_8_aixai.wav,sh2x_8_aixai.wav,,TRUE,FALSE,,,,,,,,,,,,,,f,0.0034,space,0.2914,,,,,,,,0,94,94,101,1,,
5b704c7f4ee52200010f68b0,2023-06-16_10h26.32.326,phx_ver10,2022.2.5,Win32,60.21557175,,,,,,,,,,,,52,testing_3,zh2j,a,zh2j_a,zh2j_8_aja.wav,zh2j_1_azha.wav,,FALSE,FALSE,,,,,,,,,,,,,,f,0.0169,space,0.291,,,,,,,,0,95,95,51,1,,
5b704c7f4ee52200010f68b0,2023-06-16_10h26.32.326,phx_ver10,2022.2.5,Win32,60.21557175,,,,,,,,,,,,144,testing_3,sh2j,i,sh2j_i,sh2j_8_iji.wav,sh2j_1_ishi.wav,,FALSE,FALSE,,,,,,,,,,,,,,f,0.3552,space,0.6593,,,,,,,,0,96,96,143,1,,
5b704c7f4ee52200010f68b0,2023-06-16_10h26.32.326,phx_ver10,2022.2.5,Win32,60.21557175,,,,,,,,,,,,51,testing_3,zh2j,a,zh2j_a,zh2j_1_azha.wav,zh2j_8_aja.wav,,FALSE,FALSE,,,,,,,,,,,,,,f,0.2678,space,0.5871,,,,,,,,0,97,97,50,1,,
5b704c7f4ee52200010f68b0,2023-06-16_10h26.32.326,phx_ver10,2022.2.5,Win32,60.21557175,,,,,,,,,,,,6,testing_1,zh2x,e,zh2x_e,zh2x_8_exe.wav,zh2x_8_exe_copy.wav,,TRUE,TRUE,,,,,,,,,,,,,,f,0.0187,space,0.2873,,,,,,,,0,98,98,5,1,,
5b704c7f4ee52200010f68b0,2023-06-16_10h26.32.326,phx_ver10,2022.2.5,Win32,60.21557175,,,,,,,,,,,,57,testing_3,zh2j,au,zh2j_au,zh2j_1_auzhau.wav,zh2j_1_auzhau.wav,,TRUE,FALSE,,,,,,,,,,,,,,f,0.102,space,0.3823,,,,,,,,0,99,99,56,1,,
5b704c7f4ee52200010f68b0,2023-06-16_10h26.32.326,phx_ver10,2022.2.5,Win32,60.21557175,,,,,,,,,,,,127,testing_3,sh2j,ai,sh2j_ai,sh2j_1_aishai.wav,sh2j_8_aijai.wav,,FALSE,FALSE,,,,,,,,,,,,,,j,0.4682,space,0.7858,,,,,,,,0,100,100,126,1,,
5b704c7f4ee52200010f68b0,2023-06-16_10h26.32.326,phx_ver10,2022.2.5,Win32,60.21557175,,,,,,,,,,,,56,testing_3,zh2j,ai,zh2j_ai,zh2j_8_aijai.wav,zh2j_1_aizhai.wav,,FALSE,FALSE,,,,,,,,,,,,,,f,0.8375,space,1.1516,,,,,,,,0,101,101,55,1,,
5b704c7f4ee52200010f68b0,2023-06-16_10h26.32.326,phx_ver10,2022.2.5,Win32,60.21557175,,,,,,,,,,,,64,testing_3,zh2j,e,zh2j_e,zh2j_8_eje.wav,zh2j_1_ezhe.wav,,FALSE,FALSE,,,,,,,,,,,,,,f,0.4013,space,0.7058,,,,,,,,0,102,102,63,1,,
5b704c7f4ee52200010f68b0,2023-06-16_10h26.32.326,phx_ver10,2022.2.5,Win32,60.21557175,,,,,,,,,,,,42,testing_3,zh2sh,ei,zh2sh_ei,zh2sh_8_eishei.wav,zh2sh_8_eishei.wav,,TRUE,FALSE,,,,,,,,,,,,,,f,0.0567,space,0.9691,,,,,,,,0,103,103,41,1,,
5b704c7f4ee52200010f68b0,2023-06-16_10h26.32.326,phx_ver10,2022.2.5,Win32,60.21557175,,,,,,,,,,,,106,testing_3,sh2x,au,sh2x_au,sh2x_8_auxau.wav,sh2x_8_auxau.wav,,TRUE,FALSE,,,,,,,,,,,,,,f,0.0836,space,0.4341,,,,,,,,0,104,104,105,1,,
5b704c7f4ee52200010f68b0,2023-06-16_10h26.32.326,phx_ver10,2022.2.5,Win32,60.21557175,,,,,,,,,,,,125,testing_3,sh2j,ai,sh2j_ai,sh2j_1_aishai.wav,sh2j_1_aishai.wav,,TRUE,FALSE,,,,,,,,,,,,,,f,0.0008,space,0.3016,,,,,,,,0,105,105,124,1,,
5b704c7f4ee52200010f68b0,2023-06-16_10h26.32.326,phx_ver10,2022.2.5,Win32,60.21557175,,,,,,,,,,,,19,testing_2,zh2x,au,zh2x_au,zh2x_1_auzhau.wav,zh2x_8_auxau.wav,,FALSE,FALSE,,,,,,,,,,,,,,j,0.4047,space,0.8365,,,,,,,,0,106,106,18,1,,
5b704c7f4ee52200010f68b0,2023-06-16_10h26.32.326,phx_ver10,2022.2.5,Win32,60.21557175,,,,,,,,,,,,88,testing_3,j2x,e,j2x_e,j2x_8_exe.wav,j2x_1_eje.wav,,FALSE,FALSE,,,,,,,,,,,,,,j,0.838,space,1.1344,,,,,,,,0,107,107,87,1,,
5b704c7f4ee52200010f68b0,2023-06-16_10h26.32.326,phx_ver10,2022.2.5,Win32,60.21557175,,,,,,,,,,,,110,testing_3,sh2x,e,sh2x_e,sh2x_8_exe.wav,sh2x_8_exe.wav,,TRUE,FALSE,,,,,,,,,,,,,,f,0.3159,space,0.5739,,,,,,,,0,108,108,109,1,,
5b704c7f4ee52200010f68b0,2023-06-16_10h26.32.326,phx_ver10,2022.2.5,Win32,60.21557175,,,,,,,,,,,,37,testing_3,zh2sh,e,zh2sh_e,zh2sh_1_ezhe.wav,zh2sh_1_ezhe.wav,,TRUE,FALSE,,,,,,,,,,,,,,f,1.1755,space,1.5014,,,,,,,,0,109,109,36,1,,
5b704c7f4ee52200010f68b0,2023-06-16_10h26.32.326,phx_ver10,2022.2.5,Win32,60.21557175,,,,,,,,,,,,13,testing_2,zh2x,ai,zh2x_ai,zh2x_1_aizhai.wav,zh2x_1_aizhai.wav,,TRUE,FALSE,,,,,,,,,,,,,,f,0.0345,space,0.3259,,,,,,,,0,110,110,12,1,,
5b704c7f4ee52200010f68b0,2023-06-16_10h26.32.326,phx_ver10,2022.2.5,Win32,60.21557175,,,,,,,,,,,,70,testing_3,zh2j,i,zh2j_i,zh2j_8_iji.wav,zh2j_8_iji.wav,,TRUE,FALSE,,,,,,,,,,,,,,f,0.0848,space,0.3884,,,,,,,,0,111,111,69,1,,
5b704c7f4ee52200010f68b0,2023-06-16_10h26.32.326,phx_ver10,2022.2.5,Win32,60.21557175,,,,,,,,,,,,69,testing_3,zh2j,i,zh2j_i,zh2j_1_izhi.wav,zh2j_1_izhi.wav,,TRUE,FALSE,,,,,,,,,,,,,,f,0.8389,space,1.2332,,,,,,,,0,112,112,68,1,,
5b704c7f4ee52200010f68b0,2023-06-16_10h26.32.326,phx_ver10,2022.2.5,Win32,60.21557175,,,,,,,,,,,,62,testing_3,zh2j,e,zh2j_e,zh2j_8_eje.wav,zh2j_8_eje.wav,,TRUE,FALSE,,,,,,,,,,,,,,f,0.0183,space,0.4184,,,,,,,,0,113,113,61,1,,
5b704c7f4ee52200010f68b0,2023-06-16_10h26.32.326,phx_ver10,2022.2.5,Win32,60.21557175,,,,,,,,,,,,103,testing_3,sh2x,ai,sh2x_ai,sh2x_1_aishai.wav,sh2x_8_aixai.wav,,FALSE,FALSE,,,,,,,,,,,,,,f,0.0165,space,0.3332,,,,,,,,0,114,114,102,1,,
5b704c7f4ee52200010f68b0,2023-06-16_10h26.32.326,phx_ver10,2022.2.5,Win32,60.21557175,,,,,,,,,,,,76,testing_3,j2x,a,j2x_a,j2x_8_axa.wav,j2x_1_aja.wav,,FALSE,FALSE,,,,,,,,,,,,,,j,0.586,space,0.8671,,,,,,,,0,115,115,75,1,,
5b704c7f4ee52200010f68b0,2023-06-16_10h26.32.326,phx_ver10,2022.2.5,Win32,60.21557175,,,,,,,,,,,,113,testing_3,sh2x,ei,sh2x_ei,sh2x_1_eishei.wav,sh2x_1_eishei.wav,,TRUE,FALSE,,,,,,,,,,,,,,f,0.0007,space,0.3514,,,,,,,,0,116,116,112,1,,
5b704c7f4ee52200010f68b0,2023-06-16_10h26.32.326,phx_ver10,2022.2.5,Win32,60.21557175,,,,,,,,,,,,137,testing_3,sh2j,ei,sh2j_ei,sh2j_1_eishei.wav,sh2j_1_eishei.wav,,TRUE,FALSE,,,,,,,,,,,,,,f,0.4537,space,0.8344,,,,,,,,0,117,117,136,1,,
5b704c7f4ee52200010f68b0,2023-06-16_10h26.32.326,phx_ver10,2022.2.5,Win32,60.21557175,,,,,,,,,,,,90,testing_3,j2x,ei,j2x_ei,j2x_8_eixei.wav,j2x_8_eixei.wav,,TRUE,FALSE,,,,,,,,,,,,,,f,0.071,space,0.5502,,,,,,,,0,118,118,89,1,,
5b704c7f4ee52200010f68b0,2023-06-16_10h26.32.326,phx_ver10,2022.2.5,Win32,60.21557175,,,,,,,,,,,,45,testing_3,zh2sh,i,zh2sh_i,zh2sh_1_izhi.wav,zh2sh_1_izhi.wav,,TRUE,FALSE,,,,,,,,,,,,,,f,0.0529,space,0.4922,,,,,,,,0,119,119,44,1,,
5b704c7f4ee52200010f68b0,2023-06-16_10h26.32.326,phx_ver10,2022.2.5,Win32,60.21557175,,,,,,,,,,,,107,testing_3,sh2x,au,sh2x_au,sh2x_1_aushau.wav,sh2x_8_auxau.wav,,FALSE,FALSE,,,,,,,,,,,,,,j,0.8186,space,1.1345,,,,,,,,0,120,120,106,1,,
5b704c7f4ee52200010f68b0,2023-06-16_10h26.32.326,phx_ver10,2022.2.5,Win32,60.21557175,,,,,,,,,,,,81,testing_3,j2x,au,j2x_au,j2x_1_aujau.wav,j2x_1_aujau.wav,,TRUE,FALSE,,,,,,,,,,,,,,f,0.1342,space,0.5501,,,,,,,,0,121,121,80,1,,
5b704c7f4ee52200010f68b0,2023-06-16_10h26.32.326,phx_ver10,2022.2.5,Win32,60.21557175,,,,,,,,,,,,11,testing_1,zh2x,i,zh2x_i,zh2x_1_izhi.wav,zh2x_8_ixi.wav,,FALSE,TRUE,,,,,,,,,,,,,,j,0.1342,space,0.4858,,,,,,,,0,122,122,10,1,,
5b704c7f4ee52200010f68b0,2023-06-16_10h26.32.326,phx_ver10,2022.2.5,Win32,60.21557175,,,,,,,,,,,,2,testing_1,zh2x,a,zh2x_a,zh2x_8_axa.wav,zh2x_8_axa_copy.wav,,TRUE,TRUE,,,,,,,,,,,,,,f,0.7837,space,1.2008,,,,,,,,0,123,123,1,1,,
5b704c7f4ee52200010f68b0,2023-06-16_10h26.32.326,phx_ver10,2022.2.5,Win32,60.21557175,,,,,,,,,,,,12,testing_1,zh2x,i,zh2x_i,zh2x_8_ixi.wav,zh2x_1_izhi.wav,,FALSE,TRUE,,,,,,,,,,,,,,f,0.4674,space,0.8672,,,,,,,,0,124,124,11,1,,
5b704c7f4ee52200010f68b0,2023-06-16_10h26.32.326,phx_ver10,2022.2.5,Win32,60.21557175,,,,,,,,,,,,117,testing_3,sh2x,i,sh2x_i,sh2x_1_ishi.wav,sh2x_1_ishi.wav,,TRUE,FALSE,,,,,,,,,,,,,,f,0.3342,space,0.7175,,,,,,,,0,125,125,116,1,,
5b704c7f4ee52200010f68b0,2023-06-16_10h26.32.326,phx_ver10,2022.2.5,Win32,60.21557175,,,,,,,,,,,,96,testing_3,j2x,i,j2x_i,j2x_8_ixi.wav,j2x_1_iji.wav,,FALSE,FALSE,,,,,,,,,,,,,,j,1.0534,space,1.418,,,,,,,,0,126,126,95,1,,
5b704c7f4ee52200010f68b0,2023-06-16_10h26.32.326,phx_ver10,2022.2.5,Win32,60.21557175,,,,,,,,,,,,118,testing_3,sh2x,i,sh2x_i,sh2x_8_ixi.wav,sh2x_8_ixi.wav,,TRUE,FALSE,,,,,,,,,,,,,,f,0.7297,space,1.0621,,,,,,,,0,127,127,117,1,,
5b704c7f4ee52200010f68b0,2023-06-16_10h26.32.326,phx_ver10,2022.2.5,Win32,60.21557175,,,,,,,,,,,,104,testing_3,sh2x,ai,sh2x_ai,sh2x_8_aixai.wav,sh2x_1_aishai.wav,,FALSE,FALSE,,,,,,,,,,,,,,f,0.3739,space,0.758,,,,,,,,0,128,128,103,1,,
5b704c7f4ee52200010f68b0,2023-06-16_10h26.32.326,phx_ver10,2022.2.5,Win32,60.21557175,,,,,,,,,,,,41,testing_3,zh2sh,ei,zh2sh_ei,zh2sh_1_eizhei.wav,zh2sh_1_eizhei.wav,,TRUE,FALSE,,,,,,,,,,,,,,f,0.6235,space,0.9723,,,,,,,,0,129,129,40,1,,
5b704c7f4ee52200010f68b0,2023-06-16_10h26.32.326,phx_ver10,2022.2.5,Win32,60.21557175,,,,,,,,,,,,130,testing_3,sh2j,au,sh2j_au,sh2j_8_aujau.wav,sh2j_8_aujau.wav,,TRUE,FALSE,,,,,,,,,,,,,,f,0.3008,space,0.7852,,,,,,,,0,130,130,129,1,,
5b704c7f4ee52200010f68b0,2023-06-16_10h26.32.326,phx_ver10,2022.2.5,Win32,60.21557175,,,,,,,,,,,,4,testing_1,zh2x,a,zh2x_a,zh2x_8_axa.wav,zh2x_1_azha.wav,,FALSE,TRUE,,,,,,,,,,,,,,j,0.7167,space,1.0353,,,,,,,,0,131,131,3,1,,
5b704c7f4ee52200010f68b0,2023-06-16_10h26.32.326,phx_ver10,2022.2.5,Win32,60.21557175,,,,,,,,,,,,17,testing_2,zh2x,au,zh2x_au,zh2x_1_auzhau.wav,zh2x_1_auzhau.wav,,TRUE,FALSE,,,,,,,,,,,,,,f,0.1083,space,0.516,,,,,,,,0,132,132,16,1,,
5b704c7f4ee52200010f68b0,2023-06-16_10h26.32.326,phx_ver10,2022.2.5,Win32,60.21557175,,,,,,,,,,,,66,testing_3,zh2j,ei,zh2j_ei,zh2j_8_eijei.wav,zh2j_8_eijei.wav,,TRUE,FALSE,,,,,,,,,,,,,,f,0.0167,space,0.4189,,,,,,,,0,133,133,65,1,,
5b704c7f4ee52200010f68b0,2023-06-16_10h26.32.326,phx_ver10,2022.2.5,Win32,60.21557175,,,,,,,,,,,,93,testing_3,j2x,i,j2x_i,j2x_1_iji.wav,j2x_1_iji.wav,,TRUE,FALSE,,,,,,,,,,,,,,f,0.0858,space,0.558,,,,,,,,0,134,134,92,1,,
5b704c7f4ee52200010f68b0,2023-06-16_10h26.32.326,phx_ver10,2022.2.5,Win32,60.21557175,,,,,,,,,,,,94,testing_3,j2x,i,j2x_i,j2x_8_ixi.wav,j2x_8_ixi.wav,,TRUE,FALSE,,,,,,,,,,,,,,f,0.1189,space,0.5674,,,,,,,,0,135,135,93,1,,
5b704c7f4ee52200010f68b0,2023-06-16_10h26.32.326,phx_ver10,2022.2.5,Win32,60.21557175,,,,,,,,,,,,9,testing_1,zh2x,i,zh2x_i,zh2x_1_izhi.wav,zh2x_1_izhi_copy.wav,,TRUE,TRUE,,,,,,,,,,,,,,f,0.1459,space,0.5547,,,,,,,,0,136,136,8,1,,
5b704c7f4ee52200010f68b0,2023-06-16_10h26.32.326,phx_ver10,2022.2.5,Win32,60.21557175,,,,,,,,,,,,65,testing_3,zh2j,ei,zh2j_ei,zh2j_1_eizhei.wav,zh2j_1_eizhei.wav,,TRUE,FALSE,,,,,,,,,,,,,,f,0.5652,space,0.9657,,,,,,,,0,137,137,64,1,,
5b704c7f4ee52200010f68b0,2023-06-16_10h26.32.326,phx_ver10,2022.2.5,Win32,60.21557175,,,,,,,,,,,,59,testing_3,zh2j,au,zh2j_au,zh2j_1_auzhau.wav,zh2j_8_aujau.wav,,FALSE,FALSE,,,,,,,,,,,,,,f,0.1678,space,0.6165,,,,,,,,0,138,138,58,1,,
5b704c7f4ee52200010f68b0,2023-06-16_10h26.32.326,phx_ver10,2022.2.5,Win32,60.21557175,,,,,,,,,,,,53,testing_3,zh2j,ai,zh2j_ai,zh2j_1_aizhai.wav,zh2j_1_aizhai.wav,,TRUE,FALSE,,,,,,,,,,,,,,f,0.0482,space,0.4988,,,,,,,,0,139,139,52,1,,
5b704c7f4ee52200010f68b0,2023-06-16_10h26.32.326,phx_ver10,2022.2.5,Win32,60.21557175,,,,,,,,,,,,31,testing_3,zh2sh,ai,zh2sh_ai,zh2sh_1_aizhai.wav,zh2sh_8_aishai.wav,,FALSE,FALSE,,,,,,,,,,,,,,f,0.5573,space,1.0694,,,,,,,,0,140,140,30,1,,
5b704c7f4ee52200010f68b0,2023-06-16_10h26.32.326,phx_ver10,2022.2.5,Win32,60.21557175,,,,,,,,,,,,124,testing_3,sh2j,a,sh2j_a,sh2j_8_aja.wav,sh2j_1_asha.wav,,FALSE,FALSE,,,,,,,,,,,,,,f,22.5174,space,23.1677,,,,,,,,0,141,141,123,1,,
5b704c7f4ee52200010f68b0,2023-06-16_10h26.32.326,phx_ver10,2022.2.5,Win32,60.21557175,,,,,,,,,,,,35,testing_3,zh2sh,au,zh2sh_au,zh2sh_1_auzhau.wav,zh2sh_8_aushau.wav,,FALSE,FALSE,,,,,,,,,,,,,,j,0.4007,space,0.6671,,,,,,,,0,142,142,34,1,,
5b704c7f4ee52200010f68b0,2023-06-16_10h26.32.326,phx_ver10,2022.2.5,Win32,60.21557175,,,,,,,,,,,,123,testing_3,sh2j,a,sh2j_a,sh2j_1_asha.wav,sh2j_8_aja.wav,,FALSE,FALSE,,,,,,,,,,,,,,j,0.0575,space,0.3004,,,,,,,,0,143,143,122,1,,
5b704c7f4ee52200010f68b0,2023-06-16_10h26.32.326,phx_ver10,2022.2.5,Win32,60.21557175,,,,,,,,,,,,,,,,,,,,,,,,,,,,,,,,,,,,,,,,,,,,,,,,,,,space,3.4203
