participant,date,expName,psychopyVersion,OS,frameRate,space_1.keys,space_1.rt,space_2.keys,space_2.rt,space_train.keys,space_train.rt,training.thisRepN,training.thisTrialN,training.thisN,training.thisIndex,training.ran,token_id,task,continuum,vowel,series,sound_1,sound_2,img,same,trained,FJ_attn.keys,FJ_attn.rt,space_attn.keys,space_attn.rt,if_attn_test.thisRepN,if_attn_test.thisTrialN,if_attn_test.thisN,if_attn_test.thisIndex,if_attn_test.ran,space_trans_1.keys,space_trans_1.rt,space_trans_11.keys,space_trans_11.rt,FJ_test.keys,FJ_test.rt,space_test.keys,space_test.rt,testing_pre.thisRepN,testing_pre.thisTrialN,testing_pre.thisN,testing_pre.thisIndex,testing_pre.ran,space_trans_2.keys,space_trans_2.rt,testing_all.thisRepN,testing_all.thisTrialN,testing_all.thisN,testing_all.thisIndex,testing_all.ran,space_ending.keys,space_ending.rt
5b7ffeeb05fbbd00016aa0bc,2023-06-16_09h38.16.939,phx_ver10,2022.2.5,Win32,49.99250112,,,,,,,,,,,,,,,,,,,,,,,,,,,,,,,,,,,,,,,,,,,,,,,,,,,,
5b7ffeeb05fbbd00016aa0bc,2023-06-16_09h38.16.939,phx_ver10,2022.2.5,Win32,49.99250112,space,53.2493,,,,,,,,,,,,,,,,,,,,,,,,,,,,,,,,,,,,,,,,,,,,,,,,,,
5b7ffeeb05fbbd00016aa0bc,2023-06-16_09h38.16.939,phx_ver10,2022.2.5,Win32,49.99250112,,,space,1.4296,,,,,,,,,,,,,,,,,,,,,,,,,,,,,,,,,,,,,,,,,,,,,,,,
5b7ffeeb05fbbd00016aa0bc,2023-06-16_09h38.16.939,phx_ver10,2022.2.5,Win32,49.99250112,,,,,space,1.6658,0,0,0,40,1,41,training,zh2x,i,zh2x_i,zh2x_5_ixi.wav,,ixi.jpg,,,,,,,,,,,,,,,,,,,,,,,,,,,,,,,,,
5b7ffeeb05fbbd00016aa0bc,2023-06-16_09h38.16.939,phx_ver10,2022.2.5,Win32,49.99250112,,,,,space,2.2676,0,1,1,2,1,3,training,zh2x,a,zh2x_a,zh2x_2_azha.wav,,azha.jpg,,,,,,,,,,,,,,,,,,,,,,,,,,,,,,,,,
5b7ffeeb05fbbd00016aa0bc,2023-06-16_09h38.16.939,phx_ver10,2022.2.5,Win32,49.99250112,,,,,space,0.2451,0,2,2,4,1,5,training,zh2x,a,zh2x_a,zh2x_2_azha.wav,,azha.jpg,,,,,,,,,,,,,,,,,,,,,,,,,,,,,,,,,
5b7ffeeb05fbbd00016aa0bc,2023-06-16_09h38.16.939,phx_ver10,2022.2.5,Win32,49.99250112,,,,,space,1.3429,0,3,3,20,1,21,training,zh2x,e,zh2x_e,zh2x_2_ezhe.wav,,ezhe.jpg,,,,,,,,,,,,,,,,,,,,,,,,,,,,,,,,,
5b7ffeeb05fbbd00016aa0bc,2023-06-16_09h38.16.939,phx_ver10,2022.2.5,Win32,49.99250112,,,,,space,0.5041,0,4,4,46,1,47,training,zh2x,i,zh2x_i,zh2x_7_ixi.wav,,ixi.jpg,,,,,,,,,,,,,,,,,,,,,,,,,,,,,,,,,
5b7ffeeb05fbbd00016aa0bc,2023-06-16_09h38.16.939,phx_ver10,2022.2.5,Win32,49.99250112,,,,,space,1.2631,0,5,5,9,1,10,training,zh2x,a,zh2x_a,zh2x_6_axa.wav,,axa.jpg,,,,,,,,,,,,,,,,,,,,,,,,,,,,,,,,,
5b7ffeeb05fbbd00016aa0bc,2023-06-16_09h38.16.939,phx_ver10,2022.2.5,Win32,49.99250112,,,,,,,,,,,,,attn_test,,,,zh2x_1_azha.wav,zh2x_1_ezhe.wav,azha.jpg,LEFT,,f,1.0773,space,3.1574,0,0,0,0,1,,,,,,,,,,,,,,,,,,,,,,
5b7ffeeb05fbbd00016aa0bc,2023-06-16_09h38.16.939,phx_ver10,2022.2.5,Win32,49.99250112,,,,,space,0.7607,0,6,6,42,1,43,training,zh2x,i,zh2x_i,zh2x_6_ixi.wav,,ixi.jpg,,,,,,,,,,,,,,,,,,,,,,,,,,,,,,,,,
5b7ffeeb05fbbd00016aa0bc,2023-06-16_09h38.16.939,phx_ver10,2022.2.5,Win32,49.99250112,,,,,space,0.7193,0,7,7,11,1,12,training,zh2x,a,zh2x_a,zh2x_7_axa.wav,,axa.jpg,,,,,,,,,,,,,,,,,,,,,,,,,,,,,,,,,
5b7ffeeb05fbbd00016aa0bc,2023-06-16_09h38.16.939,phx_ver10,2022.2.5,Win32,49.99250112,,,,,space,1.0613,0,8,8,26,1,27,training,zh2x,e,zh2x_e,zh2x_6_exe.wav,,exe.jpg,,,,,,,,,,,,,,,,,,,,,,,,,,,,,,,,,
5b7ffeeb05fbbd00016aa0bc,2023-06-16_09h38.16.939,phx_ver10,2022.2.5,Win32,49.99250112,,,,,space,0.6783,0,9,9,43,1,44,training,zh2x,i,zh2x_i,zh2x_7_ixi.wav,,ixi.jpg,,,,,,,,,,,,,,,,,,,,,,,,,,,,,,,,,
5b7ffeeb05fbbd00016aa0bc,2023-06-16_09h38.16.939,phx_ver10,2022.2.5,Win32,49.99250112,,,,,space,0.5816,0,10,10,38,1,39,training,zh2x,i,zh2x_i,zh2x_3_izhi.wav,,izhi.jpg,,,,,,,,,,,,,,,,,,,,,,,,,,,,,,,,,
5b7ffeeb05fbbd00016aa0bc,2023-06-16_09h38.16.939,phx_ver10,2022.2.5,Win32,49.99250112,,,,,space,0.1609,0,11,11,47,1,48,training,zh2x,i,zh2x_i,zh2x_8_ixi.wav,,ixi.jpg,,,,,,,,,,,,,,,,,,,,,,,,,,,,,,,,,
5b7ffeeb05fbbd00016aa0bc,2023-06-16_09h38.16.939,phx_ver10,2022.2.5,Win32,49.99250112,,,,,,,,,,,,,attn_test,,,,zh2x_8_ixi.wav,zh2x_1_ezhe.wav,ixi.jpg,LEFT,,f,0.135,space,1.0531,0,0,0,0,1,,,,,,,,,,,,,,,,,,,,,,
5b7ffeeb05fbbd00016aa0bc,2023-06-16_09h38.16.939,phx_ver10,2022.2.5,Win32,49.99250112,,,,,space,0.5647,0,12,12,44,1,45,training,zh2x,i,zh2x_i,zh2x_7_ixi.wav,,ixi.jpg,,,,,,,,,,,,,,,,,,,,,,,,,,,,,,,,,
5b7ffeeb05fbbd00016aa0bc,2023-06-16_09h38.16.939,phx_ver10,2022.2.5,Win32,49.99250112,,,,,space,0.5208,0,13,13,36,1,37,training,zh2x,i,zh2x_i,zh2x_2_izhi.wav,,izhi.jpg,,,,,,,,,,,,,,,,,,,,,,,,,,,,,,,,,
5b7ffeeb05fbbd00016aa0bc,2023-06-16_09h38.16.939,phx_ver10,2022.2.5,Win32,49.99250112,,,,,space,0.7457,0,14,14,3,1,4,training,zh2x,a,zh2x_a,zh2x_2_azha.wav,,azha.jpg,,,,,,,,,,,,,,,,,,,,,,,,,,,,,,,,,
5b7ffeeb05fbbd00016aa0bc,2023-06-16_09h38.16.939,phx_ver10,2022.2.5,Win32,49.99250112,,,,,space,0.8387,0,15,15,19,1,20,training,zh2x,e,zh2x_e,zh2x_2_ezhe.wav,,ezhe.jpg,,,,,,,,,,,,,,,,,,,,,,,,,,,,,,,,,
5b7ffeeb05fbbd00016aa0bc,2023-06-16_09h38.16.939,phx_ver10,2022.2.5,Win32,49.99250112,,,,,space,0.468,0,16,16,5,1,6,training,zh2x,a,zh2x_a,zh2x_3_azha.wav,,azha.jpg,,,,,,,,,,,,,,,,,,,,,,,,,,,,,,,,,
5b7ffeeb05fbbd00016aa0bc,2023-06-16_09h38.16.939,phx_ver10,2022.2.5,Win32,49.99250112,,,,,space,0.2632,0,17,17,29,1,30,training,zh2x,e,zh2x_e,zh2x_7_exe.wav,,exe.jpg,,,,,,,,,,,,,,,,,,,,,,,,,,,,,,,,,
5b7ffeeb05fbbd00016aa0bc,2023-06-16_09h38.16.939,phx_ver10,2022.2.5,Win32,49.99250112,,,,,,,,,,,,,attn_test,,,,zh2x_8_exe.wav,zh2x_8_ixi.wav,ixi.jpg,RIGHT,,j,1.1421,space,1.5601,0,0,0,0,1,,,,,,,,,,,,,,,,,,,,,,
5b7ffeeb05fbbd00016aa0bc,2023-06-16_09h38.16.939,phx_ver10,2022.2.5,Win32,49.99250112,,,,,space,0.5631,0,18,18,22,1,23,training,zh2x,e,zh2x_e,zh2x_3_ezhe.wav,,ezhe.jpg,,,,,,,,,,,,,,,,,,,,,,,,,,,,,,,,,
5b7ffeeb05fbbd00016aa0bc,2023-06-16_09h38.16.939,phx_ver10,2022.2.5,Win32,49.99250112,,,,,space,0.222,0,19,19,27,1,28,training,zh2x,e,zh2x_e,zh2x_7_exe.wav,,exe.jpg,,,,,,,,,,,,,,,,,,,,,,,,,,,,,,,,,
5b7ffeeb05fbbd00016aa0bc,2023-06-16_09h38.16.939,phx_ver10,2022.2.5,Win32,49.99250112,,,,,space,0.5936,0,20,20,35,1,36,training,zh2x,i,zh2x_i,zh2x_2_izhi.wav,,izhi.jpg,,,,,,,,,,,,,,,,,,,,,,,,,,,,,,,,,
5b7ffeeb05fbbd00016aa0bc,2023-06-16_09h38.16.939,phx_ver10,2022.2.5,Win32,49.99250112,,,,,space,0.5637,0,21,21,12,1,13,training,zh2x,a,zh2x_a,zh2x_7_axa.wav,,axa.jpg,,,,,,,,,,,,,,,,,,,,,,,,,,,,,,,,,
5b7ffeeb05fbbd00016aa0bc,2023-06-16_09h38.16.939,phx_ver10,2022.2.5,Win32,49.99250112,,,,,space,0.5614,0,22,22,30,1,31,training,zh2x,e,zh2x_e,zh2x_7_exe.wav,,exe.jpg,,,,,,,,,,,,,,,,,,,,,,,,,,,,,,,,,
5b7ffeeb05fbbd00016aa0bc,2023-06-16_09h38.16.939,phx_ver10,2022.2.5,Win32,49.99250112,,,,,space,0.4612,0,23,23,1,1,2,training,zh2x,a,zh2x_a,zh2x_2_azha.wav,,azha.jpg,,,,,,,,,,,,,,,,,,,,,,,,,,,,,,,,,
5b7ffeeb05fbbd00016aa0bc,2023-06-16_09h38.16.939,phx_ver10,2022.2.5,Win32,49.99250112,,,,,,,,,,,,,attn_test,,,,zh2x_1_azha.wav,zh2x_8_exe.wav,azha.jpg,LEFT,,f,0.339,space,0.964,0,0,0,0,1,,,,,,,,,,,,,,,,,,,,,,
5b7ffeeb05fbbd00016aa0bc,2023-06-16_09h38.16.939,phx_ver10,2022.2.5,Win32,49.99250112,,,,,space,0.5586,0,24,24,31,1,32,training,zh2x,e,zh2x_e,zh2x_8_exe.wav,,exe.jpg,,,,,,,,,,,,,,,,,,,,,,,,,,,,,,,,,
5b7ffeeb05fbbd00016aa0bc,2023-06-16_09h38.16.939,phx_ver10,2022.2.5,Win32,49.99250112,,,,,space,0.3609,0,25,25,16,1,17,training,zh2x,e,zh2x_e,zh2x_1_ezhe.wav,,ezhe.jpg,,,,,,,,,,,,,,,,,,,,,,,,,,,,,,,,,
5b7ffeeb05fbbd00016aa0bc,2023-06-16_09h38.16.939,phx_ver10,2022.2.5,Win32,49.99250112,,,,,space,0.2843,0,26,26,17,1,18,training,zh2x,e,zh2x_e,zh2x_2_ezhe.wav,,ezhe.jpg,,,,,,,,,,,,,,,,,,,,,,,,,,,,,,,,,
5b7ffeeb05fbbd00016aa0bc,2023-06-16_09h38.16.939,phx_ver10,2022.2.5,Win32,49.99250112,,,,,space,0.3434,0,27,27,24,1,25,training,zh2x,e,zh2x_e,zh2x_5_exe.wav,,exe.jpg,,,,,,,,,,,,,,,,,,,,,,,,,,,,,,,,,
5b7ffeeb05fbbd00016aa0bc,2023-06-16_09h38.16.939,phx_ver10,2022.2.5,Win32,49.99250112,,,,,space,0.4627,0,28,28,15,1,16,training,zh2x,a,zh2x_a,zh2x_8_axa.wav,,axa.jpg,,,,,,,,,,,,,,,,,,,,,,,,,,,,,,,,,
5b7ffeeb05fbbd00016aa0bc,2023-06-16_09h38.16.939,phx_ver10,2022.2.5,Win32,49.99250112,,,,,space,0.3753,0,29,29,21,1,22,training,zh2x,e,zh2x_e,zh2x_3_ezhe.wav,,ezhe.jpg,,,,,,,,,,,,,,,,,,,,,,,,,,,,,,,,,
5b7ffeeb05fbbd00016aa0bc,2023-06-16_09h38.16.939,phx_ver10,2022.2.5,Win32,49.99250112,,,,,,,,,,,,,attn_test,,,,zh2x_1_ezhe.wav,zh2x_8_ixi.wav,ezhe.jpg,LEFT,,f,0.6963,space,1.3375,0,0,0,0,1,,,,,,,,,,,,,,,,,,,,,,
5b7ffeeb05fbbd00016aa0bc,2023-06-16_09h38.16.939,phx_ver10,2022.2.5,Win32,49.99250112,,,,,space,0.3014,0,30,30,28,1,29,training,zh2x,e,zh2x_e,zh2x_7_exe.wav,,exe.jpg,,,,,,,,,,,,,,,,,,,,,,,,,,,,,,,,,
5b7ffeeb05fbbd00016aa0bc,2023-06-16_09h38.16.939,phx_ver10,2022.2.5,Win32,49.99250112,,,,,space,0.3639,0,31,31,33,1,34,training,zh2x,i,zh2x_i,zh2x_2_izhi.wav,,izhi.jpg,,,,,,,,,,,,,,,,,,,,,,,,,,,,,,,,,
5b7ffeeb05fbbd00016aa0bc,2023-06-16_09h38.16.939,phx_ver10,2022.2.5,Win32,49.99250112,,,,,space,0.1481,0,32,32,45,1,46,training,zh2x,i,zh2x_i,zh2x_7_ixi.wav,,ixi.jpg,,,,,,,,,,,,,,,,,,,,,,,,,,,,,,,,,
5b7ffeeb05fbbd00016aa0bc,2023-06-16_09h38.16.939,phx_ver10,2022.2.5,Win32,49.99250112,,,,,space,0.1307,0,33,33,34,1,35,training,zh2x,i,zh2x_i,zh2x_2_izhi.wav,,izhi.jpg,,,,,,,,,,,,,,,,,,,,,,,,,,,,,,,,,
5b7ffeeb05fbbd00016aa0bc,2023-06-16_09h38.16.939,phx_ver10,2022.2.5,Win32,49.99250112,,,,,space,0.0614,0,34,34,10,1,11,training,zh2x,a,zh2x_a,zh2x_6_axa.wav,,axa.jpg,,,,,,,,,,,,,,,,,,,,,,,,,,,,,,,,,
5b7ffeeb05fbbd00016aa0bc,2023-06-16_09h38.16.939,phx_ver10,2022.2.5,Win32,49.99250112,,,,,space,0.0018,0,35,35,25,1,26,training,zh2x,e,zh2x_e,zh2x_6_exe.wav,,exe.jpg,,,,,,,,,,,,,,,,,,,,,,,,,,,,,,,,,
5b7ffeeb05fbbd00016aa0bc,2023-06-16_09h38.16.939,phx_ver10,2022.2.5,Win32,49.99250112,,,,,,,,,,,,,attn_test,,,,zh2x_8_axa.wav,zh2x_8_ixi.wav,axa.jpg,LEFT,,f,0.4021,space,0.9986,0,0,0,0,1,,,,,,,,,,,,,,,,,,,,,,
5b7ffeeb05fbbd00016aa0bc,2023-06-16_09h38.16.939,phx_ver10,2022.2.5,Win32,49.99250112,,,,,space,0.4318,0,36,36,8,1,9,training,zh2x,a,zh2x_a,zh2x_5_axa.wav,,axa.jpg,,,,,,,,,,,,,,,,,,,,,,,,,,,,,,,,,
5b7ffeeb05fbbd00016aa0bc,2023-06-16_09h38.16.939,phx_ver10,2022.2.5,Win32,49.99250112,,,,,space,0.1998,0,37,37,0,1,1,training,zh2x,a,zh2x_a,zh2x_1_azha.wav,,azha.jpg,,,,,,,,,,,,,,,,,,,,,,,,,,,,,,,,,
5b7ffeeb05fbbd00016aa0bc,2023-06-16_09h38.16.939,phx_ver10,2022.2.5,Win32,49.99250112,,,,,space,0.4235,0,38,38,23,1,24,training,zh2x,e,zh2x_e,zh2x_4_ezhe.wav,,ezhe.jpg,,,,,,,,,,,,,,,,,,,,,,,,,,,,,,,,,
5b7ffeeb05fbbd00016aa0bc,2023-06-16_09h38.16.939,phx_ver10,2022.2.5,Win32,49.99250112,,,,,space,0.3937,0,39,39,7,1,8,training,zh2x,a,zh2x_a,zh2x_4_azha.wav,,azha.jpg,,,,,,,,,,,,,,,,,,,,,,,,,,,,,,,,,
5b7ffeeb05fbbd00016aa0bc,2023-06-16_09h38.16.939,phx_ver10,2022.2.5,Win32,49.99250112,,,,,space,0.3193,0,40,40,39,1,40,training,zh2x,i,zh2x_i,zh2x_4_izhi.wav,,izhi.jpg,,,,,,,,,,,,,,,,,,,,,,,,,,,,,,,,,
5b7ffeeb05fbbd00016aa0bc,2023-06-16_09h38.16.939,phx_ver10,2022.2.5,Win32,49.99250112,,,,,space,0.1127,0,41,41,41,1,42,training,zh2x,i,zh2x_i,zh2x_6_ixi.wav,,ixi.jpg,,,,,,,,,,,,,,,,,,,,,,,,,,,,,,,,,
5b7ffeeb05fbbd00016aa0bc,2023-06-16_09h38.16.939,phx_ver10,2022.2.5,Win32,49.99250112,,,,,,,,,,,,,attn_test,,,,zh2x_1_azha.wav,zh2x_8_axa.wav,azha.jpg,LEFT,,f,0.8502,space,2.1539,0,0,0,0,1,,,,,,,,,,,,,,,,,,,,,,
5b7ffeeb05fbbd00016aa0bc,2023-06-16_09h38.16.939,phx_ver10,2022.2.5,Win32,49.99250112,,,,,space,0.3413,0,42,42,13,1,14,training,zh2x,a,zh2x_a,zh2x_7_axa.wav,,axa.jpg,,,,,,,,,,,,,,,,,,,,,,,,,,,,,,,,,
5b7ffeeb05fbbd00016aa0bc,2023-06-16_09h38.16.939,phx_ver10,2022.2.5,Win32,49.99250112,,,,,space,0.8436,0,43,43,6,1,7,training,zh2x,a,zh2x_a,zh2x_3_azha.wav,,azha.jpg,,,,,,,,,,,,,,,,,,,,,,,,,,,,,,,,,
5b7ffeeb05fbbd00016aa0bc,2023-06-16_09h38.16.939,phx_ver10,2022.2.5,Win32,49.99250112,,,,,space,0.4621,0,44,44,32,1,33,training,zh2x,i,zh2x_i,zh2x_1_izhi.wav,,izhi.jpg,,,,,,,,,,,,,,,,,,,,,,,,,,,,,,,,,
5b7ffeeb05fbbd00016aa0bc,2023-06-16_09h38.16.939,phx_ver10,2022.2.5,Win32,49.99250112,,,,,space,0.6301,0,45,45,37,1,38,training,zh2x,i,zh2x_i,zh2x_3_izhi.wav,,izhi.jpg,,,,,,,,,,,,,,,,,,,,,,,,,,,,,,,,,
5b7ffeeb05fbbd00016aa0bc,2023-06-16_09h38.16.939,phx_ver10,2022.2.5,Win32,49.99250112,,,,,space,0.3021,0,46,46,18,1,19,training,zh2x,e,zh2x_e,zh2x_2_ezhe.wav,,ezhe.jpg,,,,,,,,,,,,,,,,,,,,,,,,,,,,,,,,,
5b7ffeeb05fbbd00016aa0bc,2023-06-16_09h38.16.939,phx_ver10,2022.2.5,Win32,49.99250112,,,,,space,0.8223,0,47,47,14,1,15,training,zh2x,a,zh2x_a,zh2x_7_axa.wav,,axa.jpg,,,,,,,,,,,,,,,,,,,,,,,,,,,,,,,,,
5b7ffeeb05fbbd00016aa0bc,2023-06-16_09h38.16.939,phx_ver10,2022.2.5,Win32,49.99250112,,,,,,,,,,,,,attn_test,,,,zh2x_1_izhi.wav,zh2x_8_axa.wav,axa.jpg,RIGHT,,j,0.0433,space,0.7159,,,,,,,,,,,,,,,,,,,,,,,,,,,
5b7ffeeb05fbbd00016aa0bc,2023-06-16_09h38.16.939,phx_ver10,2022.2.5,Win32,49.99250112,,,,,,,,,,,,,,,,,,,,,,,,,,,,,,,space,0.9218,,,,,,,,,,,,,,,,,,,,
5b7ffeeb05fbbd00016aa0bc,2023-06-16_09h38.16.939,phx_ver10,2022.2.5,Win32,49.99250112,,,,,,,,,,,,,,,,,,,,,,,,,,,,,,,,,space,6.659,,,,,,,,,,,,,,,,,,
5b7ffeeb05fbbd00016aa0bc,2023-06-16_09h38.16.939,phx_ver10,2022.2.5,Win32,49.99250112,,,,,,,,,,,,1,testing_pre,,,,ifi.wav,ifi.wav,,TRUE,,,,,,,,,,,,,,,f,1.2971,space,2.4368,0,0,0,0,1,,,,,,,,,
5b7ffeeb05fbbd00016aa0bc,2023-06-16_09h38.16.939,phx_ver10,2022.2.5,Win32,49.99250112,,,,,,,,,,,,2,testing_pre,,,,auhau.wav,aufau.wav,,FALSE,,,,,,,,,,,,,,,j,0.7022,space,1.1677,0,1,1,1,1,,,,,,,,,
5b7ffeeb05fbbd00016aa0bc,2023-06-16_09h38.16.939,phx_ver10,2022.2.5,Win32,49.99250112,,,,,,,,,,,,3,testing_pre,,,,afa.wav,aha.wav,,FALSE,,,,,,,,,,,,,,,j,0.2638,space,0.762,0,2,2,2,1,,,,,,,,,
5b7ffeeb05fbbd00016aa0bc,2023-06-16_09h38.16.939,phx_ver10,2022.2.5,Win32,49.99250112,,,,,,,,,,,,5,testing_pre,,,,ihi.wav,ifi.wav,,FALSE,,,,,,,,,,,,,,,j,0.2219,space,0.7932,0,3,3,4,1,,,,,,,,,
5b7ffeeb05fbbd00016aa0bc,2023-06-16_09h38.16.939,phx_ver10,2022.2.5,Win32,49.99250112,,,,,,,,,,,,4,testing_pre,,,,eihei.wav,eihei.wav,,TRUE,,,,,,,,,,,,,,,f,0.3827,space,0.9447,0,4,4,3,1,,,,,,,,,
5b7ffeeb05fbbd00016aa0bc,2023-06-16_09h38.16.939,phx_ver10,2022.2.5,Win32,49.99250112,,,,,,,,,,,,,,,,,,,,,,,,,,,,,,,,,,,,,,,,,,,,space,0.5919,,,,,,,
5b7ffeeb05fbbd00016aa0bc,2023-06-16_09h38.16.939,phx_ver10,2022.2.5,Win32,49.99250112,,,,,,,,,,,,114,testing_3,sh2x,ei,sh2x_ei,sh2x_8_eixei.wav,sh2x_8_eixei.wav,,TRUE,FALSE,,,,,,,,,,,,,,f,0.3822,space,0.8039,,,,,,,,0,0,0,113,1,,
5b7ffeeb05fbbd00016aa0bc,2023-06-16_09h38.16.939,phx_ver10,2022.2.5,Win32,49.99250112,,,,,,,,,,,,144,testing_3,sh2j,i,sh2j_i,sh2j_8_iji.wav,sh2j_1_ishi.wav,,FALSE,FALSE,,,,,,,,,,,,,,j,0.3029,space,1.6852,,,,,,,,0,1,1,143,1,,
5b7ffeeb05fbbd00016aa0bc,2023-06-16_09h38.16.939,phx_ver10,2022.2.5,Win32,49.99250112,,,,,,,,,,,,61,testing_3,zh2j,e,zh2j_e,zh2j_1_ezhe.wav,zh2j_1_ezhe.wav,,TRUE,FALSE,,,,,,,,,,,,,,f,0.4708,space,0.9159,,,,,,,,0,2,2,60,1,,
5b7ffeeb05fbbd00016aa0bc,2023-06-16_09h38.16.939,phx_ver10,2022.2.5,Win32,49.99250112,,,,,,,,,,,,122,testing_3,sh2j,a,sh2j_a,sh2j_8_aja.wav,sh2j_8_aja.wav,,TRUE,FALSE,,,,,,,,,,,,,,f,0.2621,space,0.6833,,,,,,,,0,3,3,121,1,,
5b7ffeeb05fbbd00016aa0bc,2023-06-16_09h38.16.939,phx_ver10,2022.2.5,Win32,49.99250112,,,,,,,,,,,,100,testing_3,sh2x,a,sh2x_a,sh2x_8_axa.wav,sh2x_1_asha.wav,,FALSE,FALSE,,,,,,,,,,,,,,f,0.3825,space,0.8473,,,,,,,,0,4,4,99,1,,
5b7ffeeb05fbbd00016aa0bc,2023-06-16_09h38.16.939,phx_ver10,2022.2.5,Win32,49.99250112,,,,,,,,,,,,30,testing_3,zh2sh,ai,zh2sh_ai,zh2sh_8_aishai.wav,zh2sh_8_aishai.wav,,TRUE,FALSE,,,,,,,,,,,,,,f,0.3415,space,0.7873,,,,,,,,0,5,5,29,1,,
5b7ffeeb05fbbd00016aa0bc,2023-06-16_09h38.16.939,phx_ver10,2022.2.5,Win32,49.99250112,,,,,,,,,,,,76,testing_3,j2x,a,j2x_a,j2x_8_axa.wav,j2x_1_aja.wav,,FALSE,FALSE,,,,,,,,,,,,,,j,0.2663,space,0.6484,,,,,,,,0,6,6,75,1,,
5b7ffeeb05fbbd00016aa0bc,2023-06-16_09h38.16.939,phx_ver10,2022.2.5,Win32,49.99250112,,,,,,,,,,,,127,testing_3,sh2j,ai,sh2j_ai,sh2j_1_aishai.wav,sh2j_8_aijai.wav,,FALSE,FALSE,,,,,,,,,,,,,,j,0.1952,space,0.558,,,,,,,,0,7,7,126,1,,
5b7ffeeb05fbbd00016aa0bc,2023-06-16_09h38.16.939,phx_ver10,2022.2.5,Win32,49.99250112,,,,,,,,,,,,120,testing_3,sh2x,i,sh2x_i,sh2x_8_ixi.wav,sh2x_1_ishi.wav,,FALSE,FALSE,,,,,,,,,,,,,,f,0.1467,space,1.1077,,,,,,,,0,8,8,119,1,,
5b7ffeeb05fbbd00016aa0bc,2023-06-16_09h38.16.939,phx_ver10,2022.2.5,Win32,49.99250112,,,,,,,,,,,,70,testing_3,zh2j,i,zh2j_i,zh2j_8_iji.wav,zh2j_8_iji.wav,,TRUE,FALSE,,,,,,,,,,,,,,f,0.2017,space,0.5827,,,,,,,,0,9,9,69,1,,
5b7ffeeb05fbbd00016aa0bc,2023-06-16_09h38.16.939,phx_ver10,2022.2.5,Win32,49.99250112,,,,,,,,,,,,23,testing_2,zh2x,ei,zh2x_ei,zh2x_1_eizhei.wav,zh2x_8_eixei.wav,,FALSE,FALSE,,,,,,,,,,,,,,j,0.1104,space,0.4762,,,,,,,,0,10,10,22,1,,
5b7ffeeb05fbbd00016aa0bc,2023-06-16_09h38.16.939,phx_ver10,2022.2.5,Win32,49.99250112,,,,,,,,,,,,83,testing_3,j2x,au,j2x_au,j2x_1_aujau.wav,j2x_8_auxau.wav,,FALSE,FALSE,,,,,,,,,,,,,,j,1.1188,space,1.6423,,,,,,,,0,11,11,82,1,,
5b7ffeeb05fbbd00016aa0bc,2023-06-16_09h38.16.939,phx_ver10,2022.2.5,Win32,49.99250112,,,,,,,,,,,,64,testing_3,zh2j,e,zh2j_e,zh2j_8_eje.wav,zh2j_1_ezhe.wav,,FALSE,FALSE,,,,,,,,,,,,,,f,0.3627,space,0.8397,,,,,,,,0,12,12,63,1,,
5b7ffeeb05fbbd00016aa0bc,2023-06-16_09h38.16.939,phx_ver10,2022.2.5,Win32,49.99250112,,,,,,,,,,,,52,testing_3,zh2j,a,zh2j_a,zh2j_8_aja.wav,zh2j_1_azha.wav,,FALSE,FALSE,,,,,,,,,,,,,,f,0.1414,space,0.5619,,,,,,,,0,13,13,51,1,,
5b7ffeeb05fbbd00016aa0bc,2023-06-16_09h38.16.939,phx_ver10,2022.2.5,Win32,49.99250112,,,,,,,,,,,,92,testing_3,j2x,ei,j2x_ei,j2x_8_eixei.wav,j2x_1_eijei.wav,,FALSE,FALSE,,,,,,,,,,,,,,j,0.5224,space,0.8197,,,,,,,,0,14,14,91,1,,
5b7ffeeb05fbbd00016aa0bc,2023-06-16_09h38.16.939,phx_ver10,2022.2.5,Win32,49.99250112,,,,,,,,,,,,141,testing_3,sh2j,i,sh2j_i,sh2j_1_ishi.wav,sh2j_1_ishi.wav,,TRUE,FALSE,,,,,,,,,,,,,,f,0.1433,space,0.5202,,,,,,,,0,15,15,140,1,,
5b7ffeeb05fbbd00016aa0bc,2023-06-16_09h38.16.939,phx_ver10,2022.2.5,Win32,49.99250112,,,,,,,,,,,,106,testing_3,sh2x,au,sh2x_au,sh2x_8_auxau.wav,sh2x_8_auxau.wav,,TRUE,FALSE,,,,,,,,,,,,,,f,0.2588,space,0.6219,,,,,,,,0,16,16,105,1,,
5b7ffeeb05fbbd00016aa0bc,2023-06-16_09h38.16.939,phx_ver10,2022.2.5,Win32,49.99250112,,,,,,,,,,,,123,testing_3,sh2j,a,sh2j_a,sh2j_1_asha.wav,sh2j_8_aja.wav,,FALSE,FALSE,,,,,,,,,,,,,,j,0.0817,space,0.4792,,,,,,,,0,17,17,122,1,,
5b7ffeeb05fbbd00016aa0bc,2023-06-16_09h38.16.939,phx_ver10,2022.2.5,Win32,49.99250112,,,,,,,,,,,,36,testing_3,zh2sh,au,zh2sh_au,zh2sh_8_aushau.wav,zh2sh_1_auzhau.wav,,FALSE,FALSE,,,,,,,,,,,,,,j,0.1616,space,1.4067,,,,,,,,0,18,18,35,1,,
5b7ffeeb05fbbd00016aa0bc,2023-06-16_09h38.16.939,phx_ver10,2022.2.5,Win32,49.99250112,,,,,,,,,,,,43,testing_3,zh2sh,ei,zh2sh_ei,zh2sh_1_eizhei.wav,zh2sh_8_eishei.wav,,FALSE,FALSE,,,,,,,,,,,,,,j,0.5066,space,0.8265,,,,,,,,0,19,19,42,1,,
5b7ffeeb05fbbd00016aa0bc,2023-06-16_09h38.16.939,phx_ver10,2022.2.5,Win32,49.99250112,,,,,,,,,,,,78,testing_3,j2x,ai,j2x_ai,j2x_8_aixai.wav,j2x_8_aixai.wav,,TRUE,FALSE,,,,,,,,,,,,,,f,0.8425,space,1.1998,,,,,,,,0,20,20,77,1,,
5b7ffeeb05fbbd00016aa0bc,2023-06-16_09h38.16.939,phx_ver10,2022.2.5,Win32,49.99250112,,,,,,,,,,,,12,testing_1,zh2x,i,zh2x_i,zh2x_8_ixi.wav,zh2x_1_izhi.wav,,FALSE,TRUE,,,,,,,,,,,,,,j,0.1222,space,0.486,,,,,,,,0,21,21,11,1,,
5b7ffeeb05fbbd00016aa0bc,2023-06-16_09h38.16.939,phx_ver10,2022.2.5,Win32,49.99250112,,,,,,,,,,,,104,testing_3,sh2x,ai,sh2x_ai,sh2x_8_aixai.wav,sh2x_1_aishai.wav,,FALSE,FALSE,,,,,,,,,,,,,,f,0.2226,space,0.596,,,,,,,,0,22,22,103,1,,
5b7ffeeb05fbbd00016aa0bc,2023-06-16_09h38.16.939,phx_ver10,2022.2.5,Win32,49.99250112,,,,,,,,,,,,115,testing_3,sh2x,ei,sh2x_ei,sh2x_1_eishei.wav,sh2x_8_eixei.wav,,FALSE,FALSE,,,,,,,,,,,,,,f,0.2412,space,1.1256,,,,,,,,0,23,23,114,1,,
5b7ffeeb05fbbd00016aa0bc,2023-06-16_09h38.16.939,phx_ver10,2022.2.5,Win32,49.99250112,,,,,,,,,,,,99,testing_3,sh2x,a,sh2x_a,sh2x_1_asha.wav,sh2x_8_axa.wav,,FALSE,FALSE,,,,,,,,,,,,,,f,0.227,space,0.5612,,,,,,,,0,24,24,98,1,,
5b7ffeeb05fbbd00016aa0bc,2023-06-16_09h38.16.939,phx_ver10,2022.2.5,Win32,49.99250112,,,,,,,,,,,,24,testing_2,zh2x,ei,zh2x_ei,zh2x_8_eixei.wav,zh2x_1_eizhei.wav,,FALSE,FALSE,,,,,,,,,,,,,,j,0.1173,space,0.4817,,,,,,,,0,25,25,23,1,,
5b7ffeeb05fbbd00016aa0bc,2023-06-16_09h38.16.939,phx_ver10,2022.2.5,Win32,49.99250112,,,,,,,,,,,,86,testing_3,j2x,e,j2x_e,j2x_8_exe.wav,j2x_8_exe.wav,,TRUE,FALSE,,,,,,,,,,,,,,f,0.199,space,0.503,,,,,,,,0,26,26,85,1,,
5b7ffeeb05fbbd00016aa0bc,2023-06-16_09h38.16.939,phx_ver10,2022.2.5,Win32,49.99250112,,,,,,,,,,,,26,testing_3,zh2sh,a,zh2sh_a,zh2sh_8_asha.wav,zh2sh_8_asha.wav,,TRUE,FALSE,,,,,,,,,,,,,,f,0.1856,space,0.5645,,,,,,,,0,27,27,25,1,,
5b7ffeeb05fbbd00016aa0bc,2023-06-16_09h38.16.939,phx_ver10,2022.2.5,Win32,49.99250112,,,,,,,,,,,,60,testing_3,zh2j,au,zh2j_au,zh2j_8_aujau.wav,zh2j_1_auzhau.wav,,FALSE,FALSE,,,,,,,,,,,,,,f,0.1619,space,0.5197,,,,,,,,0,28,28,59,1,,
5b7ffeeb05fbbd00016aa0bc,2023-06-16_09h38.16.939,phx_ver10,2022.2.5,Win32,49.99250112,,,,,,,,,,,,143,testing_3,sh2j,i,sh2j_i,sh2j_1_ishi.wav,sh2j_8_iji.wav,,FALSE,FALSE,,,,,,,,,,,,,,j,0.0819,space,0.4207,,,,,,,,0,29,29,142,1,,
5b7ffeeb05fbbd00016aa0bc,2023-06-16_09h38.16.939,phx_ver10,2022.2.5,Win32,49.99250112,,,,,,,,,,,,11,testing_1,zh2x,i,zh2x_i,zh2x_1_izhi.wav,zh2x_8_ixi.wav,,FALSE,TRUE,,,,,,,,,,,,,,j,0.6422,space,0.9279,,,,,,,,0,30,30,10,1,,
5b7ffeeb05fbbd00016aa0bc,2023-06-16_09h38.16.939,phx_ver10,2022.2.5,Win32,49.99250112,,,,,,,,,,,,108,testing_3,sh2x,au,sh2x_au,sh2x_8_auxau.wav,sh2x_1_aushau.wav,,FALSE,FALSE,,,,,,,,,,,,,,f,0.184,space,0.5413,,,,,,,,0,31,31,107,1,,
5b7ffeeb05fbbd00016aa0bc,2023-06-16_09h38.16.939,phx_ver10,2022.2.5,Win32,49.99250112,,,,,,,,,,,,96,testing_3,j2x,i,j2x_i,j2x_8_ixi.wav,j2x_1_iji.wav,,FALSE,FALSE,,,,,,,,,,,,,,j,0.1252,space,0.4842,,,,,,,,0,32,32,95,1,,
5b7ffeeb05fbbd00016aa0bc,2023-06-16_09h38.16.939,phx_ver10,2022.2.5,Win32,49.99250112,,,,,,,,,,,,93,testing_3,j2x,i,j2x_i,j2x_1_iji.wav,j2x_1_iji.wav,,TRUE,FALSE,,,,,,,,,,,,,,f,0.1637,space,0.5408,,,,,,,,0,33,33,92,1,,
5b7ffeeb05fbbd00016aa0bc,2023-06-16_09h38.16.939,phx_ver10,2022.2.5,Win32,49.99250112,,,,,,,,,,,,31,testing_3,zh2sh,ai,zh2sh_ai,zh2sh_1_aizhai.wav,zh2sh_8_aishai.wav,,FALSE,FALSE,,,,,,,,,,,,,,j,0.1444,space,0.5037,,,,,,,,0,34,34,30,1,,
5b7ffeeb05fbbd00016aa0bc,2023-06-16_09h38.16.939,phx_ver10,2022.2.5,Win32,49.99250112,,,,,,,,,,,,41,testing_3,zh2sh,ei,zh2sh_ei,zh2sh_1_eizhei.wav,zh2sh_1_eizhei.wav,,TRUE,FALSE,,,,,,,,,,,,,,f,0.1997,space,0.5821,,,,,,,,0,35,35,40,1,,
5b7ffeeb05fbbd00016aa0bc,2023-06-16_09h38.16.939,phx_ver10,2022.2.5,Win32,49.99250112,,,,,,,,,,,,139,testing_3,sh2j,ei,sh2j_ei,sh2j_1_eishei.wav,sh2j_8_eijei.wav,,FALSE,FALSE,,,,,,,,,,,,,,j,0.1035,space,0.4221,,,,,,,,0,36,36,138,1,,
5b7ffeeb05fbbd00016aa0bc,2023-06-16_09h38.16.939,phx_ver10,2022.2.5,Win32,49.99250112,,,,,,,,,,,,14,testing_2,zh2x,ai,zh2x_ai,zh2x_8_aixai.wav,zh2x_8_aixai.wav,,TRUE,FALSE,,,,,,,,,,,,,,f,0.2645,space,0.6233,,,,,,,,0,37,37,13,1,,
5b7ffeeb05fbbd00016aa0bc,2023-06-16_09h38.16.939,phx_ver10,2022.2.5,Win32,49.99250112,,,,,,,,,,,,51,testing_3,zh2j,a,zh2j_a,zh2j_1_azha.wav,zh2j_8_aja.wav,,FALSE,FALSE,,,,,,,,,,,,,,f,0.3224,space,0.6819,,,,,,,,0,38,38,50,1,,
5b7ffeeb05fbbd00016aa0bc,2023-06-16_09h38.16.939,phx_ver10,2022.2.5,Win32,49.99250112,,,,,,,,,,,,16,testing_2,zh2x,ai,zh2x_ai,zh2x_8_aixai.wav,zh2x_1_aizhai.wav,,FALSE,FALSE,,,,,,,,,,,,,,j,0.1399,space,0.5205,,,,,,,,0,39,39,15,1,,
5b7ffeeb05fbbd00016aa0bc,2023-06-16_09h38.16.939,phx_ver10,2022.2.5,Win32,49.99250112,,,,,,,,,,,,27,testing_3,zh2sh,a,zh2sh_a,zh2sh_1_azha.wav,zh2sh_8_asha.wav,,FALSE,FALSE,,,,,,,,,,,,,,j,0.26,space,0.64,,,,,,,,0,40,40,26,1,,
5b7ffeeb05fbbd00016aa0bc,2023-06-16_09h38.16.939,phx_ver10,2022.2.5,Win32,49.99250112,,,,,,,,,,,,68,testing_3,zh2j,ei,zh2j_ei,zh2j_8_eijei.wav,zh2j_1_eizhei.wav,,FALSE,FALSE,,,,,,,,,,,,,,f,0.1599,space,0.5394,,,,,,,,0,41,41,67,1,,
5b7ffeeb05fbbd00016aa0bc,2023-06-16_09h38.16.939,phx_ver10,2022.2.5,Win32,49.99250112,,,,,,,,,,,,107,testing_3,sh2x,au,sh2x_au,sh2x_1_aushau.wav,sh2x_8_auxau.wav,,FALSE,FALSE,,,,,,,,,,,,,,f,0.223,space,0.5232,,,,,,,,0,42,42,106,1,,
5b7ffeeb05fbbd00016aa0bc,2023-06-16_09h38.16.939,phx_ver10,2022.2.5,Win32,49.99250112,,,,,,,,,,,,54,testing_3,zh2j,ai,zh2j_ai,zh2j_8_aijai.wav,zh2j_8_aijai.wav,,TRUE,FALSE,,,,,,,,,,,,,,f,0.2101,space,0.5288,,,,,,,,0,43,43,53,1,,
5b7ffeeb05fbbd00016aa0bc,2023-06-16_09h38.16.939,phx_ver10,2022.2.5,Win32,49.99250112,,,,,,,,,,,,124,testing_3,sh2j,a,sh2j_a,sh2j_8_aja.wav,sh2j_1_asha.wav,,FALSE,FALSE,,,,,,,,,,,,,,j,0.1211,space,0.4438,,,,,,,,0,44,44,123,1,,
5b7ffeeb05fbbd00016aa0bc,2023-06-16_09h38.16.939,phx_ver10,2022.2.5,Win32,49.99250112,,,,,,,,,,,,75,testing_3,j2x,a,j2x_a,j2x_1_aja.wav,j2x_8_axa.wav,,FALSE,FALSE,,,,,,,,,,,,,,j,0.1225,space,0.5015,,,,,,,,0,45,45,74,1,,
5b7ffeeb05fbbd00016aa0bc,2023-06-16_09h38.16.939,phx_ver10,2022.2.5,Win32,49.99250112,,,,,,,,,,,,38,testing_3,zh2sh,e,zh2sh_e,zh2sh_8_eshe.wav,zh2sh_8_eshe.wav,,TRUE,FALSE,,,,,,,,,,,,,,f,0.1824,space,0.5424,,,,,,,,0,46,46,37,1,,
5b7ffeeb05fbbd00016aa0bc,2023-06-16_09h38.16.939,phx_ver10,2022.2.5,Win32,49.99250112,,,,,,,,,,,,21,testing_2,zh2x,ei,zh2x_ei,zh2x_1_eizhei.wav,zh2x_1_eizhei.wav,,TRUE,FALSE,,,,,,,,,,,,,,f,0.3071,space,0.708,,,,,,,,0,47,47,20,1,,
5b7ffeeb05fbbd00016aa0bc,2023-06-16_09h38.16.939,phx_ver10,2022.2.5,Win32,49.99250112,,,,,,,,,,,,135,testing_3,sh2j,e,sh2j_e,sh2j_1_eshe.wav,sh2j_8_eje.wav,,FALSE,FALSE,,,,,,,,,,,,,,j,0.243,space,0.5828,,,,,,,,0,48,48,134,1,,
5b7ffeeb05fbbd00016aa0bc,2023-06-16_09h38.16.939,phx_ver10,2022.2.5,Win32,49.99250112,,,,,,,,,,,,1,testing_1,zh2x,a,zh2x_a,zh2x_1_azha.wav,zh2x_1_azha_copy.wav,,TRUE,TRUE,,,,,,,,,,,,,,f,0.2246,space,0.5835,,,,,,,,0,49,49,0,1,,
5b7ffeeb05fbbd00016aa0bc,2023-06-16_09h38.16.939,phx_ver10,2022.2.5,Win32,49.99250112,,,,,,,,,,,,8,testing_1,zh2x,e,zh2x_e,zh2x_8_exe.wav,zh2x_1_ezhe.wav,,FALSE,TRUE,,,,,,,,,,,,,,j,0.1657,space,0.502,,,,,,,,0,50,50,7,1,,
5b7ffeeb05fbbd00016aa0bc,2023-06-16_09h38.16.939,phx_ver10,2022.2.5,Win32,49.99250112,,,,,,,,,,,,2,testing_1,zh2x,a,zh2x_a,zh2x_8_axa.wav,zh2x_8_axa_copy.wav,,TRUE,TRUE,,,,,,,,,,,,,,f,0.342,space,0.7019,,,,,,,,0,51,51,1,1,,
5b7ffeeb05fbbd00016aa0bc,2023-06-16_09h38.16.939,phx_ver10,2022.2.5,Win32,49.99250112,,,,,,,,,,,,67,testing_3,zh2j,ei,zh2j_ei,zh2j_1_eizhei.wav,zh2j_8_eijei.wav,,FALSE,FALSE,,,,,,,,,,,,,,f,0.1619,space,0.5012,,,,,,,,0,52,52,66,1,,
5b7ffeeb05fbbd00016aa0bc,2023-06-16_09h38.16.939,phx_ver10,2022.2.5,Win32,49.99250112,,,,,,,,,,,,47,testing_3,zh2sh,i,zh2sh_i,zh2sh_1_izhi.wav,zh2sh_8_ishi.wav,,FALSE,FALSE,,,,,,,,,,,,,,j,0.1033,space,0.3834,,,,,,,,0,53,53,46,1,,
5b7ffeeb05fbbd00016aa0bc,2023-06-16_09h38.16.939,phx_ver10,2022.2.5,Win32,49.99250112,,,,,,,,,,,,121,testing_3,sh2j,a,sh2j_a,sh2j_1_asha.wav,sh2j_1_asha.wav,,TRUE,FALSE,,,,,,,,,,,,,,f,0.6631,space,0.9831,,,,,,,,0,54,54,120,1,,
5b7ffeeb05fbbd00016aa0bc,2023-06-16_09h38.16.939,phx_ver10,2022.2.5,Win32,49.99250112,,,,,,,,,,,,33,testing_3,zh2sh,au,zh2sh_au,zh2sh_1_auzhau.wav,zh2sh_1_auzhau.wav,,TRUE,FALSE,,,,,,,,,,,,,,f,0.1429,space,0.4772,,,,,,,,0,55,55,32,1,,
5b7ffeeb05fbbd00016aa0bc,2023-06-16_09h38.16.939,phx_ver10,2022.2.5,Win32,49.99250112,,,,,,,,,,,,89,testing_3,j2x,ei,j2x_ei,j2x_1_eijei.wav,j2x_1_eijei.wav,,TRUE,FALSE,,,,,,,,,,,,,,f,0.1627,space,0.543,,,,,,,,0,56,56,88,1,,
5b7ffeeb05fbbd00016aa0bc,2023-06-16_09h38.16.939,phx_ver10,2022.2.5,Win32,49.99250112,,,,,,,,,,,,125,testing_3,sh2j,ai,sh2j_ai,sh2j_1_aishai.wav,sh2j_1_aishai.wav,,TRUE,FALSE,,,,,,,,,,,,,,f,0.1573,space,0.4971,,,,,,,,0,57,57,124,1,,
5b7ffeeb05fbbd00016aa0bc,2023-06-16_09h38.16.939,phx_ver10,2022.2.5,Win32,49.99250112,,,,,,,,,,,,112,testing_3,sh2x,e,sh2x_e,sh2x_8_exe.wav,sh2x_1_eshe.wav,,FALSE,FALSE,,,,,,,,,,,,,,f,0.155,space,0.4941,,,,,,,,0,58,58,111,1,,
5b7ffeeb05fbbd00016aa0bc,2023-06-16_09h38.16.939,phx_ver10,2022.2.5,Win32,49.99250112,,,,,,,,,,,,4,testing_1,zh2x,a,zh2x_a,zh2x_8_axa.wav,zh2x_1_azha.wav,,FALSE,TRUE,,,,,,,,,,,,,,j,0.1021,space,0.4572,,,,,,,,0,59,59,3,1,,
5b7ffeeb05fbbd00016aa0bc,2023-06-16_09h38.16.939,phx_ver10,2022.2.5,Win32,49.99250112,,,,,,,,,,,,73,testing_3,j2x,a,j2x_a,j2x_1_aja.wav,j2x_1_aja.wav,,TRUE,FALSE,,,,,,,,,,,,,,j,0.1225,space,0.4631,,,,,,,,0,60,60,72,1,,
5b7ffeeb05fbbd00016aa0bc,2023-06-16_09h38.16.939,phx_ver10,2022.2.5,Win32,49.99250112,,,,,,,,,,,,94,testing_3,j2x,i,j2x_i,j2x_8_ixi.wav,j2x_8_ixi.wav,,TRUE,FALSE,,,,,,,,,,,,,,f,0.4222,space,0.7828,,,,,,,,0,61,61,93,1,,
5b7ffeeb05fbbd00016aa0bc,2023-06-16_09h38.16.939,phx_ver10,2022.2.5,Win32,49.99250112,,,,,,,,,,,,72,testing_3,zh2j,i,zh2j_i,zh2j_8_iji.wav,zh2j_1_izhi.wav,,FALSE,FALSE,,,,,,,,,,,,,,f,0.1824,space,0.5625,,,,,,,,0,62,62,71,1,,
5b7ffeeb05fbbd00016aa0bc,2023-06-16_09h38.16.939,phx_ver10,2022.2.5,Win32,49.99250112,,,,,,,,,,,,130,testing_3,sh2j,au,sh2j_au,sh2j_8_aujau.wav,sh2j_8_aujau.wav,,TRUE,FALSE,,,,,,,,,,,,,,f,0.2425,space,0.5627,,,,,,,,0,63,63,129,1,,
5b7ffeeb05fbbd00016aa0bc,2023-06-16_09h38.16.939,phx_ver10,2022.2.5,Win32,49.99250112,,,,,,,,,,,,129,testing_3,sh2j,au,sh2j_au,sh2j_1_aushau.wav,sh2j_1_aushau.wav,,TRUE,FALSE,,,,,,,,,,,,,,f,0.3035,space,0.6539,,,,,,,,0,64,64,128,1,,
5b7ffeeb05fbbd00016aa0bc,2023-06-16_09h38.16.939,phx_ver10,2022.2.5,Win32,49.99250112,,,,,,,,,,,,13,testing_2,zh2x,ai,zh2x_ai,zh2x_1_aizhai.wav,zh2x_1_aizhai.wav,,TRUE,FALSE,,,,,,,,,,,,,,f,0.2191,space,0.5793,,,,,,,,0,65,65,12,1,,
5b7ffeeb05fbbd00016aa0bc,2023-06-16_09h38.16.939,phx_ver10,2022.2.5,Win32,49.99250112,,,,,,,,,,,,82,testing_3,j2x,au,j2x_au,j2x_8_auxau.wav,j2x_8_auxau.wav,,TRUE,FALSE,,,,,,,,,,,,,,f,0.1421,space,0.5019,,,,,,,,0,66,66,81,1,,
5b7ffeeb05fbbd00016aa0bc,2023-06-16_09h38.16.939,phx_ver10,2022.2.5,Win32,49.99250112,,,,,,,,,,,,59,testing_3,zh2j,au,zh2j_au,zh2j_1_auzhau.wav,zh2j_8_aujau.wav,,FALSE,FALSE,,,,,,,,,,,,,,f,0.122,space,0.5218,,,,,,,,0,67,67,58,1,,
5b7ffeeb05fbbd00016aa0bc,2023-06-16_09h38.16.939,phx_ver10,2022.2.5,Win32,49.99250112,,,,,,,,,,,,80,testing_3,j2x,ai,j2x_ai,j2x_8_aixai.wav,j2x_1_aijai.wav,,FALSE,FALSE,,,,,,,,,,,,,,j,0.1417,space,0.443,,,,,,,,0,68,68,79,1,,
5b7ffeeb05fbbd00016aa0bc,2023-06-16_09h38.16.939,phx_ver10,2022.2.5,Win32,49.99250112,,,,,,,,,,,,20,testing_2,zh2x,au,zh2x_au,zh2x_8_auxau.wav,zh2x_1_auzhau.wav,,FALSE,FALSE,,,,,,,,,,,,,,j,0.0624,space,0.3465,,,,,,,,0,69,69,19,1,,
5b7ffeeb05fbbd00016aa0bc,2023-06-16_09h38.16.939,phx_ver10,2022.2.5,Win32,49.99250112,,,,,,,,,,,,5,testing_1,zh2x,e,zh2x_e,zh2x_1_ezhe.wav,zh2x_1_ezhe_copy.wav,,TRUE,TRUE,,,,,,,,,,,,,,f,0.1437,space,0.4437,,,,,,,,0,70,70,4,1,,
5b7ffeeb05fbbd00016aa0bc,2023-06-16_09h38.16.939,phx_ver10,2022.2.5,Win32,49.99250112,,,,,,,,,,,,15,testing_2,zh2x,ai,zh2x_ai,zh2x_1_aizhai.wav,zh2x_8_aixai.wav,,FALSE,FALSE,,,,,,,,,,,,,,j,0.1423,space,0.4265,,,,,,,,0,71,71,14,1,,
5b7ffeeb05fbbd00016aa0bc,2023-06-16_09h38.16.939,phx_ver10,2022.2.5,Win32,49.99250112,,,,,,,,,,,,88,testing_3,j2x,e,j2x_e,j2x_8_exe.wav,j2x_1_eje.wav,,FALSE,FALSE,,,,,,,,,,,,,,j,0.0226,space,0.3332,,,,,,,,0,72,72,87,1,,
5b7ffeeb05fbbd00016aa0bc,2023-06-16_09h38.16.939,phx_ver10,2022.2.5,Win32,49.99250112,,,,,,,,,,,,42,testing_3,zh2sh,ei,zh2sh_ei,zh2sh_8_eishei.wav,zh2sh_8_eishei.wav,,TRUE,FALSE,,,,,,,,,,,,,,f,0.1947,space,0.5423,,,,,,,,0,73,73,41,1,,
5b7ffeeb05fbbd00016aa0bc,2023-06-16_09h38.16.939,phx_ver10,2022.2.5,Win32,49.99250112,,,,,,,,,,,,85,testing_3,j2x,e,j2x_e,j2x_1_eje.wav,j2x_1_eje.wav,,TRUE,FALSE,,,,,,,,,,,,,,f,0.1822,space,0.4627,,,,,,,,0,74,74,84,1,,
5b7ffeeb05fbbd00016aa0bc,2023-06-16_09h38.16.939,phx_ver10,2022.2.5,Win32,49.99250112,,,,,,,,,,,,49,testing_3,zh2j,a,zh2j_a,zh2j_1_azha.wav,zh2j_1_azha.wav,,TRUE,FALSE,,,,,,,,,,,,,,f,0.1267,space,0.4156,,,,,,,,0,75,75,48,1,,
5b7ffeeb05fbbd00016aa0bc,2023-06-16_09h38.16.939,phx_ver10,2022.2.5,Win32,49.99250112,,,,,,,,,,,,109,testing_3,sh2x,e,sh2x_e,sh2x_1_eshe.wav,sh2x_1_eshe.wav,,TRUE,FALSE,,,,,,,,,,,,,,f,0.1218,space,0.4066,,,,,,,,0,76,76,108,1,,
5b7ffeeb05fbbd00016aa0bc,2023-06-16_09h38.16.939,phx_ver10,2022.2.5,Win32,49.99250112,,,,,,,,,,,,134,testing_3,sh2j,e,sh2j_e,sh2j_8_eje.wav,sh2j_8_eje.wav,,TRUE,FALSE,,,,,,,,,,,,,,f,0.2833,space,0.6384,,,,,,,,0,77,77,133,1,,
5b7ffeeb05fbbd00016aa0bc,2023-06-16_09h38.16.939,phx_ver10,2022.2.5,Win32,49.99250112,,,,,,,,,,,,128,testing_3,sh2j,ai,sh2j_ai,sh2j_8_aijai.wav,sh2j_1_aishai.wav,,FALSE,FALSE,,,,,,,,,,,,,,j,0.0423,space,0.3433,,,,,,,,0,78,78,127,1,,
5b7ffeeb05fbbd00016aa0bc,2023-06-16_09h38.16.939,phx_ver10,2022.2.5,Win32,49.99250112,,,,,,,,,,,,71,testing_3,zh2j,i,zh2j_i,zh2j_1_izhi.wav,zh2j_8_iji.wav,,FALSE,FALSE,,,,,,,,,,,,,,f,0.083,space,0.3814,,,,,,,,0,79,79,70,1,,
5b7ffeeb05fbbd00016aa0bc,2023-06-16_09h38.16.939,phx_ver10,2022.2.5,Win32,49.99250112,,,,,,,,,,,,65,testing_3,zh2j,ei,zh2j_ei,zh2j_1_eizhei.wav,zh2j_1_eizhei.wav,,TRUE,FALSE,,,,,,,,,,,,,,f,0.0628,space,0.4017,,,,,,,,0,80,80,64,1,,
5b7ffeeb05fbbd00016aa0bc,2023-06-16_09h38.16.939,phx_ver10,2022.2.5,Win32,49.99250112,,,,,,,,,,,,91,testing_3,j2x,ei,j2x_ei,j2x_1_eijei.wav,j2x_8_eixei.wav,,FALSE,FALSE,,,,,,,,,,,,,,j,0.1012,space,0.3994,,,,,,,,0,81,81,90,1,,
5b7ffeeb05fbbd00016aa0bc,2023-06-16_09h38.16.939,phx_ver10,2022.2.5,Win32,49.99250112,,,,,,,,,,,,45,testing_3,zh2sh,i,zh2sh_i,zh2sh_1_izhi.wav,zh2sh_1_izhi.wav,,TRUE,FALSE,,,,,,,,,,,,,,f,0.0821,space,0.4067,,,,,,,,0,82,82,44,1,,
5b7ffeeb05fbbd00016aa0bc,2023-06-16_09h38.16.939,phx_ver10,2022.2.5,Win32,49.99250112,,,,,,,,,,,,69,testing_3,zh2j,i,zh2j_i,zh2j_1_izhi.wav,zh2j_1_izhi.wav,,TRUE,FALSE,,,,,,,,,,,,,,f,0.0618,space,0.402,,,,,,,,0,83,83,68,1,,
5b7ffeeb05fbbd00016aa0bc,2023-06-16_09h38.16.939,phx_ver10,2022.2.5,Win32,49.99250112,,,,,,,,,,,,101,testing_3,sh2x,ai,sh2x_ai,sh2x_1_aishai.wav,sh2x_1_aishai.wav,,TRUE,FALSE,,,,,,,,,,,,,,f,0.1217,space,0.4415,,,,,,,,0,84,84,100,1,,
5b7ffeeb05fbbd00016aa0bc,2023-06-16_09h38.16.939,phx_ver10,2022.2.5,Win32,49.99250112,,,,,,,,,,,,6,testing_1,zh2x,e,zh2x_e,zh2x_8_exe.wav,zh2x_8_exe_copy.wav,,TRUE,TRUE,,,,,,,,,,,,,,f,0.0516,space,0.3559,,,,,,,,0,85,85,5,1,,
5b7ffeeb05fbbd00016aa0bc,2023-06-16_09h38.16.939,phx_ver10,2022.2.5,Win32,49.99250112,,,,,,,,,,,,9,testing_1,zh2x,i,zh2x_i,zh2x_1_izhi.wav,zh2x_1_izhi_copy.wav,,TRUE,TRUE,,,,,,,,,,,,,,f,0.1024,space,0.4041,,,,,,,,0,86,86,8,1,,
5b7ffeeb05fbbd00016aa0bc,2023-06-16_09h38.16.939,phx_ver10,2022.2.5,Win32,49.99250112,,,,,,,,,,,,136,testing_3,sh2j,e,sh2j_e,sh2j_8_eje.wav,sh2j_1_eshe.wav,,FALSE,FALSE,,,,,,,,,,,,,,j,0.1259,space,0.4195,,,,,,,,0,87,87,135,1,,
5b7ffeeb05fbbd00016aa0bc,2023-06-16_09h38.16.939,phx_ver10,2022.2.5,Win32,49.99250112,,,,,,,,,,,,131,testing_3,sh2j,au,sh2j_au,sh2j_1_aushau.wav,sh2j_8_aujau.wav,,FALSE,FALSE,,,,,,,,,,,,,,j,0.0824,space,0.3843,,,,,,,,0,88,88,130,1,,
5b7ffeeb05fbbd00016aa0bc,2023-06-16_09h38.16.939,phx_ver10,2022.2.5,Win32,49.99250112,,,,,,,,,,,,133,testing_3,sh2j,e,sh2j_e,sh2j_1_eshe.wav,sh2j_1_eshe.wav,,TRUE,FALSE,,,,,,,,,,,,,,f,0.1018,space,0.4433,,,,,,,,0,89,89,132,1,,
5b7ffeeb05fbbd00016aa0bc,2023-06-16_09h38.16.939,phx_ver10,2022.2.5,Win32,49.99250112,,,,,,,,,,,,25,testing_3,zh2sh,a,zh2sh_a,zh2sh_1_azha.wav,zh2sh_1_azha.wav,,TRUE,FALSE,,,,,,,,,,,,,,f,0.1622,space,0.4866,,,,,,,,0,90,90,24,1,,
5b7ffeeb05fbbd00016aa0bc,2023-06-16_09h38.16.939,phx_ver10,2022.2.5,Win32,49.99250112,,,,,,,,,,,,97,testing_3,sh2x,a,sh2x_a,sh2x_1_asha.wav,sh2x_1_asha.wav,,TRUE,FALSE,,,,,,,,,,,,,,f,0.1649,space,0.5053,,,,,,,,0,91,91,96,1,,
5b7ffeeb05fbbd00016aa0bc,2023-06-16_09h38.16.939,phx_ver10,2022.2.5,Win32,49.99250112,,,,,,,,,,,,119,testing_3,sh2x,i,sh2x_i,sh2x_1_ishi.wav,sh2x_8_ixi.wav,,FALSE,FALSE,,,,,,,,,,,,,,f,0.1419,space,0.4829,,,,,,,,0,92,92,118,1,,
5b7ffeeb05fbbd00016aa0bc,2023-06-16_09h38.16.939,phx_ver10,2022.2.5,Win32,49.99250112,,,,,,,,,,,,46,testing_3,zh2sh,i,zh2sh_i,zh2sh_8_ishi.wav,zh2sh_8_ishi.wav,,TRUE,FALSE,,,,,,,,,,,,,,f,0.1842,space,0.5467,,,,,,,,0,93,93,45,1,,
5b7ffeeb05fbbd00016aa0bc,2023-06-16_09h38.16.939,phx_ver10,2022.2.5,Win32,49.99250112,,,,,,,,,,,,105,testing_3,sh2x,au,sh2x_au,sh2x_1_aushau.wav,sh2x_1_aushau.wav,,TRUE,FALSE,,,,,,,,,,,,,,f,0.2425,space,0.5623,,,,,,,,0,94,94,104,1,,
5b7ffeeb05fbbd00016aa0bc,2023-06-16_09h38.16.939,phx_ver10,2022.2.5,Win32,49.99250112,,,,,,,,,,,,66,testing_3,zh2j,ei,zh2j_ei,zh2j_8_eijei.wav,zh2j_8_eijei.wav,,TRUE,FALSE,,,,,,,,,,,,,,f,0.1215,space,0.4278,,,,,,,,0,95,95,65,1,,
5b7ffeeb05fbbd00016aa0bc,2023-06-16_09h38.16.939,phx_ver10,2022.2.5,Win32,49.99250112,,,,,,,,,,,,140,testing_3,sh2j,ei,sh2j_ei,sh2j_8_eijei.wav,sh2j_1_eishei.wav,,FALSE,FALSE,,,,,,,,,,,,,,j,0.0821,space,0.3827,,,,,,,,0,96,96,139,1,,
5b7ffeeb05fbbd00016aa0bc,2023-06-16_09h38.16.939,phx_ver10,2022.2.5,Win32,49.99250112,,,,,,,,,,,,84,testing_3,j2x,au,j2x_au,j2x_8_auxau.wav,j2x_1_aujau.wav,,FALSE,FALSE,,,,,,,,,,,,,,j,0.0821,space,0.3466,,,,,,,,0,97,97,83,1,,
5b7ffeeb05fbbd00016aa0bc,2023-06-16_09h38.16.939,phx_ver10,2022.2.5,Win32,49.99250112,,,,,,,,,,,,39,testing_3,zh2sh,e,zh2sh_e,zh2sh_1_ezhe.wav,zh2sh_8_eshe.wav,,FALSE,FALSE,,,,,,,,,,,,,,j,0.0657,space,0.3434,,,,,,,,0,98,98,38,1,,
5b7ffeeb05fbbd00016aa0bc,2023-06-16_09h38.16.939,phx_ver10,2022.2.5,Win32,49.99250112,,,,,,,,,,,,44,testing_3,zh2sh,ei,zh2sh_ei,zh2sh_8_eishei.wav,zh2sh_1_eizhei.wav,,FALSE,FALSE,,,,,,,,,,,,,,j,0.1018,space,0.3829,,,,,,,,0,99,99,43,1,,
5b7ffeeb05fbbd00016aa0bc,2023-06-16_09h38.16.939,phx_ver10,2022.2.5,Win32,49.99250112,,,,,,,,,,,,53,testing_3,zh2j,ai,zh2j_ai,zh2j_1_aizhai.wav,zh2j_1_aizhai.wav,,TRUE,FALSE,,,,,,,,,,,,,,f,0.122,space,0.4268,,,,,,,,0,100,100,52,1,,
5b7ffeeb05fbbd00016aa0bc,2023-06-16_09h38.16.939,phx_ver10,2022.2.5,Win32,49.99250112,,,,,,,,,,,,50,testing_3,zh2j,a,zh2j_a,zh2j_8_aja.wav,zh2j_8_aja.wav,,TRUE,FALSE,,,,,,,,,,,,,,f,0.1433,space,0.4224,,,,,,,,0,101,101,49,1,,
5b7ffeeb05fbbd00016aa0bc,2023-06-16_09h38.16.939,phx_ver10,2022.2.5,Win32,49.99250112,,,,,,,,,,,,102,testing_3,sh2x,ai,sh2x_ai,sh2x_8_aixai.wav,sh2x_8_aixai.wav,,TRUE,FALSE,,,,,,,,,,,,,,f,0.3423,space,0.7426,,,,,,,,0,102,102,101,1,,
5b7ffeeb05fbbd00016aa0bc,2023-06-16_09h38.16.939,phx_ver10,2022.2.5,Win32,49.99250112,,,,,,,,,,,,142,testing_3,sh2j,i,sh2j_i,sh2j_8_iji.wav,sh2j_8_iji.wav,,TRUE,FALSE,,,,,,,,,,,,,,f,0.2024,space,0.5423,,,,,,,,0,103,103,141,1,,
5b7ffeeb05fbbd00016aa0bc,2023-06-16_09h38.16.939,phx_ver10,2022.2.5,Win32,49.99250112,,,,,,,,,,,,87,testing_3,j2x,e,j2x_e,j2x_1_eje.wav,j2x_8_exe.wav,,FALSE,FALSE,,,,,,,,,,,,,,j,0.0624,space,0.3624,,,,,,,,0,104,104,86,1,,
5b7ffeeb05fbbd00016aa0bc,2023-06-16_09h38.16.939,phx_ver10,2022.2.5,Win32,49.99250112,,,,,,,,,,,,22,testing_2,zh2x,ei,zh2x_ei,zh2x_8_eixei.wav,zh2x_8_eixei.wav,,TRUE,FALSE,,,,,,,,,,,,,,f,0.1228,space,0.4422,,,,,,,,0,105,105,21,1,,
5b7ffeeb05fbbd00016aa0bc,2023-06-16_09h38.16.939,phx_ver10,2022.2.5,Win32,49.99250112,,,,,,,,,,,,7,testing_1,zh2x,e,zh2x_e,zh2x_1_ezhe.wav,zh2x_8_exe.wav,,FALSE,TRUE,,,,,,,,,,,,,,j,0.3213,space,0.6658,,,,,,,,0,106,106,6,1,,
5b7ffeeb05fbbd00016aa0bc,2023-06-16_09h38.16.939,phx_ver10,2022.2.5,Win32,49.99250112,,,,,,,,,,,,55,testing_3,zh2j,ai,zh2j_ai,zh2j_1_aizhai.wav,zh2j_8_aijai.wav,,FALSE,FALSE,,,,,,,,,,,,,,f,0.1221,space,0.4424,,,,,,,,0,107,107,54,1,,
5b7ffeeb05fbbd00016aa0bc,2023-06-16_09h38.16.939,phx_ver10,2022.2.5,Win32,49.99250112,,,,,,,,,,,,95,testing_3,j2x,i,j2x_i,j2x_1_iji.wav,j2x_8_ixi.wav,,FALSE,FALSE,,,,,,,,,,,,,,j,0.0825,space,0.3603,,,,,,,,0,108,108,94,1,,
5b7ffeeb05fbbd00016aa0bc,2023-06-16_09h38.16.939,phx_ver10,2022.2.5,Win32,49.99250112,,,,,,,,,,,,113,testing_3,sh2x,ei,sh2x_ei,sh2x_1_eishei.wav,sh2x_1_eishei.wav,,TRUE,FALSE,,,,,,,,,,,,,,f,0.0814,space,0.3473,,,,,,,,0,109,109,112,1,,
5b7ffeeb05fbbd00016aa0bc,2023-06-16_09h38.16.939,phx_ver10,2022.2.5,Win32,49.99250112,,,,,,,,,,,,56,testing_3,zh2j,ai,zh2j_ai,zh2j_8_aijai.wav,zh2j_1_aizhai.wav,,FALSE,FALSE,,,,,,,,,,,,,,f,0.4272,space,0.7869,,,,,,,,0,110,110,55,1,,
5b7ffeeb05fbbd00016aa0bc,2023-06-16_09h38.16.939,phx_ver10,2022.2.5,Win32,49.99250112,,,,,,,,,,,,111,testing_3,sh2x,e,sh2x_e,sh2x_1_eshe.wav,sh2x_8_exe.wav,,FALSE,FALSE,,,,,,,,,,,,,,f,0.0623,space,0.3582,,,,,,,,0,111,111,110,1,,
5b7ffeeb05fbbd00016aa0bc,2023-06-16_09h38.16.939,phx_ver10,2022.2.5,Win32,49.99250112,,,,,,,,,,,,35,testing_3,zh2sh,au,zh2sh_au,zh2sh_1_auzhau.wav,zh2sh_8_aushau.wav,,FALSE,FALSE,,,,,,,,,,,,,,j,0.0621,space,0.306,,,,,,,,0,112,112,34,1,,
5b7ffeeb05fbbd00016aa0bc,2023-06-16_09h38.16.939,phx_ver10,2022.2.5,Win32,49.99250112,,,,,,,,,,,,58,testing_3,zh2j,au,zh2j_au,zh2j_8_aujau.wav,zh2j_8_aujau.wav,,TRUE,FALSE,,,,,,,,,,,,,,f,0.0227,space,0.2847,,,,,,,,0,113,113,57,1,,
5b7ffeeb05fbbd00016aa0bc,2023-06-16_09h38.16.939,phx_ver10,2022.2.5,Win32,49.99250112,,,,,,,,,,,,28,testing_3,zh2sh,a,zh2sh_a,zh2sh_8_asha.wav,zh2sh_1_azha.wav,,FALSE,FALSE,,,,,,,,,,,,,,j,0.1248,space,0.4227,,,,,,,,0,114,114,27,1,,
5b7ffeeb05fbbd00016aa0bc,2023-06-16_09h38.16.939,phx_ver10,2022.2.5,Win32,49.99250112,,,,,,,,,,,,63,testing_3,zh2j,e,zh2j_e,zh2j_1_ezhe.wav,zh2j_8_eje.wav,,FALSE,FALSE,,,,,,,,,,,,,,f,0.0027,space,0.2257,,,,,,,,0,115,115,62,1,,
5b7ffeeb05fbbd00016aa0bc,2023-06-16_09h38.16.939,phx_ver10,2022.2.5,Win32,49.99250112,,,,,,,,,,,,3,testing_1,zh2x,a,zh2x_a,zh2x_1_azha.wav,zh2x_8_axa.wav,,FALSE,TRUE,,,,,,,,,,,,,,j,0.0022,space,0.2532,,,,,,,,0,116,116,2,1,,
5b7ffeeb05fbbd00016aa0bc,2023-06-16_09h38.16.939,phx_ver10,2022.2.5,Win32,49.99250112,,,,,,,,,,,,79,testing_3,j2x,ai,j2x_ai,j2x_1_aijai.wav,j2x_8_aixai.wav,,FALSE,FALSE,,,,,,,,,,,,,,j,0.0014,space,0.2064,,,,,,,,0,117,117,78,1,,
5b7ffeeb05fbbd00016aa0bc,2023-06-16_09h38.16.939,phx_ver10,2022.2.5,Win32,49.99250112,,,,,,,,,,,,126,testing_3,sh2j,ai,sh2j_ai,sh2j_8_aijai.wav,sh2j_8_aijai.wav,,TRUE,FALSE,,,,,,,,,,,,,,f,0.9522,space,1.2223,,,,,,,,0,118,118,125,1,,
5b7ffeeb05fbbd00016aa0bc,2023-06-16_09h38.16.939,phx_ver10,2022.2.5,Win32,49.99250112,,,,,,,,,,,,138,testing_3,sh2j,ei,sh2j_ei,sh2j_8_eijei.wav,sh2j_8_eijei.wav,,TRUE,FALSE,,,,,,,,,,,,,,f,0.7254,space,0.9444,,,,,,,,0,119,119,137,1,,
5b7ffeeb05fbbd00016aa0bc,2023-06-16_09h38.16.939,phx_ver10,2022.2.5,Win32,49.99250112,,,,,,,,,,,,19,testing_2,zh2x,au,zh2x_au,zh2x_1_auzhau.wav,zh2x_8_auxau.wav,,FALSE,FALSE,,,,,,,,,,,,,,j,0.1868,space,0.5241,,,,,,,,0,120,120,18,1,,
5b7ffeeb05fbbd00016aa0bc,2023-06-16_09h38.16.939,phx_ver10,2022.2.5,Win32,49.99250112,,,,,,,,,,,,90,testing_3,j2x,ei,j2x_ei,j2x_8_eixei.wav,j2x_8_eixei.wav,,TRUE,FALSE,,,,,,,,,,,,,,f,1.1234,space,1.4019,,,,,,,,0,121,121,89,1,,
5b7ffeeb05fbbd00016aa0bc,2023-06-16_09h38.16.939,phx_ver10,2022.2.5,Win32,49.99250112,,,,,,,,,,,,18,testing_2,zh2x,au,zh2x_au,zh2x_8_auxau.wav,zh2x_8_auxau.wav,,TRUE,FALSE,,,,,,,,,,,,,,f,0.7796,space,1.1004,,,,,,,,0,122,122,17,1,,
5b7ffeeb05fbbd00016aa0bc,2023-06-16_09h38.16.939,phx_ver10,2022.2.5,Win32,49.99250112,,,,,,,,,,,,137,testing_3,sh2j,ei,sh2j_ei,sh2j_1_eishei.wav,sh2j_1_eishei.wav,,TRUE,FALSE,,,,,,,,,,,,,,f,0.2658,space,0.543,,,,,,,,0,123,123,136,1,,
5b7ffeeb05fbbd00016aa0bc,2023-06-16_09h38.16.939,phx_ver10,2022.2.5,Win32,49.99250112,,,,,,,,,,,,37,testing_3,zh2sh,e,zh2sh_e,zh2sh_1_ezhe.wav,zh2sh_1_ezhe.wav,,TRUE,FALSE,,,,,,,,,,,,,,f,0.3016,space,0.5039,,,,,,,,0,124,124,36,1,,
5b7ffeeb05fbbd00016aa0bc,2023-06-16_09h38.16.939,phx_ver10,2022.2.5,Win32,49.99250112,,,,,,,,,,,,10,testing_1,zh2x,i,zh2x_i,zh2x_8_ixi.wav,zh2x_8_ixi_copy.wav,,TRUE,TRUE,,,,,,,,,,,,,,f,0.2038,space,0.4435,,,,,,,,0,125,125,9,1,,
5b7ffeeb05fbbd00016aa0bc,2023-06-16_09h38.16.939,phx_ver10,2022.2.5,Win32,49.99250112,,,,,,,,,,,,103,testing_3,sh2x,ai,sh2x_ai,sh2x_1_aishai.wav,sh2x_8_aixai.wav,,FALSE,FALSE,,,,,,,,,,,,,,f,0.265,space,0.5025,,,,,,,,0,126,126,102,1,,
5b7ffeeb05fbbd00016aa0bc,2023-06-16_09h38.16.939,phx_ver10,2022.2.5,Win32,49.99250112,,,,,,,,,,,,32,testing_3,zh2sh,ai,zh2sh_ai,zh2sh_8_aishai.wav,zh2sh_1_aizhai.wav,,FALSE,FALSE,,,,,,,,,,,,,,j,0.1451,space,0.4161,,,,,,,,0,127,127,31,1,,
5b7ffeeb05fbbd00016aa0bc,2023-06-16_09h38.16.939,phx_ver10,2022.2.5,Win32,49.99250112,,,,,,,,,,,,77,testing_3,j2x,ai,j2x_ai,j2x_1_aijai.wav,j2x_1_aijai.wav,,TRUE,FALSE,,,,,,,,,,,,,,f,0.3033,space,0.5809,,,,,,,,0,128,128,76,1,,
5b7ffeeb05fbbd00016aa0bc,2023-06-16_09h38.16.939,phx_ver10,2022.2.5,Win32,49.99250112,,,,,,,,,,,,57,testing_3,zh2j,au,zh2j_au,zh2j_1_auzhau.wav,zh2j_1_auzhau.wav,,TRUE,FALSE,,,,,,,,,,,,,,f,0.0413,space,0.3025,,,,,,,,0,129,129,56,1,,
5b7ffeeb05fbbd00016aa0bc,2023-06-16_09h38.16.939,phx_ver10,2022.2.5,Win32,49.99250112,,,,,,,,,,,,117,testing_3,sh2x,i,sh2x_i,sh2x_1_ishi.wav,sh2x_1_ishi.wav,,TRUE,FALSE,,,,,,,,,,,,,,f,0.1451,space,0.4621,,,,,,,,0,130,130,116,1,,
5b7ffeeb05fbbd00016aa0bc,2023-06-16_09h38.16.939,phx_ver10,2022.2.5,Win32,49.99250112,,,,,,,,,,,,110,testing_3,sh2x,e,sh2x_e,sh2x_8_exe.wav,sh2x_8_exe.wav,,TRUE,FALSE,,,,,,,,,,,,,,f,0.141,space,0.3922,,,,,,,,0,131,131,109,1,,
5b7ffeeb05fbbd00016aa0bc,2023-06-16_09h38.16.939,phx_ver10,2022.2.5,Win32,49.99250112,,,,,,,,,,,,81,testing_3,j2x,au,j2x_au,j2x_1_aujau.wav,j2x_1_aujau.wav,,TRUE,FALSE,,,,,,,,,,,,,,f,0.0821,space,0.3631,,,,,,,,0,132,132,80,1,,
5b7ffeeb05fbbd00016aa0bc,2023-06-16_09h38.16.939,phx_ver10,2022.2.5,Win32,49.99250112,,,,,,,,,,,,98,testing_3,sh2x,a,sh2x_a,sh2x_8_axa.wav,sh2x_8_axa.wav,,TRUE,FALSE,,,,,,,,,,,,,,f,0.3026,space,0.561,,,,,,,,0,133,133,97,1,,
5b7ffeeb05fbbd00016aa0bc,2023-06-16_09h38.16.939,phx_ver10,2022.2.5,Win32,49.99250112,,,,,,,,,,,,40,testing_3,zh2sh,e,zh2sh_e,zh2sh_8_eshe.wav,zh2sh_1_ezhe.wav,,FALSE,FALSE,,,,,,,,,,,,,,j,0.705,space,0.9267,,,,,,,,0,134,134,39,1,,
5b7ffeeb05fbbd00016aa0bc,2023-06-16_09h38.16.939,phx_ver10,2022.2.5,Win32,49.99250112,,,,,,,,,,,,29,testing_3,zh2sh,ai,zh2sh_ai,zh2sh_1_aizhai.wav,zh2sh_1_aizhai.wav,,TRUE,FALSE,,,,,,,,,,,,,,f,0.1226,space,0.402,,,,,,,,0,135,135,28,1,,
5b7ffeeb05fbbd00016aa0bc,2023-06-16_09h38.16.939,phx_ver10,2022.2.5,Win32,49.99250112,,,,,,,,,,,,116,testing_3,sh2x,ei,sh2x_ei,sh2x_8_eixei.wav,sh2x_1_eishei.wav,,FALSE,FALSE,,,,,,,,,,,,,,f,0.2358,space,0.4985,,,,,,,,0,136,136,115,1,,
5b7ffeeb05fbbd00016aa0bc,2023-06-16_09h38.16.939,phx_ver10,2022.2.5,Win32,49.99250112,,,,,,,,,,,,34,testing_3,zh2sh,au,zh2sh_au,zh2sh_8_aushau.wav,zh2sh_8_aushau.wav,,TRUE,FALSE,,,,,,,,,,,,,,f,0.0619,space,0.2817,,,,,,,,0,137,137,33,1,,
5b7ffeeb05fbbd00016aa0bc,2023-06-16_09h38.16.939,phx_ver10,2022.2.5,Win32,49.99250112,,,,,,,,,,,,118,testing_3,sh2x,i,sh2x_i,sh2x_8_ixi.wav,sh2x_8_ixi.wav,,TRUE,FALSE,,,,,,,,,,,,,,f,0.0016,space,0.2034,,,,,,,,0,138,138,117,1,,
5b7ffeeb05fbbd00016aa0bc,2023-06-16_09h38.16.939,phx_ver10,2022.2.5,Win32,49.99250112,,,,,,,,,,,,17,testing_2,zh2x,au,zh2x_au,zh2x_1_auzhau.wav,zh2x_1_auzhau.wav,,TRUE,FALSE,,,,,,,,,,,,,,f,0.1229,space,0.3809,,,,,,,,0,139,139,16,1,,
5b7ffeeb05fbbd00016aa0bc,2023-06-16_09h38.16.939,phx_ver10,2022.2.5,Win32,49.99250112,,,,,,,,,,,,48,testing_3,zh2sh,i,zh2sh_i,zh2sh_8_ishi.wav,zh2sh_1_izhi.wav,,FALSE,FALSE,,,,,,,,,,,,,,j,0.0022,space,0.2756,,,,,,,,0,140,140,47,1,,
5b7ffeeb05fbbd00016aa0bc,2023-06-16_09h38.16.939,phx_ver10,2022.2.5,Win32,49.99250112,,,,,,,,,,,,62,testing_3,zh2j,e,zh2j_e,zh2j_8_eje.wav,zh2j_8_eje.wav,,TRUE,FALSE,,,,,,,,,,,,,,f,0.1027,space,0.3224,,,,,,,,0,141,141,61,1,,
5b7ffeeb05fbbd00016aa0bc,2023-06-16_09h38.16.939,phx_ver10,2022.2.5,Win32,49.99250112,,,,,,,,,,,,132,testing_3,sh2j,au,sh2j_au,sh2j_8_aujau.wav,sh2j_1_aushau.wav,,FALSE,FALSE,,,,,,,,,,,,,,j,0.0948,space,0.3207,,,,,,,,0,142,142,131,1,,
5b7ffeeb05fbbd00016aa0bc,2023-06-16_09h38.16.939,phx_ver10,2022.2.5,Win32,49.99250112,,,,,,,,,,,,74,testing_3,j2x,a,j2x_a,j2x_8_axa.wav,j2x_8_axa.wav,,TRUE,FALSE,,,,,,,,,,,,,,f,0.0622,space,0.4294,,,,,,,,0,143,143,73,1,,
5b7ffeeb05fbbd00016aa0bc,2023-06-16_09h38.16.939,phx_ver10,2022.2.5,Win32,49.99250112,,,,,,,,,,,,,,,,,,,,,,,,,,,,,,,,,,,,,,,,,,,,,,,,,,,space,1.5808
