participant,date,expName,psychopyVersion,OS,frameRate,space_1.keys,space_1.rt,space_2.keys,space_2.rt,space_train.keys,space_train.rt,training.thisRepN,training.thisTrialN,training.thisN,training.thisIndex,training.ran,token_id,task,continuum,vowel,series,sound_1,sound_2,img,same,trained,FJ_attn.keys,FJ_attn.rt,space_attn.keys,space_attn.rt,if_attn_test.thisRepN,if_attn_test.thisTrialN,if_attn_test.thisN,if_attn_test.thisIndex,if_attn_test.ran,space_trans_1.keys,space_trans_1.rt,space_trans_11.keys,space_trans_11.rt,FJ_test.keys,FJ_test.rt,space_test.keys,space_test.rt,testing_pre.thisRepN,testing_pre.thisTrialN,testing_pre.thisN,testing_pre.thisIndex,testing_pre.ran,space_trans_2.keys,space_trans_2.rt,testing_all.thisRepN,testing_all.thisTrialN,testing_all.thisN,testing_all.thisIndex,testing_all.ran,space_ending.keys,space_ending.rt
5b8a709614e8c6000104eafa,2023-06-16_10h31.59.333,phx_ver10,2022.2.5,Win32,60.15399423,,,,,,,,,,,,,,,,,,,,,,,,,,,,,,,,,,,,,,,,,,,,,,,,,,,,
5b8a709614e8c6000104eafa,2023-06-16_10h31.59.333,phx_ver10,2022.2.5,Win32,60.15399423,space,6.5555,,,,,,,,,,,,,,,,,,,,,,,,,,,,,,,,,,,,,,,,,,,,,,,,,,
5b8a709614e8c6000104eafa,2023-06-16_10h31.59.333,phx_ver10,2022.2.5,Win32,60.15399423,,,space,1.8492,,,,,,,,,,,,,,,,,,,,,,,,,,,,,,,,,,,,,,,,,,,,,,,,
5b8a709614e8c6000104eafa,2023-06-16_10h31.59.333,phx_ver10,2022.2.5,Win32,60.15399423,,,,,space,6.8781,0,0,0,42,1,43,training,zh2x,i,zh2x_i,zh2x_6_ixi.wav,,ixi.jpg,,,,,,,,,,,,,,,,,,,,,,,,,,,,,,,,,
5b8a709614e8c6000104eafa,2023-06-16_10h31.59.333,phx_ver10,2022.2.5,Win32,60.15399423,,,,,space,1.7159,0,1,1,10,1,11,training,zh2x,a,zh2x_a,zh2x_6_axa.wav,,axa.jpg,,,,,,,,,,,,,,,,,,,,,,,,,,,,,,,,,
5b8a709614e8c6000104eafa,2023-06-16_10h31.59.333,phx_ver10,2022.2.5,Win32,60.15399423,,,,,space,1.4726,0,2,2,17,1,18,training,zh2x,e,zh2x_e,zh2x_2_ezhe.wav,,ezhe.jpg,,,,,,,,,,,,,,,,,,,,,,,,,,,,,,,,,
5b8a709614e8c6000104eafa,2023-06-16_10h31.59.333,phx_ver10,2022.2.5,Win32,60.15399423,,,,,space,1.0489,0,3,3,19,1,20,training,zh2x,e,zh2x_e,zh2x_2_ezhe.wav,,ezhe.jpg,,,,,,,,,,,,,,,,,,,,,,,,,,,,,,,,,
5b8a709614e8c6000104eafa,2023-06-16_10h31.59.333,phx_ver10,2022.2.5,Win32,60.15399423,,,,,space,1.0666,0,4,4,31,1,32,training,zh2x,e,zh2x_e,zh2x_8_exe.wav,,exe.jpg,,,,,,,,,,,,,,,,,,,,,,,,,,,,,,,,,
5b8a709614e8c6000104eafa,2023-06-16_10h31.59.333,phx_ver10,2022.2.5,Win32,60.15399423,,,,,space,2.0046,0,5,5,36,1,37,training,zh2x,i,zh2x_i,zh2x_2_izhi.wav,,izhi.jpg,,,,,,,,,,,,,,,,,,,,,,,,,,,,,,,,,
5b8a709614e8c6000104eafa,2023-06-16_10h31.59.333,phx_ver10,2022.2.5,Win32,60.15399423,,,,,,,,,,,,,attn_test,,,,zh2x_8_ixi.wav,zh2x_8_exe.wav,exe.jpg,RIGHT,,f,1.785,space,3.1452,0,0,0,0,1,,,,,,,,,,,,,,,,,,,,,,
5b8a709614e8c6000104eafa,2023-06-16_10h31.59.333,phx_ver10,2022.2.5,Win32,60.15399423,,,,,space,0.9502,0,6,6,34,1,35,training,zh2x,i,zh2x_i,zh2x_2_izhi.wav,,izhi.jpg,,,,,,,,,,,,,,,,,,,,,,,,,,,,,,,,,
5b8a709614e8c6000104eafa,2023-06-16_10h31.59.333,phx_ver10,2022.2.5,Win32,60.15399423,,,,,space,0.517,0,7,7,32,1,33,training,zh2x,i,zh2x_i,zh2x_1_izhi.wav,,izhi.jpg,,,,,,,,,,,,,,,,,,,,,,,,,,,,,,,,,
5b8a709614e8c6000104eafa,2023-06-16_10h31.59.333,phx_ver10,2022.2.5,Win32,60.15399423,,,,,space,1.1858,0,8,8,2,1,3,training,zh2x,a,zh2x_a,zh2x_2_azha.wav,,azha.jpg,,,,,,,,,,,,,,,,,,,,,,,,,,,,,,,,,
5b8a709614e8c6000104eafa,2023-06-16_10h31.59.333,phx_ver10,2022.2.5,Win32,60.15399423,,,,,space,1.6992,0,9,9,14,1,15,training,zh2x,a,zh2x_a,zh2x_7_axa.wav,,axa.jpg,,,,,,,,,,,,,,,,,,,,,,,,,,,,,,,,,
5b8a709614e8c6000104eafa,2023-06-16_10h31.59.333,phx_ver10,2022.2.5,Win32,60.15399423,,,,,space,0.7705,0,10,10,43,1,44,training,zh2x,i,zh2x_i,zh2x_7_ixi.wav,,ixi.jpg,,,,,,,,,,,,,,,,,,,,,,,,,,,,,,,,,
5b8a709614e8c6000104eafa,2023-06-16_10h31.59.333,phx_ver10,2022.2.5,Win32,60.15399423,,,,,space,0.6034,0,11,11,38,1,39,training,zh2x,i,zh2x_i,zh2x_3_izhi.wav,,izhi.jpg,,,,,,,,,,,,,,,,,,,,,,,,,,,,,,,,,
5b8a709614e8c6000104eafa,2023-06-16_10h31.59.333,phx_ver10,2022.2.5,Win32,60.15399423,,,,,,,,,,,,,attn_test,,,,zh2x_1_izhi.wav,zh2x_8_ixi.wav,izhi.jpg,LEFT,,f,0.4876,space,1.3873,0,0,0,0,1,,,,,,,,,,,,,,,,,,,,,,
5b8a709614e8c6000104eafa,2023-06-16_10h31.59.333,phx_ver10,2022.2.5,Win32,60.15399423,,,,,space,0.7003,0,12,12,6,1,7,training,zh2x,a,zh2x_a,zh2x_3_azha.wav,,azha.jpg,,,,,,,,,,,,,,,,,,,,,,,,,,,,,,,,,
5b8a709614e8c6000104eafa,2023-06-16_10h31.59.333,phx_ver10,2022.2.5,Win32,60.15399423,,,,,space,0.333,0,13,13,3,1,4,training,zh2x,a,zh2x_a,zh2x_2_azha.wav,,azha.jpg,,,,,,,,,,,,,,,,,,,,,,,,,,,,,,,,,
5b8a709614e8c6000104eafa,2023-06-16_10h31.59.333,phx_ver10,2022.2.5,Win32,60.15399423,,,,,space,0.4223,0,14,14,7,1,8,training,zh2x,a,zh2x_a,zh2x_4_azha.wav,,azha.jpg,,,,,,,,,,,,,,,,,,,,,,,,,,,,,,,,,
5b8a709614e8c6000104eafa,2023-06-16_10h31.59.333,phx_ver10,2022.2.5,Win32,60.15399423,,,,,space,0.4421,0,15,15,0,1,1,training,zh2x,a,zh2x_a,zh2x_1_azha.wav,,azha.jpg,,,,,,,,,,,,,,,,,,,,,,,,,,,,,,,,,
5b8a709614e8c6000104eafa,2023-06-16_10h31.59.333,phx_ver10,2022.2.5,Win32,60.15399423,,,,,space,1.3203,0,16,16,26,1,27,training,zh2x,e,zh2x_e,zh2x_6_exe.wav,,exe.jpg,,,,,,,,,,,,,,,,,,,,,,,,,,,,,,,,,
5b8a709614e8c6000104eafa,2023-06-16_10h31.59.333,phx_ver10,2022.2.5,Win32,60.15399423,,,,,space,0.753,0,17,17,20,1,21,training,zh2x,e,zh2x_e,zh2x_2_ezhe.wav,,ezhe.jpg,,,,,,,,,,,,,,,,,,,,,,,,,,,,,,,,,
5b8a709614e8c6000104eafa,2023-06-16_10h31.59.333,phx_ver10,2022.2.5,Win32,60.15399423,,,,,,,,,,,,,attn_test,,,,zh2x_8_exe.wav,zh2x_1_izhi.wav,exe.jpg,LEFT,,f,0.7168,space,1.6062,0,0,0,0,1,,,,,,,,,,,,,,,,,,,,,,
5b8a709614e8c6000104eafa,2023-06-16_10h31.59.333,phx_ver10,2022.2.5,Win32,60.15399423,,,,,space,1.0899,0,18,18,47,1,48,training,zh2x,i,zh2x_i,zh2x_8_ixi.wav,,ixi.jpg,,,,,,,,,,,,,,,,,,,,,,,,,,,,,,,,,
5b8a709614e8c6000104eafa,2023-06-16_10h31.59.333,phx_ver10,2022.2.5,Win32,60.15399423,,,,,space,0.4996,0,19,19,37,1,38,training,zh2x,i,zh2x_i,zh2x_3_izhi.wav,,izhi.jpg,,,,,,,,,,,,,,,,,,,,,,,,,,,,,,,,,
5b8a709614e8c6000104eafa,2023-06-16_10h31.59.333,phx_ver10,2022.2.5,Win32,60.15399423,,,,,space,0.6336,0,20,20,9,1,10,training,zh2x,a,zh2x_a,zh2x_6_axa.wav,,axa.jpg,,,,,,,,,,,,,,,,,,,,,,,,,,,,,,,,,
5b8a709614e8c6000104eafa,2023-06-16_10h31.59.333,phx_ver10,2022.2.5,Win32,60.15399423,,,,,space,0.5539,0,21,21,41,1,42,training,zh2x,i,zh2x_i,zh2x_6_ixi.wav,,ixi.jpg,,,,,,,,,,,,,,,,,,,,,,,,,,,,,,,,,
5b8a709614e8c6000104eafa,2023-06-16_10h31.59.333,phx_ver10,2022.2.5,Win32,60.15399423,,,,,space,0.9024,0,22,22,1,1,2,training,zh2x,a,zh2x_a,zh2x_2_azha.wav,,azha.jpg,,,,,,,,,,,,,,,,,,,,,,,,,,,,,,,,,
5b8a709614e8c6000104eafa,2023-06-16_10h31.59.333,phx_ver10,2022.2.5,Win32,60.15399423,,,,,space,0.5079,0,23,23,24,1,25,training,zh2x,e,zh2x_e,zh2x_5_exe.wav,,exe.jpg,,,,,,,,,,,,,,,,,,,,,,,,,,,,,,,,,
5b8a709614e8c6000104eafa,2023-06-16_10h31.59.333,phx_ver10,2022.2.5,Win32,60.15399423,,,,,,,,,,,,,attn_test,,,,zh2x_8_exe.wav,zh2x_1_azha.wav,azha.jpg,RIGHT,,j,0.7436,space,1.5582,0,0,0,0,1,,,,,,,,,,,,,,,,,,,,,,
5b8a709614e8c6000104eafa,2023-06-16_10h31.59.333,phx_ver10,2022.2.5,Win32,60.15399423,,,,,space,1.0257,0,24,24,8,1,9,training,zh2x,a,zh2x_a,zh2x_5_axa.wav,,axa.jpg,,,,,,,,,,,,,,,,,,,,,,,,,,,,,,,,,
5b8a709614e8c6000104eafa,2023-06-16_10h31.59.333,phx_ver10,2022.2.5,Win32,60.15399423,,,,,space,0.6837,0,25,25,25,1,26,training,zh2x,e,zh2x_e,zh2x_6_exe.wav,,exe.jpg,,,,,,,,,,,,,,,,,,,,,,,,,,,,,,,,,
5b8a709614e8c6000104eafa,2023-06-16_10h31.59.333,phx_ver10,2022.2.5,Win32,60.15399423,,,,,space,0.5168,0,26,26,15,1,16,training,zh2x,a,zh2x_a,zh2x_8_axa.wav,,axa.jpg,,,,,,,,,,,,,,,,,,,,,,,,,,,,,,,,,
5b8a709614e8c6000104eafa,2023-06-16_10h31.59.333,phx_ver10,2022.2.5,Win32,60.15399423,,,,,space,0.5005,0,27,27,11,1,12,training,zh2x,a,zh2x_a,zh2x_7_axa.wav,,axa.jpg,,,,,,,,,,,,,,,,,,,,,,,,,,,,,,,,,
5b8a709614e8c6000104eafa,2023-06-16_10h31.59.333,phx_ver10,2022.2.5,Win32,60.15399423,,,,,space,0.6261,0,28,28,45,1,46,training,zh2x,i,zh2x_i,zh2x_7_ixi.wav,,ixi.jpg,,,,,,,,,,,,,,,,,,,,,,,,,,,,,,,,,
5b8a709614e8c6000104eafa,2023-06-16_10h31.59.333,phx_ver10,2022.2.5,Win32,60.15399423,,,,,space,0.5027,0,29,29,5,1,6,training,zh2x,a,zh2x_a,zh2x_3_azha.wav,,azha.jpg,,,,,,,,,,,,,,,,,,,,,,,,,,,,,,,,,
5b8a709614e8c6000104eafa,2023-06-16_10h31.59.333,phx_ver10,2022.2.5,Win32,60.15399423,,,,,,,,,,,,,attn_test,,,,zh2x_8_axa.wav,zh2x_8_exe.wav,exe.jpg,RIGHT,,j,0.6498,space,1.5032,0,0,0,0,1,,,,,,,,,,,,,,,,,,,,,,
5b8a709614e8c6000104eafa,2023-06-16_10h31.59.333,phx_ver10,2022.2.5,Win32,60.15399423,,,,,space,0.4669,0,30,30,46,1,47,training,zh2x,i,zh2x_i,zh2x_7_ixi.wav,,ixi.jpg,,,,,,,,,,,,,,,,,,,,,,,,,,,,,,,,,
5b8a709614e8c6000104eafa,2023-06-16_10h31.59.333,phx_ver10,2022.2.5,Win32,60.15399423,,,,,space,0.421,0,31,31,27,1,28,training,zh2x,e,zh2x_e,zh2x_7_exe.wav,,exe.jpg,,,,,,,,,,,,,,,,,,,,,,,,,,,,,,,,,
5b8a709614e8c6000104eafa,2023-06-16_10h31.59.333,phx_ver10,2022.2.5,Win32,60.15399423,,,,,space,0.3421,0,32,32,29,1,30,training,zh2x,e,zh2x_e,zh2x_7_exe.wav,,exe.jpg,,,,,,,,,,,,,,,,,,,,,,,,,,,,,,,,,
5b8a709614e8c6000104eafa,2023-06-16_10h31.59.333,phx_ver10,2022.2.5,Win32,60.15399423,,,,,space,0.5489,0,33,33,16,1,17,training,zh2x,e,zh2x_e,zh2x_1_ezhe.wav,,ezhe.jpg,,,,,,,,,,,,,,,,,,,,,,,,,,,,,,,,,
5b8a709614e8c6000104eafa,2023-06-16_10h31.59.333,phx_ver10,2022.2.5,Win32,60.15399423,,,,,space,0.6334,0,34,34,21,1,22,training,zh2x,e,zh2x_e,zh2x_3_ezhe.wav,,ezhe.jpg,,,,,,,,,,,,,,,,,,,,,,,,,,,,,,,,,
5b8a709614e8c6000104eafa,2023-06-16_10h31.59.333,phx_ver10,2022.2.5,Win32,60.15399423,,,,,space,0.5038,0,35,35,30,1,31,training,zh2x,e,zh2x_e,zh2x_7_exe.wav,,exe.jpg,,,,,,,,,,,,,,,,,,,,,,,,,,,,,,,,,
5b8a709614e8c6000104eafa,2023-06-16_10h31.59.333,phx_ver10,2022.2.5,Win32,60.15399423,,,,,,,,,,,,,attn_test,,,,zh2x_1_azha.wav,zh2x_8_ixi.wav,ixi.jpg,RIGHT,,j,0.5172,space,1.2825,0,0,0,0,1,,,,,,,,,,,,,,,,,,,,,,
5b8a709614e8c6000104eafa,2023-06-16_10h31.59.333,phx_ver10,2022.2.5,Win32,60.15399423,,,,,space,0.3835,0,36,36,23,1,24,training,zh2x,e,zh2x_e,zh2x_4_ezhe.wav,,ezhe.jpg,,,,,,,,,,,,,,,,,,,,,,,,,,,,,,,,,
5b8a709614e8c6000104eafa,2023-06-16_10h31.59.333,phx_ver10,2022.2.5,Win32,60.15399423,,,,,space,0.217,0,37,37,18,1,19,training,zh2x,e,zh2x_e,zh2x_2_ezhe.wav,,ezhe.jpg,,,,,,,,,,,,,,,,,,,,,,,,,,,,,,,,,
5b8a709614e8c6000104eafa,2023-06-16_10h31.59.333,phx_ver10,2022.2.5,Win32,60.15399423,,,,,space,0.4354,0,38,38,4,1,5,training,zh2x,a,zh2x_a,zh2x_2_azha.wav,,azha.jpg,,,,,,,,,,,,,,,,,,,,,,,,,,,,,,,,,
5b8a709614e8c6000104eafa,2023-06-16_10h31.59.333,phx_ver10,2022.2.5,Win32,60.15399423,,,,,space,0.2238,0,39,39,12,1,13,training,zh2x,a,zh2x_a,zh2x_7_axa.wav,,axa.jpg,,,,,,,,,,,,,,,,,,,,,,,,,,,,,,,,,
5b8a709614e8c6000104eafa,2023-06-16_10h31.59.333,phx_ver10,2022.2.5,Win32,60.15399423,,,,,space,0.4869,0,40,40,33,1,34,training,zh2x,i,zh2x_i,zh2x_2_izhi.wav,,izhi.jpg,,,,,,,,,,,,,,,,,,,,,,,,,,,,,,,,,
5b8a709614e8c6000104eafa,2023-06-16_10h31.59.333,phx_ver10,2022.2.5,Win32,60.15399423,,,,,space,0.4083,0,41,41,44,1,45,training,zh2x,i,zh2x_i,zh2x_7_ixi.wav,,ixi.jpg,,,,,,,,,,,,,,,,,,,,,,,,,,,,,,,,,
5b8a709614e8c6000104eafa,2023-06-16_10h31.59.333,phx_ver10,2022.2.5,Win32,60.15399423,,,,,,,,,,,,,attn_test,,,,zh2x_1_izhi.wav,zh2x_8_exe.wav,izhi.jpg,LEFT,,f,1.1049,space,1.7242,0,0,0,0,1,,,,,,,,,,,,,,,,,,,,,,
5b8a709614e8c6000104eafa,2023-06-16_10h31.59.333,phx_ver10,2022.2.5,Win32,60.15399423,,,,,space,0.6329,0,42,42,39,1,40,training,zh2x,i,zh2x_i,zh2x_4_izhi.wav,,izhi.jpg,,,,,,,,,,,,,,,,,,,,,,,,,,,,,,,,,
5b8a709614e8c6000104eafa,2023-06-16_10h31.59.333,phx_ver10,2022.2.5,Win32,60.15399423,,,,,space,0.6986,0,43,43,40,1,41,training,zh2x,i,zh2x_i,zh2x_5_ixi.wav,,ixi.jpg,,,,,,,,,,,,,,,,,,,,,,,,,,,,,,,,,
5b8a709614e8c6000104eafa,2023-06-16_10h31.59.333,phx_ver10,2022.2.5,Win32,60.15399423,,,,,space,0.7393,0,44,44,22,1,23,training,zh2x,e,zh2x_e,zh2x_3_ezhe.wav,,ezhe.jpg,,,,,,,,,,,,,,,,,,,,,,,,,,,,,,,,,
5b8a709614e8c6000104eafa,2023-06-16_10h31.59.333,phx_ver10,2022.2.5,Win32,60.15399423,,,,,space,0.4424,0,45,45,35,1,36,training,zh2x,i,zh2x_i,zh2x_2_izhi.wav,,izhi.jpg,,,,,,,,,,,,,,,,,,,,,,,,,,,,,,,,,
5b8a709614e8c6000104eafa,2023-06-16_10h31.59.333,phx_ver10,2022.2.5,Win32,60.15399423,,,,,space,0.4334,0,46,46,13,1,14,training,zh2x,a,zh2x_a,zh2x_7_axa.wav,,axa.jpg,,,,,,,,,,,,,,,,,,,,,,,,,,,,,,,,,
5b8a709614e8c6000104eafa,2023-06-16_10h31.59.333,phx_ver10,2022.2.5,Win32,60.15399423,,,,,space,0.3998,0,47,47,28,1,29,training,zh2x,e,zh2x_e,zh2x_7_exe.wav,,exe.jpg,,,,,,,,,,,,,,,,,,,,,,,,,,,,,,,,,
5b8a709614e8c6000104eafa,2023-06-16_10h31.59.333,phx_ver10,2022.2.5,Win32,60.15399423,,,,,,,,,,,,,attn_test,,,,zh2x_8_ixi.wav,zh2x_1_ezhe.wav,ixi.jpg,LEFT,,f,0.2544,space,1.0995,,,,,,,,,,,,,,,,,,,,,,,,,,,
5b8a709614e8c6000104eafa,2023-06-16_10h31.59.333,phx_ver10,2022.2.5,Win32,60.15399423,,,,,,,,,,,,,,,,,,,,,,,,,,,,,,,space,1.0474,,,,,,,,,,,,,,,,,,,,
5b8a709614e8c6000104eafa,2023-06-16_10h31.59.333,phx_ver10,2022.2.5,Win32,60.15399423,,,,,,,,,,,,,,,,,,,,,,,,,,,,,,,,,space,3.3151,,,,,,,,,,,,,,,,,,
5b8a709614e8c6000104eafa,2023-06-16_10h31.59.333,phx_ver10,2022.2.5,Win32,60.15399423,,,,,,,,,,,,5,testing_pre,,,,ihi.wav,ifi.wav,,FALSE,,,,,,,,,,,,,,,f,1.5804,space,2.3469,0,0,0,4,1,,,,,,,,,
5b8a709614e8c6000104eafa,2023-06-16_10h31.59.333,phx_ver10,2022.2.5,Win32,60.15399423,,,,,,,,,,,,3,testing_pre,,,,afa.wav,aha.wav,,FALSE,,,,,,,,,,,,,,,f,0.9997,space,1.5764,0,1,1,2,1,,,,,,,,,
5b8a709614e8c6000104eafa,2023-06-16_10h31.59.333,phx_ver10,2022.2.5,Win32,60.15399423,,,,,,,,,,,,1,testing_pre,,,,ifi.wav,ifi.wav,,TRUE,,,,,,,,,,,,,,,f,0.85,space,1.4481,0,2,2,0,1,,,,,,,,,
5b8a709614e8c6000104eafa,2023-06-16_10h31.59.333,phx_ver10,2022.2.5,Win32,60.15399423,,,,,,,,,,,,2,testing_pre,,,,auhau.wav,aufau.wav,,FALSE,,,,,,,,,,,,,,,f,0.6993,space,1.2842,0,3,3,1,1,,,,,,,,,
5b8a709614e8c6000104eafa,2023-06-16_10h31.59.333,phx_ver10,2022.2.5,Win32,60.15399423,,,,,,,,,,,,4,testing_pre,,,,eihei.wav,eihei.wav,,TRUE,,,,,,,,,,,,,,,f,0.8081,space,1.725,0,4,4,3,1,,,,,,,,,
5b8a709614e8c6000104eafa,2023-06-16_10h31.59.333,phx_ver10,2022.2.5,Win32,60.15399423,,,,,,,,,,,,,,,,,,,,,,,,,,,,,,,,,,,,,,,,,,,,space,0.7568,,,,,,,
5b8a709614e8c6000104eafa,2023-06-16_10h31.59.333,phx_ver10,2022.2.5,Win32,60.15399423,,,,,,,,,,,,82,testing_3,j2x,au,j2x_au,j2x_8_auxau.wav,j2x_8_auxau.wav,,TRUE,FALSE,,,,,,,,,,,,,,f,0.6165,space,1.7657,,,,,,,,0,0,0,81,1,,
5b8a709614e8c6000104eafa,2023-06-16_10h31.59.333,phx_ver10,2022.2.5,Win32,60.15399423,,,,,,,,,,,,103,testing_3,sh2x,ai,sh2x_ai,sh2x_1_aishai.wav,sh2x_8_aixai.wav,,FALSE,FALSE,,,,,,,,,,,,,,j,1.1884,space,1.8213,,,,,,,,0,1,1,102,1,,
5b8a709614e8c6000104eafa,2023-06-16_10h31.59.333,phx_ver10,2022.2.5,Win32,60.15399423,,,,,,,,,,,,58,testing_3,zh2j,au,zh2j_au,zh2j_8_aujau.wav,zh2j_8_aujau.wav,,TRUE,FALSE,,,,,,,,,,,,,,f,0.3008,space,0.8732,,,,,,,,0,2,2,57,1,,
5b8a709614e8c6000104eafa,2023-06-16_10h31.59.333,phx_ver10,2022.2.5,Win32,60.15399423,,,,,,,,,,,,144,testing_3,sh2j,i,sh2j_i,sh2j_8_iji.wav,sh2j_1_ishi.wav,,FALSE,FALSE,,,,,,,,,,,,,,j,0.8763,space,1.5164,,,,,,,,0,3,3,143,1,,
5b8a709614e8c6000104eafa,2023-06-16_10h31.59.333,phx_ver10,2022.2.5,Win32,60.15399423,,,,,,,,,,,,42,testing_3,zh2sh,ei,zh2sh_ei,zh2sh_8_eishei.wav,zh2sh_8_eishei.wav,,TRUE,FALSE,,,,,,,,,,,,,,f,0.5172,space,1.0182,,,,,,,,0,4,4,41,1,,
5b8a709614e8c6000104eafa,2023-06-16_10h31.59.333,phx_ver10,2022.2.5,Win32,60.15399423,,,,,,,,,,,,83,testing_3,j2x,au,j2x_au,j2x_1_aujau.wav,j2x_8_auxau.wav,,FALSE,FALSE,,,,,,,,,,,,,,j,0.6832,space,1.3601,,,,,,,,0,5,5,82,1,,
5b8a709614e8c6000104eafa,2023-06-16_10h31.59.333,phx_ver10,2022.2.5,Win32,60.15399423,,,,,,,,,,,,118,testing_3,sh2x,i,sh2x_i,sh2x_8_ixi.wav,sh2x_8_ixi.wav,,TRUE,FALSE,,,,,,,,,,,,,,f,0.6172,space,1.174,,,,,,,,0,6,6,117,1,,
5b8a709614e8c6000104eafa,2023-06-16_10h31.59.333,phx_ver10,2022.2.5,Win32,60.15399423,,,,,,,,,,,,105,testing_3,sh2x,au,sh2x_au,sh2x_1_aushau.wav,sh2x_1_aushau.wav,,TRUE,FALSE,,,,,,,,,,,,,,f,0.4486,space,0.9497,,,,,,,,0,7,7,104,1,,
5b8a709614e8c6000104eafa,2023-06-16_10h31.59.333,phx_ver10,2022.2.5,Win32,60.15399423,,,,,,,,,,,,47,testing_3,zh2sh,i,zh2sh_i,zh2sh_1_izhi.wav,zh2sh_8_ishi.wav,,FALSE,FALSE,,,,,,,,,,,,,,j,0.6743,space,1.2498,,,,,,,,0,8,8,46,1,,
5b8a709614e8c6000104eafa,2023-06-16_10h31.59.333,phx_ver10,2022.2.5,Win32,60.15399423,,,,,,,,,,,,123,testing_3,sh2j,a,sh2j_a,sh2j_1_asha.wav,sh2j_8_aja.wav,,FALSE,FALSE,,,,,,,,,,,,,,j,0.65,space,1.2742,,,,,,,,0,9,9,122,1,,
5b8a709614e8c6000104eafa,2023-06-16_10h31.59.333,phx_ver10,2022.2.5,Win32,60.15399423,,,,,,,,,,,,48,testing_3,zh2sh,i,zh2sh_i,zh2sh_8_ishi.wav,zh2sh_1_izhi.wav,,FALSE,FALSE,,,,,,,,,,,,,,f,0.8831,space,1.5476,,,,,,,,0,10,10,47,1,,
5b8a709614e8c6000104eafa,2023-06-16_10h31.59.333,phx_ver10,2022.2.5,Win32,60.15399423,,,,,,,,,,,,126,testing_3,sh2j,ai,sh2j_ai,sh2j_8_aijai.wav,sh2j_8_aijai.wav,,TRUE,FALSE,,,,,,,,,,,,,,f,0.4338,space,0.8165,,,,,,,,0,11,11,125,1,,
5b8a709614e8c6000104eafa,2023-06-16_10h31.59.333,phx_ver10,2022.2.5,Win32,60.15399423,,,,,,,,,,,,41,testing_3,zh2sh,ei,zh2sh_ei,zh2sh_1_eizhei.wav,zh2sh_1_eizhei.wav,,TRUE,FALSE,,,,,,,,,,,,,,f,0.3006,space,0.5845,,,,,,,,0,12,12,40,1,,
5b8a709614e8c6000104eafa,2023-06-16_10h31.59.333,phx_ver10,2022.2.5,Win32,60.15399423,,,,,,,,,,,,143,testing_3,sh2j,i,sh2j_i,sh2j_1_ishi.wav,sh2j_8_iji.wav,,FALSE,FALSE,,,,,,,,,,,,,,j,0.367,space,0.7232,,,,,,,,0,13,13,142,1,,
5b8a709614e8c6000104eafa,2023-06-16_10h31.59.333,phx_ver10,2022.2.5,Win32,60.15399423,,,,,,,,,,,,39,testing_3,zh2sh,e,zh2sh_e,zh2sh_1_ezhe.wav,zh2sh_8_eshe.wav,,FALSE,FALSE,,,,,,,,,,,,,,j,1.207,space,1.7925,,,,,,,,0,14,14,38,1,,
5b8a709614e8c6000104eafa,2023-06-16_10h31.59.333,phx_ver10,2022.2.5,Win32,60.15399423,,,,,,,,,,,,28,testing_3,zh2sh,a,zh2sh_a,zh2sh_8_asha.wav,zh2sh_1_azha.wav,,FALSE,FALSE,,,,,,,,,,,,,,f,0.6007,space,1.0343,,,,,,,,0,15,15,27,1,,
5b8a709614e8c6000104eafa,2023-06-16_10h31.59.333,phx_ver10,2022.2.5,Win32,60.15399423,,,,,,,,,,,,45,testing_3,zh2sh,i,zh2sh_i,zh2sh_1_izhi.wav,zh2sh_1_izhi.wav,,TRUE,FALSE,,,,,,,,,,,,,,f,0.459,space,0.8361,,,,,,,,0,16,16,44,1,,
5b8a709614e8c6000104eafa,2023-06-16_10h31.59.333,phx_ver10,2022.2.5,Win32,60.15399423,,,,,,,,,,,,34,testing_3,zh2sh,au,zh2sh_au,zh2sh_8_aushau.wav,zh2sh_8_aushau.wav,,TRUE,FALSE,,,,,,,,,,,,,,f,0.4333,space,0.8362,,,,,,,,0,17,17,33,1,,
5b8a709614e8c6000104eafa,2023-06-16_10h31.59.333,phx_ver10,2022.2.5,Win32,60.15399423,,,,,,,,,,,,7,testing_1,zh2x,e,zh2x_e,zh2x_1_ezhe.wav,zh2x_8_exe.wav,,FALSE,TRUE,,,,,,,,,,,,,,j,0.5521,space,1.0667,,,,,,,,0,18,18,6,1,,
5b8a709614e8c6000104eafa,2023-06-16_10h31.59.333,phx_ver10,2022.2.5,Win32,60.15399423,,,,,,,,,,,,129,testing_3,sh2j,au,sh2j_au,sh2j_1_aushau.wav,sh2j_1_aushau.wav,,TRUE,FALSE,,,,,,,,,,,,,,f,0.39,space,0.8007,,,,,,,,0,19,19,128,1,,
5b8a709614e8c6000104eafa,2023-06-16_10h31.59.333,phx_ver10,2022.2.5,Win32,60.15399423,,,,,,,,,,,,38,testing_3,zh2sh,e,zh2sh_e,zh2sh_8_eshe.wav,zh2sh_8_eshe.wav,,TRUE,FALSE,,,,,,,,,,,,,,f,0.2596,space,0.5671,,,,,,,,0,20,20,37,1,,
5b8a709614e8c6000104eafa,2023-06-16_10h31.59.333,phx_ver10,2022.2.5,Win32,60.15399423,,,,,,,,,,,,101,testing_3,sh2x,ai,sh2x_ai,sh2x_1_aishai.wav,sh2x_1_aishai.wav,,TRUE,FALSE,,,,,,,,,,,,,,f,0.4176,space,0.6863,,,,,,,,0,21,21,100,1,,
5b8a709614e8c6000104eafa,2023-06-16_10h31.59.333,phx_ver10,2022.2.5,Win32,60.15399423,,,,,,,,,,,,135,testing_3,sh2j,e,sh2j_e,sh2j_1_eshe.wav,sh2j_8_eje.wav,,FALSE,FALSE,,,,,,,,,,,,,,j,0.4332,space,1.01,,,,,,,,0,22,22,134,1,,
5b8a709614e8c6000104eafa,2023-06-16_10h31.59.333,phx_ver10,2022.2.5,Win32,60.15399423,,,,,,,,,,,,8,testing_1,zh2x,e,zh2x_e,zh2x_8_exe.wav,zh2x_1_ezhe.wav,,FALSE,TRUE,,,,,,,,,,,,,,j,0.3507,space,0.8503,,,,,,,,0,23,23,7,1,,
5b8a709614e8c6000104eafa,2023-06-16_10h31.59.333,phx_ver10,2022.2.5,Win32,60.15399423,,,,,,,,,,,,13,testing_2,zh2x,ai,zh2x_ai,zh2x_1_aizhai.wav,zh2x_1_aizhai.wav,,TRUE,FALSE,,,,,,,,,,,,,,f,0.1832,space,0.5904,,,,,,,,0,24,24,12,1,,
5b8a709614e8c6000104eafa,2023-06-16_10h31.59.333,phx_ver10,2022.2.5,Win32,60.15399423,,,,,,,,,,,,107,testing_3,sh2x,au,sh2x_au,sh2x_1_aushau.wav,sh2x_8_auxau.wav,,FALSE,FALSE,,,,,,,,,,,,,,j,0.4186,space,0.8009,,,,,,,,0,25,25,106,1,,
5b8a709614e8c6000104eafa,2023-06-16_10h31.59.333,phx_ver10,2022.2.5,Win32,60.15399423,,,,,,,,,,,,64,testing_3,zh2j,e,zh2j_e,zh2j_8_eje.wav,zh2j_1_ezhe.wav,,FALSE,FALSE,,,,,,,,,,,,,,j,0.6849,space,1.3164,,,,,,,,0,26,26,63,1,,
5b8a709614e8c6000104eafa,2023-06-16_10h31.59.333,phx_ver10,2022.2.5,Win32,60.15399423,,,,,,,,,,,,111,testing_3,sh2x,e,sh2x_e,sh2x_1_eshe.wav,sh2x_8_exe.wav,,FALSE,FALSE,,,,,,,,,,,,,,j,0.9509,space,1.2719,,,,,,,,0,27,27,110,1,,
5b8a709614e8c6000104eafa,2023-06-16_10h31.59.333,phx_ver10,2022.2.5,Win32,60.15399423,,,,,,,,,,,,92,testing_3,j2x,ei,j2x_ei,j2x_8_eixei.wav,j2x_1_eijei.wav,,FALSE,FALSE,,,,,,,,,,,,,,f,0.326,space,0.7246,,,,,,,,0,28,28,91,1,,
5b8a709614e8c6000104eafa,2023-06-16_10h31.59.333,phx_ver10,2022.2.5,Win32,60.15399423,,,,,,,,,,,,66,testing_3,zh2j,ei,zh2j_ei,zh2j_8_eijei.wav,zh2j_8_eijei.wav,,TRUE,FALSE,,,,,,,,,,,,,,f,0.2565,space,0.5812,,,,,,,,0,29,29,65,1,,
5b8a709614e8c6000104eafa,2023-06-16_10h31.59.333,phx_ver10,2022.2.5,Win32,60.15399423,,,,,,,,,,,,52,testing_3,zh2j,a,zh2j_a,zh2j_8_aja.wav,zh2j_1_azha.wav,,FALSE,FALSE,,,,,,,,,,,,,,f,0.3176,space,0.6665,,,,,,,,0,30,30,51,1,,
5b8a709614e8c6000104eafa,2023-06-16_10h31.59.333,phx_ver10,2022.2.5,Win32,60.15399423,,,,,,,,,,,,3,testing_1,zh2x,a,zh2x_a,zh2x_1_azha.wav,zh2x_8_axa.wav,,FALSE,TRUE,,,,,,,,,,,,,,j,0.5054,space,0.91,,,,,,,,0,31,31,2,1,,
5b8a709614e8c6000104eafa,2023-06-16_10h31.59.333,phx_ver10,2022.2.5,Win32,60.15399423,,,,,,,,,,,,98,testing_3,sh2x,a,sh2x_a,sh2x_8_axa.wav,sh2x_8_axa.wav,,TRUE,FALSE,,,,,,,,,,,,,,f,0.2833,space,0.6224,,,,,,,,0,32,32,97,1,,
5b8a709614e8c6000104eafa,2023-06-16_10h31.59.333,phx_ver10,2022.2.5,Win32,60.15399423,,,,,,,,,,,,108,testing_3,sh2x,au,sh2x_au,sh2x_8_auxau.wav,sh2x_1_aushau.wav,,FALSE,FALSE,,,,,,,,,,,,,,j,0.4058,space,0.8193,,,,,,,,0,33,33,107,1,,
5b8a709614e8c6000104eafa,2023-06-16_10h31.59.333,phx_ver10,2022.2.5,Win32,60.15399423,,,,,,,,,,,,6,testing_1,zh2x,e,zh2x_e,zh2x_8_exe.wav,zh2x_8_exe_copy.wav,,TRUE,TRUE,,,,,,,,,,,,,,f,0.4387,space,0.7405,,,,,,,,0,34,34,5,1,,
5b8a709614e8c6000104eafa,2023-06-16_10h31.59.333,phx_ver10,2022.2.5,Win32,60.15399423,,,,,,,,,,,,56,testing_3,zh2j,ai,zh2j_ai,zh2j_8_aijai.wav,zh2j_1_aizhai.wav,,FALSE,FALSE,,,,,,,,,,,,,,f,0.8165,space,1.116,,,,,,,,0,35,35,55,1,,
5b8a709614e8c6000104eafa,2023-06-16_10h31.59.333,phx_ver10,2022.2.5,Win32,60.15399423,,,,,,,,,,,,121,testing_3,sh2j,a,sh2j_a,sh2j_1_asha.wav,sh2j_1_asha.wav,,TRUE,FALSE,,,,,,,,,,,,,,f,0.352,space,0.667,,,,,,,,0,36,36,120,1,,
5b8a709614e8c6000104eafa,2023-06-16_10h31.59.333,phx_ver10,2022.2.5,Win32,60.15399423,,,,,,,,,,,,100,testing_3,sh2x,a,sh2x_a,sh2x_8_axa.wav,sh2x_1_asha.wav,,FALSE,FALSE,,,,,,,,,,,,,,j,0.3672,space,0.7197,,,,,,,,0,37,37,99,1,,
5b8a709614e8c6000104eafa,2023-06-16_10h31.59.333,phx_ver10,2022.2.5,Win32,60.15399423,,,,,,,,,,,,130,testing_3,sh2j,au,sh2j_au,sh2j_8_aujau.wav,sh2j_8_aujau.wav,,TRUE,FALSE,,,,,,,,,,,,,,f,0.5062,space,0.8401,,,,,,,,0,38,38,129,1,,
5b8a709614e8c6000104eafa,2023-06-16_10h31.59.333,phx_ver10,2022.2.5,Win32,60.15399423,,,,,,,,,,,,54,testing_3,zh2j,ai,zh2j_ai,zh2j_8_aijai.wav,zh2j_8_aijai.wav,,TRUE,FALSE,,,,,,,,,,,,,,f,0.3322,space,0.6538,,,,,,,,0,39,39,53,1,,
5b8a709614e8c6000104eafa,2023-06-16_10h31.59.333,phx_ver10,2022.2.5,Win32,60.15399423,,,,,,,,,,,,61,testing_3,zh2j,e,zh2j_e,zh2j_1_ezhe.wav,zh2j_1_ezhe.wav,,TRUE,FALSE,,,,,,,,,,,,,,f,0.3695,space,0.6997,,,,,,,,0,40,40,60,1,,
5b8a709614e8c6000104eafa,2023-06-16_10h31.59.333,phx_ver10,2022.2.5,Win32,60.15399423,,,,,,,,,,,,99,testing_3,sh2x,a,sh2x_a,sh2x_1_asha.wav,sh2x_8_axa.wav,,FALSE,FALSE,,,,,,,,,,,,,,j,0.6318,space,1.1816,,,,,,,,0,41,41,98,1,,
5b8a709614e8c6000104eafa,2023-06-16_10h31.59.333,phx_ver10,2022.2.5,Win32,60.15399423,,,,,,,,,,,,90,testing_3,j2x,ei,j2x_ei,j2x_8_eixei.wav,j2x_8_eixei.wav,,TRUE,FALSE,,,,,,,,,,,,,,f,0.2506,space,0.5683,,,,,,,,0,42,42,89,1,,
5b8a709614e8c6000104eafa,2023-06-16_10h31.59.333,phx_ver10,2022.2.5,Win32,60.15399423,,,,,,,,,,,,113,testing_3,sh2x,ei,sh2x_ei,sh2x_1_eishei.wav,sh2x_1_eishei.wav,,TRUE,FALSE,,,,,,,,,,,,,,f,0.3253,space,0.6499,,,,,,,,0,43,43,112,1,,
5b8a709614e8c6000104eafa,2023-06-16_10h31.59.333,phx_ver10,2022.2.5,Win32,60.15399423,,,,,,,,,,,,79,testing_3,j2x,ai,j2x_ai,j2x_1_aijai.wav,j2x_8_aixai.wav,,FALSE,FALSE,,,,,,,,,,,,,,j,0.8054,space,1.198,,,,,,,,0,44,44,78,1,,
5b8a709614e8c6000104eafa,2023-06-16_10h31.59.333,phx_ver10,2022.2.5,Win32,60.15399423,,,,,,,,,,,,15,testing_2,zh2x,ai,zh2x_ai,zh2x_1_aizhai.wav,zh2x_8_aixai.wav,,FALSE,FALSE,,,,,,,,,,,,,,j,0.4402,space,0.8086,,,,,,,,0,45,45,14,1,,
5b8a709614e8c6000104eafa,2023-06-16_10h31.59.333,phx_ver10,2022.2.5,Win32,60.15399423,,,,,,,,,,,,33,testing_3,zh2sh,au,zh2sh_au,zh2sh_1_auzhau.wav,zh2sh_1_auzhau.wav,,TRUE,FALSE,,,,,,,,,,,,,,f,0.3182,space,0.6505,,,,,,,,0,46,46,32,1,,
5b8a709614e8c6000104eafa,2023-06-16_10h31.59.333,phx_ver10,2022.2.5,Win32,60.15399423,,,,,,,,,,,,19,testing_2,zh2x,au,zh2x_au,zh2x_1_auzhau.wav,zh2x_8_auxau.wav,,FALSE,FALSE,,,,,,,,,,,,,,j,0.4331,space,0.8494,,,,,,,,0,47,47,18,1,,
5b8a709614e8c6000104eafa,2023-06-16_10h31.59.333,phx_ver10,2022.2.5,Win32,60.15399423,,,,,,,,,,,,4,testing_1,zh2x,a,zh2x_a,zh2x_8_axa.wav,zh2x_1_azha.wav,,FALSE,TRUE,,,,,,,,,,,,,,j,0.3432,space,0.7058,,,,,,,,0,48,48,3,1,,
5b8a709614e8c6000104eafa,2023-06-16_10h31.59.333,phx_ver10,2022.2.5,Win32,60.15399423,,,,,,,,,,,,27,testing_3,zh2sh,a,zh2sh_a,zh2sh_1_azha.wav,zh2sh_8_asha.wav,,FALSE,FALSE,,,,,,,,,,,,,,j,0.2503,space,0.5887,,,,,,,,0,49,49,26,1,,
5b8a709614e8c6000104eafa,2023-06-16_10h31.59.333,phx_ver10,2022.2.5,Win32,60.15399423,,,,,,,,,,,,20,testing_2,zh2x,au,zh2x_au,zh2x_8_auxau.wav,zh2x_1_auzhau.wav,,FALSE,FALSE,,,,,,,,,,,,,,j,0.4337,space,0.7596,,,,,,,,0,50,50,19,1,,
5b8a709614e8c6000104eafa,2023-06-16_10h31.59.333,phx_ver10,2022.2.5,Win32,60.15399423,,,,,,,,,,,,22,testing_2,zh2x,ei,zh2x_ei,zh2x_8_eixei.wav,zh2x_8_eixei.wav,,TRUE,FALSE,,,,,,,,,,,,,,f,0.3203,space,0.6192,,,,,,,,0,51,51,21,1,,
5b8a709614e8c6000104eafa,2023-06-16_10h31.59.333,phx_ver10,2022.2.5,Win32,60.15399423,,,,,,,,,,,,53,testing_3,zh2j,ai,zh2j_ai,zh2j_1_aizhai.wav,zh2j_1_aizhai.wav,,TRUE,FALSE,,,,,,,,,,,,,,f,0.3497,space,0.6187,,,,,,,,0,52,52,52,1,,
5b8a709614e8c6000104eafa,2023-06-16_10h31.59.333,phx_ver10,2022.2.5,Win32,60.15399423,,,,,,,,,,,,132,testing_3,sh2j,au,sh2j_au,sh2j_8_aujau.wav,sh2j_1_aushau.wav,,FALSE,FALSE,,,,,,,,,,,,,,j,0.3174,space,0.6665,,,,,,,,0,53,53,131,1,,
5b8a709614e8c6000104eafa,2023-06-16_10h31.59.333,phx_ver10,2022.2.5,Win32,60.15399423,,,,,,,,,,,,31,testing_3,zh2sh,ai,zh2sh_ai,zh2sh_1_aizhai.wav,zh2sh_8_aishai.wav,,FALSE,FALSE,,,,,,,,,,,,,,j,0.506,space,0.9507,,,,,,,,0,54,54,30,1,,
5b8a709614e8c6000104eafa,2023-06-16_10h31.59.333,phx_ver10,2022.2.5,Win32,60.15399423,,,,,,,,,,,,25,testing_3,zh2sh,a,zh2sh_a,zh2sh_1_azha.wav,zh2sh_1_azha.wav,,TRUE,FALSE,,,,,,,,,,,,,,f,0.3868,space,0.6984,,,,,,,,0,55,55,24,1,,
5b8a709614e8c6000104eafa,2023-06-16_10h31.59.333,phx_ver10,2022.2.5,Win32,60.15399423,,,,,,,,,,,,76,testing_3,j2x,a,j2x_a,j2x_8_axa.wav,j2x_1_aja.wav,,FALSE,FALSE,,,,,,,,,,,,,,j,0.4557,space,0.8065,,,,,,,,0,56,56,75,1,,
5b8a709614e8c6000104eafa,2023-06-16_10h31.59.333,phx_ver10,2022.2.5,Win32,60.15399423,,,,,,,,,,,,5,testing_1,zh2x,e,zh2x_e,zh2x_1_ezhe.wav,zh2x_1_ezhe_copy.wav,,TRUE,TRUE,,,,,,,,,,,,,,f,0.6317,space,1.3049,,,,,,,,0,57,57,4,1,,
5b8a709614e8c6000104eafa,2023-06-16_10h31.59.333,phx_ver10,2022.2.5,Win32,60.15399423,,,,,,,,,,,,77,testing_3,j2x,ai,j2x_ai,j2x_1_aijai.wav,j2x_1_aijai.wav,,TRUE,FALSE,,,,,,,,,,,,,,f,0.4505,space,0.8187,,,,,,,,0,58,58,76,1,,
5b8a709614e8c6000104eafa,2023-06-16_10h31.59.333,phx_ver10,2022.2.5,Win32,60.15399423,,,,,,,,,,,,116,testing_3,sh2x,ei,sh2x_ei,sh2x_8_eixei.wav,sh2x_1_eishei.wav,,FALSE,FALSE,,,,,,,,,,,,,,j,0.2378,space,0.6526,,,,,,,,0,59,59,115,1,,
5b8a709614e8c6000104eafa,2023-06-16_10h31.59.333,phx_ver10,2022.2.5,Win32,60.15399423,,,,,,,,,,,,128,testing_3,sh2j,ai,sh2j_ai,sh2j_8_aijai.wav,sh2j_1_aishai.wav,,FALSE,FALSE,,,,,,,,,,,,,,j,0.3352,space,0.7163,,,,,,,,0,60,60,127,1,,
5b8a709614e8c6000104eafa,2023-06-16_10h31.59.333,phx_ver10,2022.2.5,Win32,60.15399423,,,,,,,,,,,,23,testing_2,zh2x,ei,zh2x_ei,zh2x_1_eizhei.wav,zh2x_8_eixei.wav,,FALSE,FALSE,,,,,,,,,,,,,,j,0.2985,space,0.6834,,,,,,,,0,61,61,22,1,,
5b8a709614e8c6000104eafa,2023-06-16_10h31.59.333,phx_ver10,2022.2.5,Win32,60.15399423,,,,,,,,,,,,109,testing_3,sh2x,e,sh2x_e,sh2x_1_eshe.wav,sh2x_1_eshe.wav,,TRUE,FALSE,,,,,,,,,,,,,,f,0.3502,space,0.6337,,,,,,,,0,62,62,108,1,,
5b8a709614e8c6000104eafa,2023-06-16_10h31.59.333,phx_ver10,2022.2.5,Win32,60.15399423,,,,,,,,,,,,71,testing_3,zh2j,i,zh2j_i,zh2j_1_izhi.wav,zh2j_8_iji.wav,,FALSE,FALSE,,,,,,,,,,,,,,j,0.2256,space,0.6036,,,,,,,,0,63,63,70,1,,
5b8a709614e8c6000104eafa,2023-06-16_10h31.59.333,phx_ver10,2022.2.5,Win32,60.15399423,,,,,,,,,,,,84,testing_3,j2x,au,j2x_au,j2x_8_auxau.wav,j2x_1_aujau.wav,,FALSE,FALSE,,,,,,,,,,,,,,j,0.6086,space,0.9215,,,,,,,,0,64,64,83,1,,
5b8a709614e8c6000104eafa,2023-06-16_10h31.59.333,phx_ver10,2022.2.5,Win32,60.15399423,,,,,,,,,,,,75,testing_3,j2x,a,j2x_a,j2x_1_aja.wav,j2x_8_axa.wav,,FALSE,FALSE,,,,,,,,,,,,,,j,0.4509,space,0.7869,,,,,,,,0,65,65,74,1,,
5b8a709614e8c6000104eafa,2023-06-16_10h31.59.333,phx_ver10,2022.2.5,Win32,60.15399423,,,,,,,,,,,,114,testing_3,sh2x,ei,sh2x_ei,sh2x_8_eixei.wav,sh2x_8_eixei.wav,,TRUE,FALSE,,,,,,,,,,,,,,f,0.1548,space,0.4847,,,,,,,,0,66,66,113,1,,
5b8a709614e8c6000104eafa,2023-06-16_10h31.59.333,phx_ver10,2022.2.5,Win32,60.15399423,,,,,,,,,,,,63,testing_3,zh2j,e,zh2j_e,zh2j_1_ezhe.wav,zh2j_8_eje.wav,,FALSE,FALSE,,,,,,,,,,,,,,j,0.3897,space,0.7078,,,,,,,,0,67,67,62,1,,
5b8a709614e8c6000104eafa,2023-06-16_10h31.59.333,phx_ver10,2022.2.5,Win32,60.15399423,,,,,,,,,,,,142,testing_3,sh2j,i,sh2j_i,sh2j_8_iji.wav,sh2j_8_iji.wav,,TRUE,FALSE,,,,,,,,,,,,,,f,0.3605,space,0.636,,,,,,,,0,68,68,141,1,,
5b8a709614e8c6000104eafa,2023-06-16_10h31.59.333,phx_ver10,2022.2.5,Win32,60.15399423,,,,,,,,,,,,26,testing_3,zh2sh,a,zh2sh_a,zh2sh_8_asha.wav,zh2sh_8_asha.wav,,TRUE,FALSE,,,,,,,,,,,,,,f,0.1154,space,0.3825,,,,,,,,0,69,69,25,1,,
5b8a709614e8c6000104eafa,2023-06-16_10h31.59.333,phx_ver10,2022.2.5,Win32,60.15399423,,,,,,,,,,,,50,testing_3,zh2j,a,zh2j_a,zh2j_8_aja.wav,zh2j_8_aja.wav,,TRUE,FALSE,,,,,,,,,,,,,,f,0.36,space,0.6011,,,,,,,,0,70,70,49,1,,
5b8a709614e8c6000104eafa,2023-06-16_10h31.59.333,phx_ver10,2022.2.5,Win32,60.15399423,,,,,,,,,,,,131,testing_3,sh2j,au,sh2j_au,sh2j_1_aushau.wav,sh2j_8_aujau.wav,,FALSE,FALSE,,,,,,,,,,,,,,j,0.2195,space,0.5502,,,,,,,,0,71,71,130,1,,
5b8a709614e8c6000104eafa,2023-06-16_10h31.59.333,phx_ver10,2022.2.5,Win32,60.15399423,,,,,,,,,,,,65,testing_3,zh2j,ei,zh2j_ei,zh2j_1_eizhei.wav,zh2j_1_eizhei.wav,,TRUE,FALSE,,,,,,,,,,,,,,f,0.275,space,0.5335,,,,,,,,0,72,72,64,1,,
5b8a709614e8c6000104eafa,2023-06-16_10h31.59.333,phx_ver10,2022.2.5,Win32,60.15399423,,,,,,,,,,,,29,testing_3,zh2sh,ai,zh2sh_ai,zh2sh_1_aizhai.wav,zh2sh_1_aizhai.wav,,TRUE,FALSE,,,,,,,,,,,,,,f,0.2241,space,0.4674,,,,,,,,0,73,73,28,1,,
5b8a709614e8c6000104eafa,2023-06-16_10h31.59.333,phx_ver10,2022.2.5,Win32,60.15399423,,,,,,,,,,,,97,testing_3,sh2x,a,sh2x_a,sh2x_1_asha.wav,sh2x_1_asha.wav,,TRUE,FALSE,,,,,,,,,,,,,,f,0.2592,space,0.5343,,,,,,,,0,74,74,96,1,,
5b8a709614e8c6000104eafa,2023-06-16_10h31.59.333,phx_ver10,2022.2.5,Win32,60.15399423,,,,,,,,,,,,11,testing_1,zh2x,i,zh2x_i,zh2x_1_izhi.wav,zh2x_8_ixi.wav,,FALSE,TRUE,,,,,,,,,,,,,,j,0.933,space,1.2352,,,,,,,,0,75,75,10,1,,
5b8a709614e8c6000104eafa,2023-06-16_10h31.59.333,phx_ver10,2022.2.5,Win32,60.15399423,,,,,,,,,,,,67,testing_3,zh2j,ei,zh2j_ei,zh2j_1_eizhei.wav,zh2j_8_eijei.wav,,FALSE,FALSE,,,,,,,,,,,,,,f,0.4728,space,0.7341,,,,,,,,0,76,76,66,1,,
5b8a709614e8c6000104eafa,2023-06-16_10h31.59.333,phx_ver10,2022.2.5,Win32,60.15399423,,,,,,,,,,,,21,testing_2,zh2x,ei,zh2x_ei,zh2x_1_eizhei.wav,zh2x_1_eizhei.wav,,TRUE,FALSE,,,,,,,,,,,,,,f,0.3513,space,0.5879,,,,,,,,0,77,77,20,1,,
5b8a709614e8c6000104eafa,2023-06-16_10h31.59.333,phx_ver10,2022.2.5,Win32,60.15399423,,,,,,,,,,,,72,testing_3,zh2j,i,zh2j_i,zh2j_8_iji.wav,zh2j_1_izhi.wav,,FALSE,FALSE,,,,,,,,,,,,,,j,0.4895,space,0.8499,,,,,,,,0,78,78,71,1,,
5b8a709614e8c6000104eafa,2023-06-16_10h31.59.333,phx_ver10,2022.2.5,Win32,60.15399423,,,,,,,,,,,,35,testing_3,zh2sh,au,zh2sh_au,zh2sh_1_auzhau.wav,zh2sh_8_aushau.wav,,FALSE,FALSE,,,,,,,,,,,,,,j,0.2673,space,0.5707,,,,,,,,0,79,79,34,1,,
5b8a709614e8c6000104eafa,2023-06-16_10h31.59.333,phx_ver10,2022.2.5,Win32,60.15399423,,,,,,,,,,,,122,testing_3,sh2j,a,sh2j_a,sh2j_8_aja.wav,sh2j_8_aja.wav,,TRUE,FALSE,,,,,,,,,,,,,,f,0.2776,space,0.5834,,,,,,,,0,80,80,121,1,,
5b8a709614e8c6000104eafa,2023-06-16_10h31.59.333,phx_ver10,2022.2.5,Win32,60.15399423,,,,,,,,,,,,124,testing_3,sh2j,a,sh2j_a,sh2j_8_aja.wav,sh2j_1_asha.wav,,FALSE,FALSE,,,,,,,,,,,,,,j,0.1673,space,0.4866,,,,,,,,0,81,81,123,1,,
5b8a709614e8c6000104eafa,2023-06-16_10h31.59.333,phx_ver10,2022.2.5,Win32,60.15399423,,,,,,,,,,,,18,testing_2,zh2x,au,zh2x_au,zh2x_8_auxau.wav,zh2x_8_auxau.wav,,TRUE,FALSE,,,,,,,,,,,,,,f,0.2838,space,0.54,,,,,,,,0,82,82,17,1,,
5b8a709614e8c6000104eafa,2023-06-16_10h31.59.333,phx_ver10,2022.2.5,Win32,60.15399423,,,,,,,,,,,,70,testing_3,zh2j,i,zh2j_i,zh2j_8_iji.wav,zh2j_8_iji.wav,,TRUE,FALSE,,,,,,,,,,,,,,f,0.2836,space,0.5776,,,,,,,,0,83,83,69,1,,
5b8a709614e8c6000104eafa,2023-06-16_10h31.59.333,phx_ver10,2022.2.5,Win32,60.15399423,,,,,,,,,,,,1,testing_1,zh2x,a,zh2x_a,zh2x_1_azha.wav,zh2x_1_azha_copy.wav,,TRUE,TRUE,,,,,,,,,,,,,,f,0.2228,space,0.5008,,,,,,,,0,84,84,0,1,,
5b8a709614e8c6000104eafa,2023-06-16_10h31.59.333,phx_ver10,2022.2.5,Win32,60.15399423,,,,,,,,,,,,112,testing_3,sh2x,e,sh2x_e,sh2x_8_exe.wav,sh2x_1_eshe.wav,,FALSE,FALSE,,,,,,,,,,,,,,j,0.2042,space,0.5553,,,,,,,,0,85,85,111,1,,
5b8a709614e8c6000104eafa,2023-06-16_10h31.59.333,phx_ver10,2022.2.5,Win32,60.15399423,,,,,,,,,,,,140,testing_3,sh2j,ei,sh2j_ei,sh2j_8_eijei.wav,sh2j_1_eishei.wav,,FALSE,FALSE,,,,,,,,,,,,,,j,0.3248,space,0.6698,,,,,,,,0,86,86,139,1,,
5b8a709614e8c6000104eafa,2023-06-16_10h31.59.333,phx_ver10,2022.2.5,Win32,60.15399423,,,,,,,,,,,,106,testing_3,sh2x,au,sh2x_au,sh2x_8_auxau.wav,sh2x_8_auxau.wav,,TRUE,FALSE,,,,,,,,,,,,,,f,0.4339,space,0.7565,,,,,,,,0,87,87,105,1,,
5b8a709614e8c6000104eafa,2023-06-16_10h31.59.333,phx_ver10,2022.2.5,Win32,60.15399423,,,,,,,,,,,,55,testing_3,zh2j,ai,zh2j_ai,zh2j_1_aizhai.wav,zh2j_8_aijai.wav,,FALSE,FALSE,,,,,,,,,,,,,,f,0.407,space,0.6734,,,,,,,,0,88,88,54,1,,
5b8a709614e8c6000104eafa,2023-06-16_10h31.59.333,phx_ver10,2022.2.5,Win32,60.15399423,,,,,,,,,,,,46,testing_3,zh2sh,i,zh2sh_i,zh2sh_8_ishi.wav,zh2sh_8_ishi.wav,,TRUE,FALSE,,,,,,,,,,,,,,f,0.1521,space,0.4218,,,,,,,,0,89,89,45,1,,
5b8a709614e8c6000104eafa,2023-06-16_10h31.59.333,phx_ver10,2022.2.5,Win32,60.15399423,,,,,,,,,,,,57,testing_3,zh2j,au,zh2j_au,zh2j_1_auzhau.wav,zh2j_1_auzhau.wav,,TRUE,FALSE,,,,,,,,,,,,,,f,0.115,space,0.4202,,,,,,,,0,90,90,56,1,,
5b8a709614e8c6000104eafa,2023-06-16_10h31.59.333,phx_ver10,2022.2.5,Win32,60.15399423,,,,,,,,,,,,133,testing_3,sh2j,e,sh2j_e,sh2j_1_eshe.wav,sh2j_1_eshe.wav,,TRUE,FALSE,,,,,,,,,,,,,,f,0.1511,space,0.4344,,,,,,,,0,91,91,132,1,,
5b8a709614e8c6000104eafa,2023-06-16_10h31.59.333,phx_ver10,2022.2.5,Win32,60.15399423,,,,,,,,,,,,127,testing_3,sh2j,ai,sh2j_ai,sh2j_1_aishai.wav,sh2j_8_aijai.wav,,FALSE,FALSE,,,,,,,,,,,,,,j,0.3347,space,0.6114,,,,,,,,0,92,92,126,1,,
5b8a709614e8c6000104eafa,2023-06-16_10h31.59.333,phx_ver10,2022.2.5,Win32,60.15399423,,,,,,,,,,,,49,testing_3,zh2j,a,zh2j_a,zh2j_1_azha.wav,zh2j_1_azha.wav,,TRUE,FALSE,,,,,,,,,,,,,,f,0.1491,space,0.4168,,,,,,,,0,93,93,48,1,,
5b8a709614e8c6000104eafa,2023-06-16_10h31.59.333,phx_ver10,2022.2.5,Win32,60.15399423,,,,,,,,,,,,117,testing_3,sh2x,i,sh2x_i,sh2x_1_ishi.wav,sh2x_1_ishi.wav,,TRUE,FALSE,,,,,,,,,,,,,,f,0.1516,space,0.3861,,,,,,,,0,94,94,116,1,,
5b8a709614e8c6000104eafa,2023-06-16_10h31.59.333,phx_ver10,2022.2.5,Win32,60.15399423,,,,,,,,,,,,12,testing_1,zh2x,i,zh2x_i,zh2x_8_ixi.wav,zh2x_1_izhi.wav,,FALSE,TRUE,,,,,,,,,,,,,,j,0.2036,space,0.5588,,,,,,,,0,95,95,11,1,,
5b8a709614e8c6000104eafa,2023-06-16_10h31.59.333,phx_ver10,2022.2.5,Win32,60.15399423,,,,,,,,,,,,2,testing_1,zh2x,a,zh2x_a,zh2x_8_axa.wav,zh2x_8_axa_copy.wav,,TRUE,TRUE,,,,,,,,,,,,,,f,0.1014,space,0.3673,,,,,,,,0,96,96,1,1,,
5b8a709614e8c6000104eafa,2023-06-16_10h31.59.333,phx_ver10,2022.2.5,Win32,60.15399423,,,,,,,,,,,,17,testing_2,zh2x,au,zh2x_au,zh2x_1_auzhau.wav,zh2x_1_auzhau.wav,,TRUE,FALSE,,,,,,,,,,,,,,f,0.2043,space,0.5004,,,,,,,,0,97,97,16,1,,
5b8a709614e8c6000104eafa,2023-06-16_10h31.59.333,phx_ver10,2022.2.5,Win32,60.15399423,,,,,,,,,,,,86,testing_3,j2x,e,j2x_e,j2x_8_exe.wav,j2x_8_exe.wav,,TRUE,FALSE,,,,,,,,,,,,,,f,0.1396,space,0.4103,,,,,,,,0,98,98,85,1,,
5b8a709614e8c6000104eafa,2023-06-16_10h31.59.333,phx_ver10,2022.2.5,Win32,60.15399423,,,,,,,,,,,,120,testing_3,sh2x,i,sh2x_i,sh2x_8_ixi.wav,sh2x_1_ishi.wav,,FALSE,FALSE,,,,,,,,,,,,,,j,0.1594,space,0.4585,,,,,,,,0,99,99,119,1,,
5b8a709614e8c6000104eafa,2023-06-16_10h31.59.333,phx_ver10,2022.2.5,Win32,60.15399423,,,,,,,,,,,,119,testing_3,sh2x,i,sh2x_i,sh2x_1_ishi.wav,sh2x_8_ixi.wav,,FALSE,FALSE,,,,,,,,,,,,,,j,0.2004,space,0.5,,,,,,,,0,100,100,118,1,,
5b8a709614e8c6000104eafa,2023-06-16_10h31.59.333,phx_ver10,2022.2.5,Win32,60.15399423,,,,,,,,,,,,136,testing_3,sh2j,e,sh2j_e,sh2j_8_eje.wav,sh2j_1_eshe.wav,,FALSE,FALSE,,,,,,,,,,,,,,j,0.3255,space,0.6483,,,,,,,,0,101,101,135,1,,
5b8a709614e8c6000104eafa,2023-06-16_10h31.59.333,phx_ver10,2022.2.5,Win32,60.15399423,,,,,,,,,,,,138,testing_3,sh2j,ei,sh2j_ei,sh2j_8_eijei.wav,sh2j_8_eijei.wav,,TRUE,FALSE,,,,,,,,,,,,,,f,0.5865,space,0.8329,,,,,,,,0,102,102,137,1,,
5b8a709614e8c6000104eafa,2023-06-16_10h31.59.333,phx_ver10,2022.2.5,Win32,60.15399423,,,,,,,,,,,,80,testing_3,j2x,ai,j2x_ai,j2x_8_aixai.wav,j2x_1_aijai.wav,,FALSE,FALSE,,,,,,,,,,,,,,j,0.537,space,0.8383,,,,,,,,0,103,103,79,1,,
5b8a709614e8c6000104eafa,2023-06-16_10h31.59.333,phx_ver10,2022.2.5,Win32,60.15399423,,,,,,,,,,,,51,testing_3,zh2j,a,zh2j_a,zh2j_1_azha.wav,zh2j_8_aja.wav,,FALSE,FALSE,,,,,,,,,,,,,,f,0.0509,space,0.3169,,,,,,,,0,104,104,50,1,,
5b8a709614e8c6000104eafa,2023-06-16_10h31.59.333,phx_ver10,2022.2.5,Win32,60.15399423,,,,,,,,,,,,87,testing_3,j2x,e,j2x_e,j2x_1_eje.wav,j2x_8_exe.wav,,FALSE,FALSE,,,,,,,,,,,,,,j,0.1752,space,0.5217,,,,,,,,0,105,105,86,1,,
5b8a709614e8c6000104eafa,2023-06-16_10h31.59.333,phx_ver10,2022.2.5,Win32,60.15399423,,,,,,,,,,,,36,testing_3,zh2sh,au,zh2sh_au,zh2sh_8_aushau.wav,zh2sh_1_auzhau.wav,,FALSE,FALSE,,,,,,,,,,,,,,j,0.3177,space,0.5672,,,,,,,,0,106,106,35,1,,
5b8a709614e8c6000104eafa,2023-06-16_10h31.59.333,phx_ver10,2022.2.5,Win32,60.15399423,,,,,,,,,,,,89,testing_3,j2x,ei,j2x_ei,j2x_1_eijei.wav,j2x_1_eijei.wav,,TRUE,FALSE,,,,,,,,,,,,,,f,0.5668,space,1.4836,,,,,,,,0,107,107,88,1,,
5b8a709614e8c6000104eafa,2023-06-16_10h31.59.333,phx_ver10,2022.2.5,Win32,60.15399423,,,,,,,,,,,,16,testing_2,zh2x,ai,zh2x_ai,zh2x_8_aixai.wav,zh2x_1_aizhai.wav,,FALSE,FALSE,,,,,,,,,,,,,,j,0.5666,space,0.8331,,,,,,,,0,108,108,15,1,,
5b8a709614e8c6000104eafa,2023-06-16_10h31.59.333,phx_ver10,2022.2.5,Win32,60.15399423,,,,,,,,,,,,102,testing_3,sh2x,ai,sh2x_ai,sh2x_8_aixai.wav,sh2x_8_aixai.wav,,TRUE,FALSE,,,,,,,,,,,,,,f,0.2266,space,0.469,,,,,,,,0,109,109,101,1,,
5b8a709614e8c6000104eafa,2023-06-16_10h31.59.333,phx_ver10,2022.2.5,Win32,60.15399423,,,,,,,,,,,,73,testing_3,j2x,a,j2x_a,j2x_1_aja.wav,j2x_1_aja.wav,,TRUE,FALSE,,,,,,,,,,,,,,f,0.0668,space,0.34,,,,,,,,0,110,110,72,1,,
5b8a709614e8c6000104eafa,2023-06-16_10h31.59.333,phx_ver10,2022.2.5,Win32,60.15399423,,,,,,,,,,,,115,testing_3,sh2x,ei,sh2x_ei,sh2x_1_eishei.wav,sh2x_8_eixei.wav,,FALSE,FALSE,,,,,,,,,,,,,,j,0.1005,space,0.3671,,,,,,,,0,111,111,114,1,,
5b8a709614e8c6000104eafa,2023-06-16_10h31.59.333,phx_ver10,2022.2.5,Win32,60.15399423,,,,,,,,,,,,59,testing_3,zh2j,au,zh2j_au,zh2j_1_auzhau.wav,zh2j_8_aujau.wav,,FALSE,FALSE,,,,,,,,,,,,,,f,0.186,space,0.435,,,,,,,,0,112,112,58,1,,
5b8a709614e8c6000104eafa,2023-06-16_10h31.59.333,phx_ver10,2022.2.5,Win32,60.15399423,,,,,,,,,,,,40,testing_3,zh2sh,e,zh2sh_e,zh2sh_8_eshe.wav,zh2sh_1_ezhe.wav,,FALSE,FALSE,,,,,,,,,,,,,,j,0.3708,space,0.6752,,,,,,,,0,113,113,39,1,,
5b8a709614e8c6000104eafa,2023-06-16_10h31.59.333,phx_ver10,2022.2.5,Win32,60.15399423,,,,,,,,,,,,139,testing_3,sh2j,ei,sh2j_ei,sh2j_1_eishei.wav,sh2j_8_eijei.wav,,FALSE,FALSE,,,,,,,,,,,,,,j,0.2834,space,0.6091,,,,,,,,0,114,114,138,1,,
5b8a709614e8c6000104eafa,2023-06-16_10h31.59.333,phx_ver10,2022.2.5,Win32,60.15399423,,,,,,,,,,,,81,testing_3,j2x,au,j2x_au,j2x_1_aujau.wav,j2x_1_aujau.wav,,TRUE,FALSE,,,,,,,,,,,,,,f,0.2527,space,0.5151,,,,,,,,0,115,115,80,1,,
5b8a709614e8c6000104eafa,2023-06-16_10h31.59.333,phx_ver10,2022.2.5,Win32,60.15399423,,,,,,,,,,,,137,testing_3,sh2j,ei,sh2j_ei,sh2j_1_eishei.wav,sh2j_1_eishei.wav,,TRUE,FALSE,,,,,,,,,,,,,,f,0.1504,space,0.4394,,,,,,,,0,116,116,136,1,,
5b8a709614e8c6000104eafa,2023-06-16_10h31.59.333,phx_ver10,2022.2.5,Win32,60.15399423,,,,,,,,,,,,93,testing_3,j2x,i,j2x_i,j2x_1_iji.wav,j2x_1_iji.wav,,TRUE,FALSE,,,,,,,,,,,,,,f,0.1337,space,0.4219,,,,,,,,0,117,117,92,1,,
5b8a709614e8c6000104eafa,2023-06-16_10h31.59.333,phx_ver10,2022.2.5,Win32,60.15399423,,,,,,,,,,,,104,testing_3,sh2x,ai,sh2x_ai,sh2x_8_aixai.wav,sh2x_1_aishai.wav,,FALSE,FALSE,,,,,,,,,,,,,,j,0.0835,space,0.3894,,,,,,,,0,118,118,103,1,,
5b8a709614e8c6000104eafa,2023-06-16_10h31.59.333,phx_ver10,2022.2.5,Win32,60.15399423,,,,,,,,,,,,68,testing_3,zh2j,ei,zh2j_ei,zh2j_8_eijei.wav,zh2j_1_eizhei.wav,,FALSE,FALSE,,,,,,,,,,,,,,f,1.2665,space,1.5233,,,,,,,,0,119,119,67,1,,
5b8a709614e8c6000104eafa,2023-06-16_10h31.59.333,phx_ver10,2022.2.5,Win32,60.15399423,,,,,,,,,,,,141,testing_3,sh2j,i,sh2j_i,sh2j_1_ishi.wav,sh2j_1_ishi.wav,,TRUE,FALSE,,,,,,,,,,,,,,f,0.155,space,0.4354,,,,,,,,0,120,120,140,1,,
5b8a709614e8c6000104eafa,2023-06-16_10h31.59.333,phx_ver10,2022.2.5,Win32,60.15399423,,,,,,,,,,,,91,testing_3,j2x,ei,j2x_ei,j2x_1_eijei.wav,j2x_8_eixei.wav,,FALSE,FALSE,,,,,,,,,,,,,,j,0.2911,space,0.585,,,,,,,,0,121,121,90,1,,
5b8a709614e8c6000104eafa,2023-06-16_10h31.59.333,phx_ver10,2022.2.5,Win32,60.15399423,,,,,,,,,,,,96,testing_3,j2x,i,j2x_i,j2x_8_ixi.wav,j2x_1_iji.wav,,FALSE,FALSE,,,,,,,,,,,,,,f,0.1046,space,0.3505,,,,,,,,0,122,122,95,1,,
5b8a709614e8c6000104eafa,2023-06-16_10h31.59.333,phx_ver10,2022.2.5,Win32,60.15399423,,,,,,,,,,,,78,testing_3,j2x,ai,j2x_ai,j2x_8_aixai.wav,j2x_8_aixai.wav,,TRUE,FALSE,,,,,,,,,,,,,,f,0.1668,space,0.4502,,,,,,,,0,123,123,77,1,,
5b8a709614e8c6000104eafa,2023-06-16_10h31.59.333,phx_ver10,2022.2.5,Win32,60.15399423,,,,,,,,,,,,32,testing_3,zh2sh,ai,zh2sh_ai,zh2sh_8_aishai.wav,zh2sh_1_aizhai.wav,,FALSE,FALSE,,,,,,,,,,,,,,j,0.167,space,0.4689,,,,,,,,0,124,124,31,1,,
5b8a709614e8c6000104eafa,2023-06-16_10h31.59.333,phx_ver10,2022.2.5,Win32,60.15399423,,,,,,,,,,,,37,testing_3,zh2sh,e,zh2sh_e,zh2sh_1_ezhe.wav,zh2sh_1_ezhe.wav,,TRUE,FALSE,,,,,,,,,,,,,,f,0.0698,space,0.302,,,,,,,,0,125,125,36,1,,
5b8a709614e8c6000104eafa,2023-06-16_10h31.59.333,phx_ver10,2022.2.5,Win32,60.15399423,,,,,,,,,,,,30,testing_3,zh2sh,ai,zh2sh_ai,zh2sh_8_aishai.wav,zh2sh_8_aishai.wav,,TRUE,FALSE,,,,,,,,,,,,,,f,2.1383,space,2.5216,,,,,,,,0,126,126,29,1,,
5b8a709614e8c6000104eafa,2023-06-16_10h31.59.333,phx_ver10,2022.2.5,Win32,60.15399423,,,,,,,,,,,,10,testing_1,zh2x,i,zh2x_i,zh2x_8_ixi.wav,zh2x_8_ixi_copy.wav,,TRUE,TRUE,,,,,,,,,,,,,,f,0.1836,space,0.5537,,,,,,,,0,127,127,9,1,,
5b8a709614e8c6000104eafa,2023-06-16_10h31.59.333,phx_ver10,2022.2.5,Win32,60.15399423,,,,,,,,,,,,125,testing_3,sh2j,ai,sh2j_ai,sh2j_1_aishai.wav,sh2j_1_aishai.wav,,TRUE,FALSE,,,,,,,,,,,,,,f,0.7584,space,1.0199,,,,,,,,0,128,128,124,1,,
5b8a709614e8c6000104eafa,2023-06-16_10h31.59.333,phx_ver10,2022.2.5,Win32,60.15399423,,,,,,,,,,,,24,testing_2,zh2x,ei,zh2x_ei,zh2x_8_eixei.wav,zh2x_1_eizhei.wav,,FALSE,FALSE,,,,,,,,,,,,,,j,0.1494,space,0.621,,,,,,,,0,129,129,23,1,,
5b8a709614e8c6000104eafa,2023-06-16_10h31.59.333,phx_ver10,2022.2.5,Win32,60.15399423,,,,,,,,,,,,69,testing_3,zh2j,i,zh2j_i,zh2j_1_izhi.wav,zh2j_1_izhi.wav,,TRUE,FALSE,,,,,,,,,,,,,,f,0.1552,space,0.4917,,,,,,,,0,130,130,68,1,,
5b8a709614e8c6000104eafa,2023-06-16_10h31.59.333,phx_ver10,2022.2.5,Win32,60.15399423,,,,,,,,,,,,44,testing_3,zh2sh,ei,zh2sh_ei,zh2sh_8_eishei.wav,zh2sh_1_eizhei.wav,,FALSE,FALSE,,,,,,,,,,,,,,f,0.7339,space,0.9568,,,,,,,,0,131,131,43,1,,
5b8a709614e8c6000104eafa,2023-06-16_10h31.59.333,phx_ver10,2022.2.5,Win32,60.15399423,,,,,,,,,,,,74,testing_3,j2x,a,j2x_a,j2x_8_axa.wav,j2x_8_axa.wav,,TRUE,FALSE,,,,,,,,,,,,,,f,0.1492,space,0.4173,,,,,,,,0,132,132,73,1,,
5b8a709614e8c6000104eafa,2023-06-16_10h31.59.333,phx_ver10,2022.2.5,Win32,60.15399423,,,,,,,,,,,,60,testing_3,zh2j,au,zh2j_au,zh2j_8_aujau.wav,zh2j_1_auzhau.wav,,FALSE,FALSE,,,,,,,,,,,,,,f,0.3847,space,0.6472,,,,,,,,0,133,133,59,1,,
5b8a709614e8c6000104eafa,2023-06-16_10h31.59.333,phx_ver10,2022.2.5,Win32,60.15399423,,,,,,,,,,,,14,testing_2,zh2x,ai,zh2x_ai,zh2x_8_aixai.wav,zh2x_8_aixai.wav,,TRUE,FALSE,,,,,,,,,,,,,,f,0.1339,space,0.3688,,,,,,,,0,134,134,13,1,,
5b8a709614e8c6000104eafa,2023-06-16_10h31.59.333,phx_ver10,2022.2.5,Win32,60.15399423,,,,,,,,,,,,95,testing_3,j2x,i,j2x_i,j2x_1_iji.wav,j2x_8_ixi.wav,,FALSE,FALSE,,,,,,,,,,,,,,j,0.3189,space,0.7167,,,,,,,,0,135,135,94,1,,
5b8a709614e8c6000104eafa,2023-06-16_10h31.59.333,phx_ver10,2022.2.5,Win32,60.15399423,,,,,,,,,,,,110,testing_3,sh2x,e,sh2x_e,sh2x_8_exe.wav,sh2x_8_exe.wav,,TRUE,FALSE,,,,,,,,,,,,,,f,0.2503,space,0.6358,,,,,,,,0,136,136,109,1,,
5b8a709614e8c6000104eafa,2023-06-16_10h31.59.333,phx_ver10,2022.2.5,Win32,60.15399423,,,,,,,,,,,,62,testing_3,zh2j,e,zh2j_e,zh2j_8_eje.wav,zh2j_8_eje.wav,,TRUE,FALSE,,,,,,,,,,,,,,f,0.2215,space,0.5523,,,,,,,,0,137,137,61,1,,
5b8a709614e8c6000104eafa,2023-06-16_10h31.59.333,phx_ver10,2022.2.5,Win32,60.15399423,,,,,,,,,,,,43,testing_3,zh2sh,ei,zh2sh_ei,zh2sh_1_eizhei.wav,zh2sh_8_eishei.wav,,FALSE,FALSE,,,,,,,,,,,,,,j,0.4835,space,0.8008,,,,,,,,0,138,138,42,1,,
5b8a709614e8c6000104eafa,2023-06-16_10h31.59.333,phx_ver10,2022.2.5,Win32,60.15399423,,,,,,,,,,,,94,testing_3,j2x,i,j2x_i,j2x_8_ixi.wav,j2x_8_ixi.wav,,TRUE,FALSE,,,,,,,,,,,,,,f,0.3414,space,0.625,,,,,,,,0,139,139,93,1,,
5b8a709614e8c6000104eafa,2023-06-16_10h31.59.333,phx_ver10,2022.2.5,Win32,60.15399423,,,,,,,,,,,,85,testing_3,j2x,e,j2x_e,j2x_1_eje.wav,j2x_1_eje.wav,,TRUE,FALSE,,,,,,,,,,,,,,f,0.0854,space,0.3758,,,,,,,,0,140,140,84,1,,
5b8a709614e8c6000104eafa,2023-06-16_10h31.59.333,phx_ver10,2022.2.5,Win32,60.15399423,,,,,,,,,,,,9,testing_1,zh2x,i,zh2x_i,zh2x_1_izhi.wav,zh2x_1_izhi_copy.wav,,TRUE,TRUE,,,,,,,,,,,,,,f,0.2056,space,0.4831,,,,,,,,0,141,141,8,1,,
5b8a709614e8c6000104eafa,2023-06-16_10h31.59.333,phx_ver10,2022.2.5,Win32,60.15399423,,,,,,,,,,,,88,testing_3,j2x,e,j2x_e,j2x_8_exe.wav,j2x_1_eje.wav,,FALSE,FALSE,,,,,,,,,,,,,,j,0.4187,space,0.783,,,,,,,,0,142,142,87,1,,
5b8a709614e8c6000104eafa,2023-06-16_10h31.59.333,phx_ver10,2022.2.5,Win32,60.15399423,,,,,,,,,,,,134,testing_3,sh2j,e,sh2j_e,sh2j_8_eje.wav,sh2j_8_eje.wav,,TRUE,FALSE,,,,,,,,,,,,,,f,0.0344,space,0.3031,,,,,,,,0,143,143,133,1,,
5b8a709614e8c6000104eafa,2023-06-16_10h31.59.333,phx_ver10,2022.2.5,Win32,60.15399423,,,,,,,,,,,,,,,,,,,,,,,,,,,,,,,,,,,,,,,,,,,,,,,,,,,space,2.0033
