participant,date,expName,psychopyVersion,OS,frameRate,space_1.keys,space_1.rt,space_2.keys,space_2.rt,space_train.keys,space_train.rt,training.thisRepN,training.thisTrialN,training.thisN,training.thisIndex,training.ran,token_id,task,continuum,vowel,series,sound_1,sound_2,img,same,trained,FJ_attn.keys,FJ_attn.rt,space_attn.keys,space_attn.rt,if_attn_test.thisRepN,if_attn_test.thisTrialN,if_attn_test.thisN,if_attn_test.thisIndex,if_attn_test.ran,space_trans_1.keys,space_trans_1.rt,space_trans_11.keys,space_trans_11.rt,FJ_test.keys,FJ_test.rt,space_test.keys,space_test.rt,testing_pre.thisRepN,testing_pre.thisTrialN,testing_pre.thisN,testing_pre.thisIndex,testing_pre.ran,space_trans_2.keys,space_trans_2.rt,testing_all.thisRepN,testing_all.thisTrialN,testing_all.thisN,testing_all.thisIndex,testing_all.ran,space_ending.keys,space_ending.rt
5ba44c47e671c6000123b4f3,2023-06-16_10h23.25.048,phx_ver10,2022.2.5,MacIntel,40.00160006,,,,,,,,,,,,,,,,,,,,,,,,,,,,,,,,,,,,,,,,,,,,,,,,,,,,
5ba44c47e671c6000123b4f3,2023-06-16_10h23.25.048,phx_ver10,2022.2.5,MacIntel,40.00160006,space,4.5645,,,,,,,,,,,,,,,,,,,,,,,,,,,,,,,,,,,,,,,,,,,,,,,,,,
5ba44c47e671c6000123b4f3,2023-06-16_10h23.25.048,phx_ver10,2022.2.5,MacIntel,40.00160006,,,space,0.0756,,,,,,,,,,,,,,,,,,,,,,,,,,,,,,,,,,,,,,,,,,,,,,,,
5ba44c47e671c6000123b4f3,2023-06-16_10h23.25.048,phx_ver10,2022.2.5,MacIntel,40.00160006,,,,,space,0.7373,0,0,0,29,1,30,training,zh2x,e,zh2x_e,zh2x_7_exe.wav,,exe.jpg,,,,,,,,,,,,,,,,,,,,,,,,,,,,,,,,,
5ba44c47e671c6000123b4f3,2023-06-16_10h23.25.048,phx_ver10,2022.2.5,MacIntel,40.00160006,,,,,space,1.365,0,1,1,24,1,25,training,zh2x,e,zh2x_e,zh2x_5_exe.wav,,exe.jpg,,,,,,,,,,,,,,,,,,,,,,,,,,,,,,,,,
5ba44c47e671c6000123b4f3,2023-06-16_10h23.25.048,phx_ver10,2022.2.5,MacIntel,40.00160006,,,,,space,1.4456,0,2,2,13,1,14,training,zh2x,a,zh2x_a,zh2x_7_axa.wav,,axa.jpg,,,,,,,,,,,,,,,,,,,,,,,,,,,,,,,,,
5ba44c47e671c6000123b4f3,2023-06-16_10h23.25.048,phx_ver10,2022.2.5,MacIntel,40.00160006,,,,,space,1.2261,0,3,3,40,1,41,training,zh2x,i,zh2x_i,zh2x_5_ixi.wav,,ixi.jpg,,,,,,,,,,,,,,,,,,,,,,,,,,,,,,,,,
5ba44c47e671c6000123b4f3,2023-06-16_10h23.25.048,phx_ver10,2022.2.5,MacIntel,40.00160006,,,,,space,0.978,0,4,4,19,1,20,training,zh2x,e,zh2x_e,zh2x_2_ezhe.wav,,ezhe.jpg,,,,,,,,,,,,,,,,,,,,,,,,,,,,,,,,,
5ba44c47e671c6000123b4f3,2023-06-16_10h23.25.048,phx_ver10,2022.2.5,MacIntel,40.00160006,,,,,space,0.5448,0,5,5,46,1,47,training,zh2x,i,zh2x_i,zh2x_7_ixi.wav,,ixi.jpg,,,,,,,,,,,,,,,,,,,,,,,,,,,,,,,,,
5ba44c47e671c6000123b4f3,2023-06-16_10h23.25.048,phx_ver10,2022.2.5,MacIntel,40.00160006,,,,,,,,,,,,,attn_test,,,,zh2x_1_izhi.wav,zh2x_8_exe.wav,exe.jpg,RIGHT,,j,2.417,space,4.8331,0,0,0,0,1,,,,,,,,,,,,,,,,,,,,,,
5ba44c47e671c6000123b4f3,2023-06-16_10h23.25.048,phx_ver10,2022.2.5,MacIntel,40.00160006,,,,,space,0.7634,0,6,6,42,1,43,training,zh2x,i,zh2x_i,zh2x_6_ixi.wav,,ixi.jpg,,,,,,,,,,,,,,,,,,,,,,,,,,,,,,,,,
5ba44c47e671c6000123b4f3,2023-06-16_10h23.25.048,phx_ver10,2022.2.5,MacIntel,40.00160006,,,,,space,1.3062,0,7,7,9,1,10,training,zh2x,a,zh2x_a,zh2x_6_axa.wav,,axa.jpg,,,,,,,,,,,,,,,,,,,,,,,,,,,,,,,,,
5ba44c47e671c6000123b4f3,2023-06-16_10h23.25.048,phx_ver10,2022.2.5,MacIntel,40.00160006,,,,,space,0.8157,0,8,8,16,1,17,training,zh2x,e,zh2x_e,zh2x_1_ezhe.wav,,ezhe.jpg,,,,,,,,,,,,,,,,,,,,,,,,,,,,,,,,,
5ba44c47e671c6000123b4f3,2023-06-16_10h23.25.048,phx_ver10,2022.2.5,MacIntel,40.00160006,,,,,space,0.5984,0,9,9,5,1,6,training,zh2x,a,zh2x_a,zh2x_3_azha.wav,,azha.jpg,,,,,,,,,,,,,,,,,,,,,,,,,,,,,,,,,
5ba44c47e671c6000123b4f3,2023-06-16_10h23.25.048,phx_ver10,2022.2.5,MacIntel,40.00160006,,,,,space,0.5955,0,10,10,26,1,27,training,zh2x,e,zh2x_e,zh2x_6_exe.wav,,exe.jpg,,,,,,,,,,,,,,,,,,,,,,,,,,,,,,,,,
5ba44c47e671c6000123b4f3,2023-06-16_10h23.25.048,phx_ver10,2022.2.5,MacIntel,40.00160006,,,,,space,0.3805,0,11,11,43,1,44,training,zh2x,i,zh2x_i,zh2x_7_ixi.wav,,ixi.jpg,,,,,,,,,,,,,,,,,,,,,,,,,,,,,,,,,
5ba44c47e671c6000123b4f3,2023-06-16_10h23.25.048,phx_ver10,2022.2.5,MacIntel,40.00160006,,,,,,,,,,,,,attn_test,,,,zh2x_8_ixi.wav,zh2x_8_axa.wav,axa.jpg,RIGHT,,j,0.499,space,0.7484,0,0,0,0,1,,,,,,,,,,,,,,,,,,,,,,
5ba44c47e671c6000123b4f3,2023-06-16_10h23.25.048,phx_ver10,2022.2.5,MacIntel,40.00160006,,,,,space,1.1426,0,12,12,1,1,2,training,zh2x,a,zh2x_a,zh2x_2_azha.wav,,azha.jpg,,,,,,,,,,,,,,,,,,,,,,,,,,,,,,,,,
5ba44c47e671c6000123b4f3,2023-06-16_10h23.25.048,phx_ver10,2022.2.5,MacIntel,40.00160006,,,,,space,0.8469,0,13,13,35,1,36,training,zh2x,i,zh2x_i,zh2x_2_izhi.wav,,izhi.jpg,,,,,,,,,,,,,,,,,,,,,,,,,,,,,,,,,
5ba44c47e671c6000123b4f3,2023-06-16_10h23.25.048,phx_ver10,2022.2.5,MacIntel,40.00160006,,,,,space,0.2978,0,14,14,44,1,45,training,zh2x,i,zh2x_i,zh2x_7_ixi.wav,,ixi.jpg,,,,,,,,,,,,,,,,,,,,,,,,,,,,,,,,,
5ba44c47e671c6000123b4f3,2023-06-16_10h23.25.048,phx_ver10,2022.2.5,MacIntel,40.00160006,,,,,space,0.1896,0,15,15,17,1,18,training,zh2x,e,zh2x_e,zh2x_2_ezhe.wav,,ezhe.jpg,,,,,,,,,,,,,,,,,,,,,,,,,,,,,,,,,
5ba44c47e671c6000123b4f3,2023-06-16_10h23.25.048,phx_ver10,2022.2.5,MacIntel,40.00160006,,,,,space,0.3256,0,16,16,18,1,19,training,zh2x,e,zh2x_e,zh2x_2_ezhe.wav,,ezhe.jpg,,,,,,,,,,,,,,,,,,,,,,,,,,,,,,,,,
5ba44c47e671c6000123b4f3,2023-06-16_10h23.25.048,phx_ver10,2022.2.5,MacIntel,40.00160006,,,,,space,0.4065,0,17,17,14,1,15,training,zh2x,a,zh2x_a,zh2x_7_axa.wav,,axa.jpg,,,,,,,,,,,,,,,,,,,,,,,,,,,,,,,,,
5ba44c47e671c6000123b4f3,2023-06-16_10h23.25.048,phx_ver10,2022.2.5,MacIntel,40.00160006,,,,,,,,,,,,,attn_test,,,,zh2x_1_azha.wav,zh2x_8_axa.wav,azha.jpg,LEFT,,f,0.6904,space,1.0785,0,0,0,0,1,,,,,,,,,,,,,,,,,,,,,,
5ba44c47e671c6000123b4f3,2023-06-16_10h23.25.048,phx_ver10,2022.2.5,MacIntel,40.00160006,,,,,space,0.6762,0,18,18,7,1,8,training,zh2x,a,zh2x_a,zh2x_4_azha.wav,,azha.jpg,,,,,,,,,,,,,,,,,,,,,,,,,,,,,,,,,
5ba44c47e671c6000123b4f3,2023-06-16_10h23.25.048,phx_ver10,2022.2.5,MacIntel,40.00160006,,,,,space,0.7296,0,19,19,2,1,3,training,zh2x,a,zh2x_a,zh2x_2_azha.wav,,azha.jpg,,,,,,,,,,,,,,,,,,,,,,,,,,,,,,,,,
5ba44c47e671c6000123b4f3,2023-06-16_10h23.25.048,phx_ver10,2022.2.5,MacIntel,40.00160006,,,,,space,1.862,0,20,20,12,1,13,training,zh2x,a,zh2x_a,zh2x_7_axa.wav,,axa.jpg,,,,,,,,,,,,,,,,,,,,,,,,,,,,,,,,,
5ba44c47e671c6000123b4f3,2023-06-16_10h23.25.048,phx_ver10,2022.2.5,MacIntel,40.00160006,,,,,space,1.2677,0,21,21,25,1,26,training,zh2x,e,zh2x_e,zh2x_6_exe.wav,,exe.jpg,,,,,,,,,,,,,,,,,,,,,,,,,,,,,,,,,
5ba44c47e671c6000123b4f3,2023-06-16_10h23.25.048,phx_ver10,2022.2.5,MacIntel,40.00160006,,,,,space,0.3779,0,22,22,31,1,32,training,zh2x,e,zh2x_e,zh2x_8_exe.wav,,exe.jpg,,,,,,,,,,,,,,,,,,,,,,,,,,,,,,,,,
5ba44c47e671c6000123b4f3,2023-06-16_10h23.25.048,phx_ver10,2022.2.5,MacIntel,40.00160006,,,,,space,0.2697,0,23,23,21,1,22,training,zh2x,e,zh2x_e,zh2x_3_ezhe.wav,,ezhe.jpg,,,,,,,,,,,,,,,,,,,,,,,,,,,,,,,,,
5ba44c47e671c6000123b4f3,2023-06-16_10h23.25.048,phx_ver10,2022.2.5,MacIntel,40.00160006,,,,,,,,,,,,,attn_test,,,,zh2x_1_ezhe.wav,zh2x_8_ixi.wav,ezhe.jpg,LEFT,,f,0.276,space,0.5246,0,0,0,0,1,,,,,,,,,,,,,,,,,,,,,,
5ba44c47e671c6000123b4f3,2023-06-16_10h23.25.048,phx_ver10,2022.2.5,MacIntel,40.00160006,,,,,space,0.3503,0,24,24,30,1,31,training,zh2x,e,zh2x_e,zh2x_7_exe.wav,,exe.jpg,,,,,,,,,,,,,,,,,,,,,,,,,,,,,,,,,
5ba44c47e671c6000123b4f3,2023-06-16_10h23.25.048,phx_ver10,2022.2.5,MacIntel,40.00160006,,,,,space,0.3018,0,25,25,28,1,29,training,zh2x,e,zh2x_e,zh2x_7_exe.wav,,exe.jpg,,,,,,,,,,,,,,,,,,,,,,,,,,,,,,,,,
5ba44c47e671c6000123b4f3,2023-06-16_10h23.25.048,phx_ver10,2022.2.5,MacIntel,40.00160006,,,,,space,0.2463,0,26,26,0,1,1,training,zh2x,a,zh2x_a,zh2x_1_azha.wav,,azha.jpg,,,,,,,,,,,,,,,,,,,,,,,,,,,,,,,,,
5ba44c47e671c6000123b4f3,2023-06-16_10h23.25.048,phx_ver10,2022.2.5,MacIntel,40.00160006,,,,,space,0.3829,0,27,27,15,1,16,training,zh2x,a,zh2x_a,zh2x_8_axa.wav,,axa.jpg,,,,,,,,,,,,,,,,,,,,,,,,,,,,,,,,,
5ba44c47e671c6000123b4f3,2023-06-16_10h23.25.048,phx_ver10,2022.2.5,MacIntel,40.00160006,,,,,space,0.4661,0,28,28,8,1,9,training,zh2x,a,zh2x_a,zh2x_5_axa.wav,,axa.jpg,,,,,,,,,,,,,,,,,,,,,,,,,,,,,,,,,
5ba44c47e671c6000123b4f3,2023-06-16_10h23.25.048,phx_ver10,2022.2.5,MacIntel,40.00160006,,,,,space,0.3555,0,29,29,45,1,46,training,zh2x,i,zh2x_i,zh2x_7_ixi.wav,,ixi.jpg,,,,,,,,,,,,,,,,,,,,,,,,,,,,,,,,,
5ba44c47e671c6000123b4f3,2023-06-16_10h23.25.048,phx_ver10,2022.2.5,MacIntel,40.00160006,,,,,,,,,,,,,attn_test,,,,zh2x_8_ixi.wav,zh2x_1_azha.wav,ixi.jpg,LEFT,,f,0.1678,space,0.3933,0,0,0,0,1,,,,,,,,,,,,,,,,,,,,,,
5ba44c47e671c6000123b4f3,2023-06-16_10h23.25.048,phx_ver10,2022.2.5,MacIntel,40.00160006,,,,,space,0.4387,0,30,30,22,1,23,training,zh2x,e,zh2x_e,zh2x_3_ezhe.wav,,ezhe.jpg,,,,,,,,,,,,,,,,,,,,,,,,,,,,,,,,,
5ba44c47e671c6000123b4f3,2023-06-16_10h23.25.048,phx_ver10,2022.2.5,MacIntel,40.00160006,,,,,space,0.4649,0,31,31,23,1,24,training,zh2x,e,zh2x_e,zh2x_4_ezhe.wav,,ezhe.jpg,,,,,,,,,,,,,,,,,,,,,,,,,,,,,,,,,
5ba44c47e671c6000123b4f3,2023-06-16_10h23.25.048,phx_ver10,2022.2.5,MacIntel,40.00160006,,,,,space,0.6009,0,32,32,3,1,4,training,zh2x,a,zh2x_a,zh2x_2_azha.wav,,azha.jpg,,,,,,,,,,,,,,,,,,,,,,,,,,,,,,,,,
5ba44c47e671c6000123b4f3,2023-06-16_10h23.25.048,phx_ver10,2022.2.5,MacIntel,40.00160006,,,,,space,0.2742,0,33,33,36,1,37,training,zh2x,i,zh2x_i,zh2x_2_izhi.wav,,izhi.jpg,,,,,,,,,,,,,,,,,,,,,,,,,,,,,,,,,
5ba44c47e671c6000123b4f3,2023-06-16_10h23.25.048,phx_ver10,2022.2.5,MacIntel,40.00160006,,,,,space,0.2724,0,34,34,39,1,40,training,zh2x,i,zh2x_i,zh2x_4_izhi.wav,,izhi.jpg,,,,,,,,,,,,,,,,,,,,,,,,,,,,,,,,,
5ba44c47e671c6000123b4f3,2023-06-16_10h23.25.048,phx_ver10,2022.2.5,MacIntel,40.00160006,,,,,space,0.5163,0,35,35,33,1,34,training,zh2x,i,zh2x_i,zh2x_2_izhi.wav,,izhi.jpg,,,,,,,,,,,,,,,,,,,,,,,,,,,,,,,,,
5ba44c47e671c6000123b4f3,2023-06-16_10h23.25.048,phx_ver10,2022.2.5,MacIntel,40.00160006,,,,,,,,,,,,,attn_test,,,,zh2x_1_izhi.wav,zh2x_8_ixi.wav,izhi.jpg,LEFT,,f,0.8276,space,1.4346,0,0,0,0,1,,,,,,,,,,,,,,,,,,,,,,
5ba44c47e671c6000123b4f3,2023-06-16_10h23.25.048,phx_ver10,2022.2.5,MacIntel,40.00160006,,,,,space,0.187,0,36,36,10,1,11,training,zh2x,a,zh2x_a,zh2x_6_axa.wav,,axa.jpg,,,,,,,,,,,,,,,,,,,,,,,,,,,,,,,,,
5ba44c47e671c6000123b4f3,2023-06-16_10h23.25.048,phx_ver10,2022.2.5,MacIntel,40.00160006,,,,,space,0.1069,0,37,37,38,1,39,training,zh2x,i,zh2x_i,zh2x_3_izhi.wav,,izhi.jpg,,,,,,,,,,,,,,,,,,,,,,,,,,,,,,,,,
5ba44c47e671c6000123b4f3,2023-06-16_10h23.25.048,phx_ver10,2022.2.5,MacIntel,40.00160006,,,,,space,0.2134,0,38,38,47,1,48,training,zh2x,i,zh2x_i,zh2x_8_ixi.wav,,ixi.jpg,,,,,,,,,,,,,,,,,,,,,,,,,,,,,,,,,
5ba44c47e671c6000123b4f3,2023-06-16_10h23.25.048,phx_ver10,2022.2.5,MacIntel,40.00160006,,,,,space,0.2663,0,39,39,32,1,33,training,zh2x,i,zh2x_i,zh2x_1_izhi.wav,,izhi.jpg,,,,,,,,,,,,,,,,,,,,,,,,,,,,,,,,,
5ba44c47e671c6000123b4f3,2023-06-16_10h23.25.048,phx_ver10,2022.2.5,MacIntel,40.00160006,,,,,space,0.2908,0,40,40,34,1,35,training,zh2x,i,zh2x_i,zh2x_2_izhi.wav,,izhi.jpg,,,,,,,,,,,,,,,,,,,,,,,,,,,,,,,,,
5ba44c47e671c6000123b4f3,2023-06-16_10h23.25.048,phx_ver10,2022.2.5,MacIntel,40.00160006,,,,,space,0.2646,0,41,41,4,1,5,training,zh2x,a,zh2x_a,zh2x_2_azha.wav,,azha.jpg,,,,,,,,,,,,,,,,,,,,,,,,,,,,,,,,,
5ba44c47e671c6000123b4f3,2023-06-16_10h23.25.048,phx_ver10,2022.2.5,MacIntel,40.00160006,,,,,,,,,,,,,attn_test,,,,zh2x_1_azha.wav,zh2x_8_axa.wav,axa.jpg,RIGHT,,j,0.404,space,0.6998,0,0,0,0,1,,,,,,,,,,,,,,,,,,,,,,
5ba44c47e671c6000123b4f3,2023-06-16_10h23.25.048,phx_ver10,2022.2.5,MacIntel,40.00160006,,,,,space,0.9195,0,42,42,20,1,21,training,zh2x,e,zh2x_e,zh2x_2_ezhe.wav,,ezhe.jpg,,,,,,,,,,,,,,,,,,,,,,,,,,,,,,,,,
5ba44c47e671c6000123b4f3,2023-06-16_10h23.25.048,phx_ver10,2022.2.5,MacIntel,40.00160006,,,,,space,0.3411,0,43,43,37,1,38,training,zh2x,i,zh2x_i,zh2x_3_izhi.wav,,izhi.jpg,,,,,,,,,,,,,,,,,,,,,,,,,,,,,,,,,
5ba44c47e671c6000123b4f3,2023-06-16_10h23.25.048,phx_ver10,2022.2.5,MacIntel,40.00160006,,,,,space,0.574,0,44,44,6,1,7,training,zh2x,a,zh2x_a,zh2x_3_azha.wav,,azha.jpg,,,,,,,,,,,,,,,,,,,,,,,,,,,,,,,,,
5ba44c47e671c6000123b4f3,2023-06-16_10h23.25.048,phx_ver10,2022.2.5,MacIntel,40.00160006,,,,,space,0.7561,0,45,45,11,1,12,training,zh2x,a,zh2x_a,zh2x_7_axa.wav,,axa.jpg,,,,,,,,,,,,,,,,,,,,,,,,,,,,,,,,,
5ba44c47e671c6000123b4f3,2023-06-16_10h23.25.048,phx_ver10,2022.2.5,MacIntel,40.00160006,,,,,space,0.3926,0,46,46,41,1,42,training,zh2x,i,zh2x_i,zh2x_6_ixi.wav,,ixi.jpg,,,,,,,,,,,,,,,,,,,,,,,,,,,,,,,,,
5ba44c47e671c6000123b4f3,2023-06-16_10h23.25.048,phx_ver10,2022.2.5,MacIntel,40.00160006,,,,,space,0.3463,0,47,47,27,1,28,training,zh2x,e,zh2x_e,zh2x_7_exe.wav,,exe.jpg,,,,,,,,,,,,,,,,,,,,,,,,,,,,,,,,,
5ba44c47e671c6000123b4f3,2023-06-16_10h23.25.048,phx_ver10,2022.2.5,MacIntel,40.00160006,,,,,,,,,,,,,attn_test,,,,zh2x_1_izhi.wav,zh2x_8_exe.wav,exe.jpg,RIGHT,,j,0.319,space,0.5345,,,,,,,,,,,,,,,,,,,,,,,,,,,
5ba44c47e671c6000123b4f3,2023-06-16_10h23.25.048,phx_ver10,2022.2.5,MacIntel,40.00160006,,,,,,,,,,,,,,,,,,,,,,,,,,,,,,,space,0.4073,,,,,,,,,,,,,,,,,,,,
5ba44c47e671c6000123b4f3,2023-06-16_10h23.25.048,phx_ver10,2022.2.5,MacIntel,40.00160006,,,,,,,,,,,,,,,,,,,,,,,,,,,,,,,,,space,4.764,,,,,,,,,,,,,,,,,,
5ba44c47e671c6000123b4f3,2023-06-16_10h23.25.048,phx_ver10,2022.2.5,MacIntel,40.00160006,,,,,,,,,,,,5,testing_pre,,,,ihi.wav,ifi.wav,,FALSE,,,,,,,,,,,,,,,j,0.2948,space,0.6053,0,0,0,4,1,,,,,,,,,
5ba44c47e671c6000123b4f3,2023-06-16_10h23.25.048,phx_ver10,2022.2.5,MacIntel,40.00160006,,,,,,,,,,,,1,testing_pre,,,,ifi.wav,ifi.wav,,TRUE,,,,,,,,,,,,,,,f,0.462,space,0.7216,0,1,1,0,1,,,,,,,,,
5ba44c47e671c6000123b4f3,2023-06-16_10h23.25.048,phx_ver10,2022.2.5,MacIntel,40.00160006,,,,,,,,,,,,2,testing_pre,,,,auhau.wav,aufau.wav,,FALSE,,,,,,,,,,,,,,,j,0.1795,space,0.4108,0,2,2,1,1,,,,,,,,,
5ba44c47e671c6000123b4f3,2023-06-16_10h23.25.048,phx_ver10,2022.2.5,MacIntel,40.00160006,,,,,,,,,,,,4,testing_pre,,,,eihei.wav,eihei.wav,,TRUE,,,,,,,,,,,,,,,f,0.2044,space,0.3838,0,3,3,3,1,,,,,,,,,
5ba44c47e671c6000123b4f3,2023-06-16_10h23.25.048,phx_ver10,2022.2.5,MacIntel,40.00160006,,,,,,,,,,,,3,testing_pre,,,,afa.wav,aha.wav,,FALSE,,,,,,,,,,,,,,,j,0.4065,space,0.5848,0,4,4,2,1,,,,,,,,,
5ba44c47e671c6000123b4f3,2023-06-16_10h23.25.048,phx_ver10,2022.2.5,MacIntel,40.00160006,,,,,,,,,,,,,,,,,,,,,,,,,,,,,,,,,,,,,,,,,,,,space,0.5262,,,,,,,
5ba44c47e671c6000123b4f3,2023-06-16_10h23.25.048,phx_ver10,2022.2.5,MacIntel,40.00160006,,,,,,,,,,,,33,testing_3,zh2sh,au,zh2sh_au,zh2sh_1_auzhau.wav,zh2sh_1_auzhau.wav,,TRUE,FALSE,,,,,,,,,,,,,,f,0.4529,space,0.6049,,,,,,,,0,0,0,32,1,,
5ba44c47e671c6000123b4f3,2023-06-16_10h23.25.048,phx_ver10,2022.2.5,MacIntel,40.00160006,,,,,,,,,,,,131,testing_3,sh2j,au,sh2j_au,sh2j_1_aushau.wav,sh2j_8_aujau.wav,,FALSE,FALSE,,,,,,,,,,,,,,j,0.2024,space,0.4056,,,,,,,,0,1,1,130,1,,
5ba44c47e671c6000123b4f3,2023-06-16_10h23.25.048,phx_ver10,2022.2.5,MacIntel,40.00160006,,,,,,,,,,,,113,testing_3,sh2x,ei,sh2x_ei,sh2x_1_eishei.wav,sh2x_1_eishei.wav,,TRUE,FALSE,,,,,,,,,,,,,,f,0.2816,space,0.4888,,,,,,,,0,2,2,112,1,,
5ba44c47e671c6000123b4f3,2023-06-16_10h23.25.048,phx_ver10,2022.2.5,MacIntel,40.00160006,,,,,,,,,,,,9,testing_1,zh2x,i,zh2x_i,zh2x_1_izhi.wav,zh2x_1_izhi_copy.wav,,TRUE,TRUE,,,,,,,,,,,,,,j,1.0529,space,1.2069,,,,,,,,0,3,3,8,1,,
5ba44c47e671c6000123b4f3,2023-06-16_10h23.25.048,phx_ver10,2022.2.5,MacIntel,40.00160006,,,,,,,,,,,,70,testing_3,zh2j,i,zh2j_i,zh2j_8_iji.wav,zh2j_8_iji.wav,,TRUE,FALSE,,,,,,,,,,,,,,f,0.3074,space,0.5137,,,,,,,,0,4,4,69,1,,
5ba44c47e671c6000123b4f3,2023-06-16_10h23.25.048,phx_ver10,2022.2.5,MacIntel,40.00160006,,,,,,,,,,,,71,testing_3,zh2j,i,zh2j_i,zh2j_1_izhi.wav,zh2j_8_iji.wav,,FALSE,FALSE,,,,,,,,,,,,,,j,0.3838,space,0.5636,,,,,,,,0,5,5,70,1,,
5ba44c47e671c6000123b4f3,2023-06-16_10h23.25.048,phx_ver10,2022.2.5,MacIntel,40.00160006,,,,,,,,,,,,116,testing_3,sh2x,ei,sh2x_ei,sh2x_8_eixei.wav,sh2x_1_eishei.wav,,FALSE,FALSE,,,,,,,,,,,,,,j,0.3337,space,0.488,,,,,,,,0,6,6,115,1,,
5ba44c47e671c6000123b4f3,2023-06-16_10h23.25.048,phx_ver10,2022.2.5,MacIntel,40.00160006,,,,,,,,,,,,4,testing_1,zh2x,a,zh2x_a,zh2x_8_axa.wav,zh2x_1_azha.wav,,FALSE,TRUE,,,,,,,,,,,,,,j,0.2564,space,0.4105,,,,,,,,0,7,7,3,1,,
5ba44c47e671c6000123b4f3,2023-06-16_10h23.25.048,phx_ver10,2022.2.5,MacIntel,40.00160006,,,,,,,,,,,,91,testing_3,j2x,ei,j2x_ei,j2x_1_eijei.wav,j2x_8_eixei.wav,,FALSE,FALSE,,,,,,,,,,,,,,j,0.2563,space,0.3845,,,,,,,,0,8,8,90,1,,
5ba44c47e671c6000123b4f3,2023-06-16_10h23.25.048,phx_ver10,2022.2.5,MacIntel,40.00160006,,,,,,,,,,,,27,testing_3,zh2sh,a,zh2sh_a,zh2sh_1_azha.wav,zh2sh_8_asha.wav,,FALSE,FALSE,,,,,,,,,,,,,,j,0.2835,space,0.3875,,,,,,,,0,9,9,26,1,,
5ba44c47e671c6000123b4f3,2023-06-16_10h23.25.048,phx_ver10,2022.2.5,MacIntel,40.00160006,,,,,,,,,,,,14,testing_2,zh2x,ai,zh2x_ai,zh2x_8_aixai.wav,zh2x_8_aixai.wav,,TRUE,FALSE,,,,,,,,,,,,,,f,0.2573,space,0.385,,,,,,,,0,10,10,13,1,,
5ba44c47e671c6000123b4f3,2023-06-16_10h23.25.048,phx_ver10,2022.2.5,MacIntel,40.00160006,,,,,,,,,,,,42,testing_3,zh2sh,ei,zh2sh_ei,zh2sh_8_eishei.wav,zh2sh_8_eishei.wav,,TRUE,FALSE,,,,,,,,,,,,,,f,0.3072,space,0.4364,,,,,,,,0,11,11,41,1,,
5ba44c47e671c6000123b4f3,2023-06-16_10h23.25.048,phx_ver10,2022.2.5,MacIntel,40.00160006,,,,,,,,,,,,118,testing_3,sh2x,i,sh2x_i,sh2x_8_ixi.wav,sh2x_8_ixi.wav,,TRUE,FALSE,,,,,,,,,,,,,,j,0.7976,space,0.9524,,,,,,,,0,12,12,117,1,,
5ba44c47e671c6000123b4f3,2023-06-16_10h23.25.048,phx_ver10,2022.2.5,MacIntel,40.00160006,,,,,,,,,,,,63,testing_3,zh2j,e,zh2j_e,zh2j_1_ezhe.wav,zh2j_8_eje.wav,,FALSE,FALSE,,,,,,,,,,,,,,f,0.359,space,0.4877,,,,,,,,0,13,13,62,1,,
5ba44c47e671c6000123b4f3,2023-06-16_10h23.25.048,phx_ver10,2022.2.5,MacIntel,40.00160006,,,,,,,,,,,,76,testing_3,j2x,a,j2x_a,j2x_8_axa.wav,j2x_1_aja.wav,,FALSE,FALSE,,,,,,,,,,,,,,j,0.4357,space,0.6148,,,,,,,,0,14,14,75,1,,
5ba44c47e671c6000123b4f3,2023-06-16_10h23.25.048,phx_ver10,2022.2.5,MacIntel,40.00160006,,,,,,,,,,,,144,testing_3,sh2j,i,sh2j_i,sh2j_8_iji.wav,sh2j_1_ishi.wav,,FALSE,FALSE,,,,,,,,,,,,,,j,0.3324,space,0.4616,,,,,,,,0,15,15,143,1,,
5ba44c47e671c6000123b4f3,2023-06-16_10h23.25.048,phx_ver10,2022.2.5,MacIntel,40.00160006,,,,,,,,,,,,66,testing_3,zh2j,ei,zh2j_ei,zh2j_8_eijei.wav,zh2j_8_eijei.wav,,TRUE,FALSE,,,,,,,,,,,,,,f,0.2041,space,0.3592,,,,,,,,0,16,16,65,1,,
5ba44c47e671c6000123b4f3,2023-06-16_10h23.25.048,phx_ver10,2022.2.5,MacIntel,40.00160006,,,,,,,,,,,,106,testing_3,sh2x,au,sh2x_au,sh2x_8_auxau.wav,sh2x_8_auxau.wav,,TRUE,FALSE,,,,,,,,,,,,,,f,0.3335,space,0.4875,,,,,,,,0,17,17,105,1,,
5ba44c47e671c6000123b4f3,2023-06-16_10h23.25.048,phx_ver10,2022.2.5,MacIntel,40.00160006,,,,,,,,,,,,69,testing_3,zh2j,i,zh2j_i,zh2j_1_izhi.wav,zh2j_1_izhi.wav,,TRUE,FALSE,,,,,,,,,,,,,,f,0.3083,space,0.4116,,,,,,,,0,18,18,68,1,,
5ba44c47e671c6000123b4f3,2023-06-16_10h23.25.048,phx_ver10,2022.2.5,MacIntel,40.00160006,,,,,,,,,,,,102,testing_3,sh2x,ai,sh2x_ai,sh2x_8_aixai.wav,sh2x_8_aixai.wav,,TRUE,FALSE,,,,,,,,,,,,,,f,0.1032,space,0.2572,,,,,,,,0,19,19,101,1,,
5ba44c47e671c6000123b4f3,2023-06-16_10h23.25.048,phx_ver10,2022.2.5,MacIntel,40.00160006,,,,,,,,,,,,80,testing_3,j2x,ai,j2x_ai,j2x_8_aixai.wav,j2x_1_aijai.wav,,FALSE,FALSE,,,,,,,,,,,,,,j,0.3063,space,0.5128,,,,,,,,0,20,20,79,1,,
5ba44c47e671c6000123b4f3,2023-06-16_10h23.25.048,phx_ver10,2022.2.5,MacIntel,40.00160006,,,,,,,,,,,,104,testing_3,sh2x,ai,sh2x_ai,sh2x_8_aixai.wav,sh2x_1_aishai.wav,,FALSE,FALSE,,,,,,,,,,,,,,j,0.2584,space,0.4641,,,,,,,,0,21,21,103,1,,
5ba44c47e671c6000123b4f3,2023-06-16_10h23.25.048,phx_ver10,2022.2.5,MacIntel,40.00160006,,,,,,,,,,,,29,testing_3,zh2sh,ai,zh2sh_ai,zh2sh_1_aizhai.wav,zh2sh_1_aizhai.wav,,TRUE,FALSE,,,,,,,,,,,,,,f,0.3074,space,0.5131,,,,,,,,0,22,22,28,1,,
5ba44c47e671c6000123b4f3,2023-06-16_10h23.25.048,phx_ver10,2022.2.5,MacIntel,40.00160006,,,,,,,,,,,,123,testing_3,sh2j,a,sh2j_a,sh2j_1_asha.wav,sh2j_8_aja.wav,,FALSE,FALSE,,,,,,,,,,,,,,j,0.2564,space,0.4376,,,,,,,,0,23,23,122,1,,
5ba44c47e671c6000123b4f3,2023-06-16_10h23.25.048,phx_ver10,2022.2.5,MacIntel,40.00160006,,,,,,,,,,,,23,testing_2,zh2x,ei,zh2x_ei,zh2x_1_eizhei.wav,zh2x_8_eixei.wav,,FALSE,FALSE,,,,,,,,,,,,,,j,0.1798,space,0.309,,,,,,,,0,24,24,22,1,,
5ba44c47e671c6000123b4f3,2023-06-16_10h23.25.048,phx_ver10,2022.2.5,MacIntel,40.00160006,,,,,,,,,,,,2,testing_1,zh2x,a,zh2x_a,zh2x_8_axa.wav,zh2x_8_axa_copy.wav,,TRUE,TRUE,,,,,,,,,,,,,,f,0.2565,space,0.4376,,,,,,,,0,25,25,1,1,,
5ba44c47e671c6000123b4f3,2023-06-16_10h23.25.048,phx_ver10,2022.2.5,MacIntel,40.00160006,,,,,,,,,,,,55,testing_3,zh2j,ai,zh2j_ai,zh2j_1_aizhai.wav,zh2j_8_aijai.wav,,FALSE,FALSE,,,,,,,,,,,,,,j,0.3078,space,0.4362,,,,,,,,0,26,26,54,1,,
5ba44c47e671c6000123b4f3,2023-06-16_10h23.25.048,phx_ver10,2022.2.5,MacIntel,40.00160006,,,,,,,,,,,,61,testing_3,zh2j,e,zh2j_e,zh2j_1_ezhe.wav,zh2j_1_ezhe.wav,,TRUE,FALSE,,,,,,,,,,,,,,f,0.1789,space,0.3074,,,,,,,,0,27,27,60,1,,
5ba44c47e671c6000123b4f3,2023-06-16_10h23.25.048,phx_ver10,2022.2.5,MacIntel,40.00160006,,,,,,,,,,,,119,testing_3,sh2x,i,sh2x_i,sh2x_1_ishi.wav,sh2x_8_ixi.wav,,FALSE,FALSE,,,,,,,,,,,,,,j,0.1789,space,0.3593,,,,,,,,0,28,28,118,1,,
5ba44c47e671c6000123b4f3,2023-06-16_10h23.25.048,phx_ver10,2022.2.5,MacIntel,40.00160006,,,,,,,,,,,,43,testing_3,zh2sh,ei,zh2sh_ei,zh2sh_1_eizhei.wav,zh2sh_8_eishei.wav,,FALSE,FALSE,,,,,,,,,,,,,,j,0.2315,space,0.3859,,,,,,,,0,29,29,42,1,,
5ba44c47e671c6000123b4f3,2023-06-16_10h23.25.048,phx_ver10,2022.2.5,MacIntel,40.00160006,,,,,,,,,,,,96,testing_3,j2x,i,j2x_i,j2x_8_ixi.wav,j2x_1_iji.wav,,FALSE,FALSE,,,,,,,,,,,,,,j,0.2296,space,0.3833,,,,,,,,0,30,30,95,1,,
5ba44c47e671c6000123b4f3,2023-06-16_10h23.25.048,phx_ver10,2022.2.5,MacIntel,40.00160006,,,,,,,,,,,,36,testing_3,zh2sh,au,zh2sh_au,zh2sh_8_aushau.wav,zh2sh_1_auzhau.wav,,FALSE,FALSE,,,,,,,,,,,,,,j,0.2047,space,0.3583,,,,,,,,0,31,31,35,1,,
5ba44c47e671c6000123b4f3,2023-06-16_10h23.25.048,phx_ver10,2022.2.5,MacIntel,40.00160006,,,,,,,,,,,,135,testing_3,sh2j,e,sh2j_e,sh2j_1_eshe.wav,sh2j_8_eje.wav,,FALSE,FALSE,,,,,,,,,,,,,,j,0.2313,space,0.4124,,,,,,,,0,32,32,134,1,,
5ba44c47e671c6000123b4f3,2023-06-16_10h23.25.048,phx_ver10,2022.2.5,MacIntel,40.00160006,,,,,,,,,,,,137,testing_3,sh2j,ei,sh2j_ei,sh2j_1_eishei.wav,sh2j_1_eishei.wav,,TRUE,FALSE,,,,,,,,,,,,,,f,0.0516,space,0.1812,,,,,,,,0,33,33,136,1,,
5ba44c47e671c6000123b4f3,2023-06-16_10h23.25.048,phx_ver10,2022.2.5,MacIntel,40.00160006,,,,,,,,,,,,51,testing_3,zh2j,a,zh2j_a,zh2j_1_azha.wav,zh2j_8_aja.wav,,FALSE,FALSE,,,,,,,,,,,,,,j,0.1282,space,0.2819,,,,,,,,0,34,34,50,1,,
5ba44c47e671c6000123b4f3,2023-06-16_10h23.25.048,phx_ver10,2022.2.5,MacIntel,40.00160006,,,,,,,,,,,,49,testing_3,zh2j,a,zh2j_a,zh2j_1_azha.wav,zh2j_1_azha.wav,,TRUE,FALSE,,,,,,,,,,,,,,f,0.18,space,0.283,,,,,,,,0,35,35,48,1,,
5ba44c47e671c6000123b4f3,2023-06-16_10h23.25.048,phx_ver10,2022.2.5,MacIntel,40.00160006,,,,,,,,,,,,115,testing_3,sh2x,ei,sh2x_ei,sh2x_1_eishei.wav,sh2x_8_eixei.wav,,FALSE,FALSE,,,,,,,,,,,,,,j,0.1538,space,0.3338,,,,,,,,0,36,36,114,1,,
5ba44c47e671c6000123b4f3,2023-06-16_10h23.25.048,phx_ver10,2022.2.5,MacIntel,40.00160006,,,,,,,,,,,,134,testing_3,sh2j,e,sh2j_e,sh2j_8_eje.wav,sh2j_8_eje.wav,,TRUE,FALSE,,,,,,,,,,,,,,j,0.2313,space,0.3856,,,,,,,,0,37,37,133,1,,
5ba44c47e671c6000123b4f3,2023-06-16_10h23.25.048,phx_ver10,2022.2.5,MacIntel,40.00160006,,,,,,,,,,,,68,testing_3,zh2j,ei,zh2j_ei,zh2j_8_eijei.wav,zh2j_1_eizhei.wav,,FALSE,FALSE,,,,,,,,,,,,,,j,0.3066,space,0.4857,,,,,,,,0,38,38,67,1,,
5ba44c47e671c6000123b4f3,2023-06-16_10h23.25.048,phx_ver10,2022.2.5,MacIntel,40.00160006,,,,,,,,,,,,47,testing_3,zh2sh,i,zh2sh_i,zh2sh_1_izhi.wav,zh2sh_8_ishi.wav,,FALSE,FALSE,,,,,,,,,,,,,,j,0.1279,space,0.3082,,,,,,,,0,39,39,46,1,,
5ba44c47e671c6000123b4f3,2023-06-16_10h23.25.048,phx_ver10,2022.2.5,MacIntel,40.00160006,,,,,,,,,,,,112,testing_3,sh2x,e,sh2x_e,sh2x_8_exe.wav,sh2x_1_eshe.wav,,FALSE,FALSE,,,,,,,,,,,,,,j,0.2836,space,0.3868,,,,,,,,0,40,40,111,1,,
5ba44c47e671c6000123b4f3,2023-06-16_10h23.25.048,phx_ver10,2022.2.5,MacIntel,40.00160006,,,,,,,,,,,,136,testing_3,sh2j,e,sh2j_e,sh2j_8_eje.wav,sh2j_1_eshe.wav,,FALSE,FALSE,,,,,,,,,,,,,,j,0.3079,space,0.4364,,,,,,,,0,41,41,135,1,,
5ba44c47e671c6000123b4f3,2023-06-16_10h23.25.048,phx_ver10,2022.2.5,MacIntel,40.00160006,,,,,,,,,,,,50,testing_3,zh2j,a,zh2j_a,zh2j_8_aja.wav,zh2j_8_aja.wav,,TRUE,FALSE,,,,,,,,,,,,,,f,0.1032,space,0.2316,,,,,,,,0,42,42,49,1,,
5ba44c47e671c6000123b4f3,2023-06-16_10h23.25.048,phx_ver10,2022.2.5,MacIntel,40.00160006,,,,,,,,,,,,86,testing_3,j2x,e,j2x_e,j2x_8_exe.wav,j2x_8_exe.wav,,TRUE,FALSE,,,,,,,,,,,,,,f,0.1284,space,0.2821,,,,,,,,0,43,43,85,1,,
5ba44c47e671c6000123b4f3,2023-06-16_10h23.25.048,phx_ver10,2022.2.5,MacIntel,40.00160006,,,,,,,,,,,,10,testing_1,zh2x,i,zh2x_i,zh2x_8_ixi.wav,zh2x_8_ixi_copy.wav,,TRUE,TRUE,,,,,,,,,,,,,,j,0.1544,space,0.257,,,,,,,,0,44,44,9,1,,
5ba44c47e671c6000123b4f3,2023-06-16_10h23.25.048,phx_ver10,2022.2.5,MacIntel,40.00160006,,,,,,,,,,,,129,testing_3,sh2j,au,sh2j_au,sh2j_1_aushau.wav,sh2j_1_aushau.wav,,TRUE,FALSE,,,,,,,,,,,,,,j,0.3128,space,0.4154,,,,,,,,0,45,45,128,1,,
5ba44c47e671c6000123b4f3,2023-06-16_10h23.25.048,phx_ver10,2022.2.5,MacIntel,40.00160006,,,,,,,,,,,,35,testing_3,zh2sh,au,zh2sh_au,zh2sh_1_auzhau.wav,zh2sh_8_aushau.wav,,FALSE,FALSE,,,,,,,,,,,,,,j,0.2313,space,0.5399,,,,,,,,0,46,46,34,1,,
5ba44c47e671c6000123b4f3,2023-06-16_10h23.25.048,phx_ver10,2022.2.5,MacIntel,40.00160006,,,,,,,,,,,,48,testing_3,zh2sh,i,zh2sh_i,zh2sh_8_ishi.wav,zh2sh_1_izhi.wav,,FALSE,FALSE,,,,,,,,,,,,,,j,0.2041,space,0.3322,,,,,,,,0,47,47,47,1,,
5ba44c47e671c6000123b4f3,2023-06-16_10h23.25.048,phx_ver10,2022.2.5,MacIntel,40.00160006,,,,,,,,,,,,17,testing_2,zh2x,au,zh2x_au,zh2x_1_auzhau.wav,zh2x_1_auzhau.wav,,TRUE,FALSE,,,,,,,,,,,,,,j,0.2313,space,0.3327,,,,,,,,0,48,48,16,1,,
5ba44c47e671c6000123b4f3,2023-06-16_10h23.25.048,phx_ver10,2022.2.5,MacIntel,40.00160006,,,,,,,,,,,,77,testing_3,j2x,ai,j2x_ai,j2x_1_aijai.wav,j2x_1_aijai.wav,,TRUE,FALSE,,,,,,,,,,,,,,f,0.0767,space,0.2053,,,,,,,,0,49,49,76,1,,
5ba44c47e671c6000123b4f3,2023-06-16_10h23.25.048,phx_ver10,2022.2.5,MacIntel,40.00160006,,,,,,,,,,,,34,testing_3,zh2sh,au,zh2sh_au,zh2sh_8_aushau.wav,zh2sh_8_aushau.wav,,TRUE,FALSE,,,,,,,,,,,,,,f,0.2307,space,0.3587,,,,,,,,0,50,50,33,1,,
5ba44c47e671c6000123b4f3,2023-06-16_10h23.25.048,phx_ver10,2022.2.5,MacIntel,40.00160006,,,,,,,,,,,,82,testing_3,j2x,au,j2x_au,j2x_8_auxau.wav,j2x_8_auxau.wav,,TRUE,FALSE,,,,,,,,,,,,,,f,0.2304,space,0.3597,,,,,,,,0,51,51,81,1,,
5ba44c47e671c6000123b4f3,2023-06-16_10h23.25.048,phx_ver10,2022.2.5,MacIntel,40.00160006,,,,,,,,,,,,81,testing_3,j2x,au,j2x_au,j2x_1_aujau.wav,j2x_1_aujau.wav,,TRUE,FALSE,,,,,,,,,,,,,,f,0.052,space,0.206,,,,,,,,0,52,52,80,1,,
5ba44c47e671c6000123b4f3,2023-06-16_10h23.25.048,phx_ver10,2022.2.5,MacIntel,40.00160006,,,,,,,,,,,,39,testing_3,zh2sh,e,zh2sh_e,zh2sh_1_ezhe.wav,zh2sh_8_eshe.wav,,FALSE,FALSE,,,,,,,,,,,,,,j,0.2056,space,0.3335,,,,,,,,0,53,53,38,1,,
5ba44c47e671c6000123b4f3,2023-06-16_10h23.25.048,phx_ver10,2022.2.5,MacIntel,40.00160006,,,,,,,,,,,,20,testing_2,zh2x,au,zh2x_au,zh2x_8_auxau.wav,zh2x_1_auzhau.wav,,FALSE,FALSE,,,,,,,,,,,,,,j,0.2066,space,0.2868,,,,,,,,0,54,54,19,1,,
5ba44c47e671c6000123b4f3,2023-06-16_10h23.25.048,phx_ver10,2022.2.5,MacIntel,40.00160006,,,,,,,,,,,,95,testing_3,j2x,i,j2x_i,j2x_1_iji.wav,j2x_8_ixi.wav,,FALSE,FALSE,,,,,,,,,,,,,,j,0.1542,space,0.2576,,,,,,,,0,55,55,94,1,,
5ba44c47e671c6000123b4f3,2023-06-16_10h23.25.048,phx_ver10,2022.2.5,MacIntel,40.00160006,,,,,,,,,,,,97,testing_3,sh2x,a,sh2x_a,sh2x_1_asha.wav,sh2x_1_asha.wav,,TRUE,FALSE,,,,,,,,,,,,,,f,0.0257,space,0.1545,,,,,,,,0,56,56,96,1,,
5ba44c47e671c6000123b4f3,2023-06-16_10h23.25.048,phx_ver10,2022.2.5,MacIntel,40.00160006,,,,,,,,,,,,111,testing_3,sh2x,e,sh2x_e,sh2x_1_eshe.wav,sh2x_8_exe.wav,,FALSE,FALSE,,,,,,,,,,,,,,f,0.2316,space,0.3866,,,,,,,,0,57,57,110,1,,
5ba44c47e671c6000123b4f3,2023-06-16_10h23.25.048,phx_ver10,2022.2.5,MacIntel,40.00160006,,,,,,,,,,,,1,testing_1,zh2x,a,zh2x_a,zh2x_1_azha.wav,zh2x_1_azha_copy.wav,,TRUE,TRUE,,,,,,,,,,,,,,f,0.1277,space,0.2828,,,,,,,,0,58,58,0,1,,
5ba44c47e671c6000123b4f3,2023-06-16_10h23.25.048,phx_ver10,2022.2.5,MacIntel,40.00160006,,,,,,,,,,,,7,testing_1,zh2x,e,zh2x_e,zh2x_1_ezhe.wav,zh2x_8_exe.wav,,FALSE,TRUE,,,,,,,,,,,,,,j,0.1805,space,0.3097,,,,,,,,0,59,59,6,1,,
5ba44c47e671c6000123b4f3,2023-06-16_10h23.25.048,phx_ver10,2022.2.5,MacIntel,40.00160006,,,,,,,,,,,,52,testing_3,zh2j,a,zh2j_a,zh2j_8_aja.wav,zh2j_1_azha.wav,,FALSE,FALSE,,,,,,,,,,,,,,f,0.1533,space,0.3083,,,,,,,,0,60,60,51,1,,
5ba44c47e671c6000123b4f3,2023-06-16_10h23.25.048,phx_ver10,2022.2.5,MacIntel,40.00160006,,,,,,,,,,,,24,testing_2,zh2x,ei,zh2x_ei,zh2x_8_eixei.wav,zh2x_1_eizhei.wav,,FALSE,FALSE,,,,,,,,,,,,,,j,1.5682,space,1.7231,,,,,,,,0,61,61,23,1,,
5ba44c47e671c6000123b4f3,2023-06-16_10h23.25.048,phx_ver10,2022.2.5,MacIntel,40.00160006,,,,,,,,,,,,25,testing_3,zh2sh,a,zh2sh_a,zh2sh_1_azha.wav,zh2sh_1_azha.wav,,TRUE,FALSE,,,,,,,,,,,,,,f,0.1283,space,0.2829,,,,,,,,0,62,62,24,1,,
5ba44c47e671c6000123b4f3,2023-06-16_10h23.25.048,phx_ver10,2022.2.5,MacIntel,40.00160006,,,,,,,,,,,,16,testing_2,zh2x,ai,zh2x_ai,zh2x_8_aixai.wav,zh2x_1_aizhai.wav,,FALSE,FALSE,,,,,,,,,,,,,,j,0.103,space,0.2581,,,,,,,,0,63,63,15,1,,
5ba44c47e671c6000123b4f3,2023-06-16_10h23.25.048,phx_ver10,2022.2.5,MacIntel,40.00160006,,,,,,,,,,,,140,testing_3,sh2j,ei,sh2j_ei,sh2j_8_eijei.wav,sh2j_1_eishei.wav,,FALSE,FALSE,,,,,,,,,,,,,,j,0.0768,space,0.2317,,,,,,,,0,64,64,139,1,,
5ba44c47e671c6000123b4f3,2023-06-16_10h23.25.048,phx_ver10,2022.2.5,MacIntel,40.00160006,,,,,,,,,,,,83,testing_3,j2x,au,j2x_au,j2x_1_aujau.wav,j2x_8_auxau.wav,,FALSE,FALSE,,,,,,,,,,,,,,j,0.1029,space,0.2563,,,,,,,,0,65,65,82,1,,
5ba44c47e671c6000123b4f3,2023-06-16_10h23.25.048,phx_ver10,2022.2.5,MacIntel,40.00160006,,,,,,,,,,,,72,testing_3,zh2j,i,zh2j_i,zh2j_8_iji.wav,zh2j_1_izhi.wav,,FALSE,FALSE,,,,,,,,,,,,,,f,0.6166,space,0.9007,,,,,,,,0,66,66,71,1,,
5ba44c47e671c6000123b4f3,2023-06-16_10h23.25.048,phx_ver10,2022.2.5,MacIntel,40.00160006,,,,,,,,,,,,40,testing_3,zh2sh,e,zh2sh_e,zh2sh_8_eshe.wav,zh2sh_1_ezhe.wav,,FALSE,FALSE,,,,,,,,,,,,,,j,0.128,space,0.282,,,,,,,,0,67,67,39,1,,
5ba44c47e671c6000123b4f3,2023-06-16_10h23.25.048,phx_ver10,2022.2.5,MacIntel,40.00160006,,,,,,,,,,,,124,testing_3,sh2j,a,sh2j_a,sh2j_8_aja.wav,sh2j_1_asha.wav,,FALSE,FALSE,,,,,,,,,,,,,,j,0.1801,space,0.2832,,,,,,,,0,68,68,123,1,,
5ba44c47e671c6000123b4f3,2023-06-16_10h23.25.048,phx_ver10,2022.2.5,MacIntel,40.00160006,,,,,,,,,,,,110,testing_3,sh2x,e,sh2x_e,sh2x_8_exe.wav,sh2x_8_exe.wav,,TRUE,FALSE,,,,,,,,,,,,,,j,1.3357,space,1.4643,,,,,,,,0,69,69,109,1,,
5ba44c47e671c6000123b4f3,2023-06-16_10h23.25.048,phx_ver10,2022.2.5,MacIntel,40.00160006,,,,,,,,,,,,130,testing_3,sh2j,au,sh2j_au,sh2j_8_aujau.wav,sh2j_8_aujau.wav,,TRUE,FALSE,,,,,,,,,,,,,,f,0.0767,space,0.2307,,,,,,,,0,70,70,129,1,,
5ba44c47e671c6000123b4f3,2023-06-16_10h23.25.048,phx_ver10,2022.2.5,MacIntel,40.00160006,,,,,,,,,,,,56,testing_3,zh2j,ai,zh2j_ai,zh2j_8_aijai.wav,zh2j_1_aizhai.wav,,FALSE,FALSE,,,,,,,,,,,,,,j,0.4623,space,0.6683,,,,,,,,0,71,71,55,1,,
5ba44c47e671c6000123b4f3,2023-06-16_10h23.25.048,phx_ver10,2022.2.5,MacIntel,40.00160006,,,,,,,,,,,,94,testing_3,j2x,i,j2x_i,j2x_8_ixi.wav,j2x_8_ixi.wav,,TRUE,FALSE,,,,,,,,,,,,,,f,0.1286,space,0.3089,,,,,,,,0,72,72,93,1,,
5ba44c47e671c6000123b4f3,2023-06-16_10h23.25.048,phx_ver10,2022.2.5,MacIntel,40.00160006,,,,,,,,,,,,122,testing_3,sh2j,a,sh2j_a,sh2j_8_aja.wav,sh2j_8_aja.wav,,TRUE,FALSE,,,,,,,,,,,,,,f,0.1281,space,0.2571,,,,,,,,0,73,73,121,1,,
5ba44c47e671c6000123b4f3,2023-06-16_10h23.25.048,phx_ver10,2022.2.5,MacIntel,40.00160006,,,,,,,,,,,,84,testing_3,j2x,au,j2x_au,j2x_8_auxau.wav,j2x_1_aujau.wav,,FALSE,FALSE,,,,,,,,,,,,,,j,0.18,space,0.3097,,,,,,,,0,74,74,83,1,,
5ba44c47e671c6000123b4f3,2023-06-16_10h23.25.048,phx_ver10,2022.2.5,MacIntel,40.00160006,,,,,,,,,,,,3,testing_1,zh2x,a,zh2x_a,zh2x_1_azha.wav,zh2x_8_axa.wav,,FALSE,TRUE,,,,,,,,,,,,,,j,0.7212,space,0.8254,,,,,,,,0,75,75,2,1,,
5ba44c47e671c6000123b4f3,2023-06-16_10h23.25.048,phx_ver10,2022.2.5,MacIntel,40.00160006,,,,,,,,,,,,101,testing_3,sh2x,ai,sh2x_ai,sh2x_1_aishai.wav,sh2x_1_aishai.wav,,TRUE,FALSE,,,,,,,,,,,,,,f,0.4869,space,0.5899,,,,,,,,0,76,76,100,1,,
5ba44c47e671c6000123b4f3,2023-06-16_10h23.25.048,phx_ver10,2022.2.5,MacIntel,40.00160006,,,,,,,,,,,,73,testing_3,j2x,a,j2x_a,j2x_1_aja.wav,j2x_1_aja.wav,,TRUE,FALSE,,,,,,,,,,,,,,f,0.0516,space,0.1805,,,,,,,,0,77,77,72,1,,
5ba44c47e671c6000123b4f3,2023-06-16_10h23.25.048,phx_ver10,2022.2.5,MacIntel,40.00160006,,,,,,,,,,,,57,testing_3,zh2j,au,zh2j_au,zh2j_1_auzhau.wav,zh2j_1_auzhau.wav,,TRUE,FALSE,,,,,,,,,,,,,,f,0.1804,space,0.2833,,,,,,,,0,78,78,56,1,,
5ba44c47e671c6000123b4f3,2023-06-16_10h23.25.048,phx_ver10,2022.2.5,MacIntel,40.00160006,,,,,,,,,,,,41,testing_3,zh2sh,ei,zh2sh_ei,zh2sh_1_eizhei.wav,zh2sh_1_eizhei.wav,,TRUE,FALSE,,,,,,,,,,,,,,f,0.2059,space,0.3094,,,,,,,,0,79,79,40,1,,
5ba44c47e671c6000123b4f3,2023-06-16_10h23.25.048,phx_ver10,2022.2.5,MacIntel,40.00160006,,,,,,,,,,,,141,testing_3,sh2j,i,sh2j_i,sh2j_1_ishi.wav,sh2j_1_ishi.wav,,TRUE,FALSE,,,,,,,,,,,,,,j,0.5914,space,0.7457,,,,,,,,0,80,80,140,1,,
5ba44c47e671c6000123b4f3,2023-06-16_10h23.25.048,phx_ver10,2022.2.5,MacIntel,40.00160006,,,,,,,,,,,,26,testing_3,zh2sh,a,zh2sh_a,zh2sh_8_asha.wav,zh2sh_8_asha.wav,,TRUE,FALSE,,,,,,,,,,,,,,f,0.128,space,0.2826,,,,,,,,0,81,81,25,1,,
5ba44c47e671c6000123b4f3,2023-06-16_10h23.25.048,phx_ver10,2022.2.5,MacIntel,40.00160006,,,,,,,,,,,,92,testing_3,j2x,ei,j2x_ei,j2x_8_eixei.wav,j2x_1_eijei.wav,,FALSE,FALSE,,,,,,,,,,,,,,j,0.2057,space,0.3861,,,,,,,,0,82,82,91,1,,
5ba44c47e671c6000123b4f3,2023-06-16_10h23.25.048,phx_ver10,2022.2.5,MacIntel,40.00160006,,,,,,,,,,,,90,testing_3,j2x,ei,j2x_ei,j2x_8_eixei.wav,j2x_8_eixei.wav,,TRUE,FALSE,,,,,,,,,,,,,,f,0.1544,space,0.2831,,,,,,,,0,83,83,89,1,,
5ba44c47e671c6000123b4f3,2023-06-16_10h23.25.048,phx_ver10,2022.2.5,MacIntel,40.00160006,,,,,,,,,,,,15,testing_2,zh2x,ai,zh2x_ai,zh2x_1_aizhai.wav,zh2x_8_aixai.wav,,FALSE,FALSE,,,,,,,,,,,,,,j,0.3328,space,0.487,,,,,,,,0,84,84,14,1,,
5ba44c47e671c6000123b4f3,2023-06-16_10h23.25.048,phx_ver10,2022.2.5,MacIntel,40.00160006,,,,,,,,,,,,13,testing_2,zh2x,ai,zh2x_ai,zh2x_1_aizhai.wav,zh2x_1_aizhai.wav,,TRUE,FALSE,,,,,,,,,,,,,,f,0.3338,space,0.4885,,,,,,,,0,85,85,12,1,,
5ba44c47e671c6000123b4f3,2023-06-16_10h23.25.048,phx_ver10,2022.2.5,MacIntel,40.00160006,,,,,,,,,,,,11,testing_1,zh2x,i,zh2x_i,zh2x_1_izhi.wav,zh2x_8_ixi.wav,,FALSE,TRUE,,,,,,,,,,,,,,j,0.2829,space,0.4111,,,,,,,,0,86,86,10,1,,
5ba44c47e671c6000123b4f3,2023-06-16_10h23.25.048,phx_ver10,2022.2.5,MacIntel,40.00160006,,,,,,,,,,,,5,testing_1,zh2x,e,zh2x_e,zh2x_1_ezhe.wav,zh2x_1_ezhe_copy.wav,,TRUE,TRUE,,,,,,,,,,,,,,j,0.3592,space,0.5137,,,,,,,,0,87,87,4,1,,
5ba44c47e671c6000123b4f3,2023-06-16_10h23.25.048,phx_ver10,2022.2.5,MacIntel,40.00160006,,,,,,,,,,,,45,testing_3,zh2sh,i,zh2sh_i,zh2sh_1_izhi.wav,zh2sh_1_izhi.wav,,TRUE,FALSE,,,,,,,,,,,,,,f,0.3598,space,0.4888,,,,,,,,0,88,88,44,1,,
5ba44c47e671c6000123b4f3,2023-06-16_10h23.25.048,phx_ver10,2022.2.5,MacIntel,40.00160006,,,,,,,,,,,,89,testing_3,j2x,ei,j2x_ei,j2x_1_eijei.wav,j2x_1_eijei.wav,,TRUE,FALSE,,,,,,,,,,,,,,f,0.2561,space,0.3847,,,,,,,,0,89,89,88,1,,
5ba44c47e671c6000123b4f3,2023-06-16_10h23.25.048,phx_ver10,2022.2.5,MacIntel,40.00160006,,,,,,,,,,,,88,testing_3,j2x,e,j2x_e,j2x_8_exe.wav,j2x_1_eje.wav,,FALSE,FALSE,,,,,,,,,,,,,,j,0.2826,space,0.4368,,,,,,,,0,90,90,87,1,,
5ba44c47e671c6000123b4f3,2023-06-16_10h23.25.048,phx_ver10,2022.2.5,MacIntel,40.00160006,,,,,,,,,,,,12,testing_1,zh2x,i,zh2x_i,zh2x_8_ixi.wav,zh2x_1_izhi.wav,,FALSE,TRUE,,,,,,,,,,,,,,j,0.334,space,0.4629,,,,,,,,0,91,91,11,1,,
5ba44c47e671c6000123b4f3,2023-06-16_10h23.25.048,phx_ver10,2022.2.5,MacIntel,40.00160006,,,,,,,,,,,,21,testing_2,zh2x,ei,zh2x_ei,zh2x_1_eizhei.wav,zh2x_1_eizhei.wav,,TRUE,FALSE,,,,,,,,,,,,,,f,0.2816,space,0.3847,,,,,,,,0,92,92,20,1,,
5ba44c47e671c6000123b4f3,2023-06-16_10h23.25.048,phx_ver10,2022.2.5,MacIntel,40.00160006,,,,,,,,,,,,117,testing_3,sh2x,i,sh2x_i,sh2x_1_ishi.wav,sh2x_1_ishi.wav,,TRUE,FALSE,,,,,,,,,,,,,,f,0.2049,space,0.5894,,,,,,,,0,93,93,116,1,,
5ba44c47e671c6000123b4f3,2023-06-16_10h23.25.048,phx_ver10,2022.2.5,MacIntel,40.00160006,,,,,,,,,,,,132,testing_3,sh2j,au,sh2j_au,sh2j_8_aujau.wav,sh2j_1_aushau.wav,,FALSE,FALSE,,,,,,,,,,,,,,j,0.3841,space,0.6438,,,,,,,,0,94,94,131,1,,
5ba44c47e671c6000123b4f3,2023-06-16_10h23.25.048,phx_ver10,2022.2.5,MacIntel,40.00160006,,,,,,,,,,,,105,testing_3,sh2x,au,sh2x_au,sh2x_1_aushau.wav,sh2x_1_aushau.wav,,TRUE,FALSE,,,,,,,,,,,,,,f,0.0254,space,0.1547,,,,,,,,0,95,95,104,1,,
5ba44c47e671c6000123b4f3,2023-06-16_10h23.25.048,phx_ver10,2022.2.5,MacIntel,40.00160006,,,,,,,,,,,,100,testing_3,sh2x,a,sh2x_a,sh2x_8_axa.wav,sh2x_1_asha.wav,,FALSE,FALSE,,,,,,,,,,,,,,f,0.2563,space,0.4116,,,,,,,,0,96,96,99,1,,
5ba44c47e671c6000123b4f3,2023-06-16_10h23.25.048,phx_ver10,2022.2.5,MacIntel,40.00160006,,,,,,,,,,,,28,testing_3,zh2sh,a,zh2sh_a,zh2sh_8_asha.wav,zh2sh_1_azha.wav,,FALSE,FALSE,,,,,,,,,,,,,,j,0.2823,space,0.3853,,,,,,,,0,97,97,27,1,,
5ba44c47e671c6000123b4f3,2023-06-16_10h23.25.048,phx_ver10,2022.2.5,MacIntel,40.00160006,,,,,,,,,,,,109,testing_3,sh2x,e,sh2x_e,sh2x_1_eshe.wav,sh2x_1_eshe.wav,,TRUE,FALSE,,,,,,,,,,,,,,f,0.1792,space,0.2827,,,,,,,,0,98,98,108,1,,
5ba44c47e671c6000123b4f3,2023-06-16_10h23.25.048,phx_ver10,2022.2.5,MacIntel,40.00160006,,,,,,,,,,,,31,testing_3,zh2sh,ai,zh2sh_ai,zh2sh_1_aizhai.wav,zh2sh_8_aishai.wav,,FALSE,FALSE,,,,,,,,,,,,,,j,0.5899,space,0.718,,,,,,,,0,99,99,30,1,,
5ba44c47e671c6000123b4f3,2023-06-16_10h23.25.048,phx_ver10,2022.2.5,MacIntel,40.00160006,,,,,,,,,,,,139,testing_3,sh2j,ei,sh2j_ei,sh2j_1_eishei.wav,sh2j_8_eijei.wav,,FALSE,FALSE,,,,,,,,,,,,,,j,0.2565,space,0.4353,,,,,,,,0,100,100,138,1,,
5ba44c47e671c6000123b4f3,2023-06-16_10h23.25.048,phx_ver10,2022.2.5,MacIntel,40.00160006,,,,,,,,,,,,64,testing_3,zh2j,e,zh2j_e,zh2j_8_eje.wav,zh2j_1_ezhe.wav,,FALSE,FALSE,,,,,,,,,,,,,,f,0.102,space,0.3074,,,,,,,,0,101,101,63,1,,
5ba44c47e671c6000123b4f3,2023-06-16_10h23.25.048,phx_ver10,2022.2.5,MacIntel,40.00160006,,,,,,,,,,,,54,testing_3,zh2j,ai,zh2j_ai,zh2j_8_aijai.wav,zh2j_8_aijai.wav,,TRUE,FALSE,,,,,,,,,,,,,,f,0.1551,space,0.3097,,,,,,,,0,102,102,53,1,,
5ba44c47e671c6000123b4f3,2023-06-16_10h23.25.048,phx_ver10,2022.2.5,MacIntel,40.00160006,,,,,,,,,,,,30,testing_3,zh2sh,ai,zh2sh_ai,zh2sh_8_aishai.wav,zh2sh_8_aishai.wav,,TRUE,FALSE,,,,,,,,,,,,,,j,0.0765,space,0.4102,,,,,,,,0,103,103,29,1,,
5ba44c47e671c6000123b4f3,2023-06-16_10h23.25.048,phx_ver10,2022.2.5,MacIntel,40.00160006,,,,,,,,,,,,143,testing_3,sh2j,i,sh2j_i,sh2j_1_ishi.wav,sh2j_8_iji.wav,,FALSE,FALSE,,,,,,,,,,,,,,j,0.3591,space,0.5135,,,,,,,,0,104,104,142,1,,
5ba44c47e671c6000123b4f3,2023-06-16_10h23.25.048,phx_ver10,2022.2.5,MacIntel,40.00160006,,,,,,,,,,,,37,testing_3,zh2sh,e,zh2sh_e,zh2sh_1_ezhe.wav,zh2sh_1_ezhe.wav,,TRUE,FALSE,,,,,,,,,,,,,,f,1.2321,space,1.5926,,,,,,,,0,105,105,36,1,,
5ba44c47e671c6000123b4f3,2023-06-16_10h23.25.048,phx_ver10,2022.2.5,MacIntel,40.00160006,,,,,,,,,,,,58,testing_3,zh2j,au,zh2j_au,zh2j_8_aujau.wav,zh2j_8_aujau.wav,,TRUE,FALSE,,,,,,,,,,,,,,f,0.0771,space,0.2833,,,,,,,,0,106,106,57,1,,
5ba44c47e671c6000123b4f3,2023-06-16_10h23.25.048,phx_ver10,2022.2.5,MacIntel,40.00160006,,,,,,,,,,,,138,testing_3,sh2j,ei,sh2j_ei,sh2j_8_eijei.wav,sh2j_8_eijei.wav,,TRUE,FALSE,,,,,,,,,,,,,,f,1.3078,space,1.4629,,,,,,,,0,107,107,137,1,,
5ba44c47e671c6000123b4f3,2023-06-16_10h23.25.048,phx_ver10,2022.2.5,MacIntel,40.00160006,,,,,,,,,,,,120,testing_3,sh2x,i,sh2x_i,sh2x_8_ixi.wav,sh2x_1_ishi.wav,,FALSE,FALSE,,,,,,,,,,,,,,j,0.4426,space,0.6548,,,,,,,,0,108,108,119,1,,
5ba44c47e671c6000123b4f3,2023-06-16_10h23.25.048,phx_ver10,2022.2.5,MacIntel,40.00160006,,,,,,,,,,,,127,testing_3,sh2j,ai,sh2j_ai,sh2j_1_aishai.wav,sh2j_8_aijai.wav,,FALSE,FALSE,,,,,,,,,,,,,,j,0.2564,space,0.4611,,,,,,,,0,109,109,126,1,,
5ba44c47e671c6000123b4f3,2023-06-16_10h23.25.048,phx_ver10,2022.2.5,MacIntel,40.00160006,,,,,,,,,,,,98,testing_3,sh2x,a,sh2x_a,sh2x_8_axa.wav,sh2x_8_axa.wav,,TRUE,FALSE,,,,,,,,,,,,,,f,1.9497,space,2.0783,,,,,,,,0,110,110,97,1,,
5ba44c47e671c6000123b4f3,2023-06-16_10h23.25.048,phx_ver10,2022.2.5,MacIntel,40.00160006,,,,,,,,,,,,87,testing_3,j2x,e,j2x_e,j2x_1_eje.wav,j2x_8_exe.wav,,FALSE,FALSE,,,,,,,,,,,,,,j,0.1791,space,0.3325,,,,,,,,0,111,111,86,1,,
5ba44c47e671c6000123b4f3,2023-06-16_10h23.25.048,phx_ver10,2022.2.5,MacIntel,40.00160006,,,,,,,,,,,,75,testing_3,j2x,a,j2x_a,j2x_1_aja.wav,j2x_8_axa.wav,,FALSE,FALSE,,,,,,,,,,,,,,j,0.205,space,0.4104,,,,,,,,0,112,112,74,1,,
5ba44c47e671c6000123b4f3,2023-06-16_10h23.25.048,phx_ver10,2022.2.5,MacIntel,40.00160006,,,,,,,,,,,,18,testing_2,zh2x,au,zh2x_au,zh2x_8_auxau.wav,zh2x_8_auxau.wav,,TRUE,FALSE,,,,,,,,,,,,,,f,0.4888,space,0.6171,,,,,,,,0,113,113,17,1,,
5ba44c47e671c6000123b4f3,2023-06-16_10h23.25.048,phx_ver10,2022.2.5,MacIntel,40.00160006,,,,,,,,,,,,133,testing_3,sh2j,e,sh2j_e,sh2j_1_eshe.wav,sh2j_1_eshe.wav,,TRUE,FALSE,,,,,,,,,,,,,,f,1.6687,space,2.029,,,,,,,,0,114,114,132,1,,
5ba44c47e671c6000123b4f3,2023-06-16_10h23.25.048,phx_ver10,2022.2.5,MacIntel,40.00160006,,,,,,,,,,,,108,testing_3,sh2x,au,sh2x_au,sh2x_8_auxau.wav,sh2x_1_aushau.wav,,FALSE,FALSE,,,,,,,,,,,,,,j,0.5367,space,0.7947,,,,,,,,0,115,115,107,1,,
5ba44c47e671c6000123b4f3,2023-06-16_10h23.25.048,phx_ver10,2022.2.5,MacIntel,40.00160006,,,,,,,,,,,,44,testing_3,zh2sh,ei,zh2sh_ei,zh2sh_8_eishei.wav,zh2sh_1_eizhei.wav,,FALSE,FALSE,,,,,,,,,,,,,,j,3.0699,space,3.2255,,,,,,,,0,116,116,43,1,,
5ba44c47e671c6000123b4f3,2023-06-16_10h23.25.048,phx_ver10,2022.2.5,MacIntel,40.00160006,,,,,,,,,,,,62,testing_3,zh2j,e,zh2j_e,zh2j_8_eje.wav,zh2j_8_eje.wav,,TRUE,FALSE,,,,,,,,,,,,,,j,3.9138,space,4.1192,,,,,,,,0,117,117,61,1,,
5ba44c47e671c6000123b4f3,2023-06-16_10h23.25.048,phx_ver10,2022.2.5,MacIntel,40.00160006,,,,,,,,,,,,6,testing_1,zh2x,e,zh2x_e,zh2x_8_exe.wav,zh2x_8_exe_copy.wav,,TRUE,TRUE,,,,,,,,,,,,,,f,2.3388,space,2.5458,,,,,,,,0,118,118,5,1,,
5ba44c47e671c6000123b4f3,2023-06-16_10h23.25.048,phx_ver10,2022.2.5,MacIntel,40.00160006,,,,,,,,,,,,99,testing_3,sh2x,a,sh2x_a,sh2x_1_asha.wav,sh2x_8_axa.wav,,FALSE,FALSE,,,,,,,,,,,,,,j,0.7436,space,0.9752,,,,,,,,0,119,119,98,1,,
5ba44c47e671c6000123b4f3,2023-06-16_10h23.25.048,phx_ver10,2022.2.5,MacIntel,40.00160006,,,,,,,,,,,,65,testing_3,zh2j,ei,zh2j_ei,zh2j_1_eizhei.wav,zh2j_1_eizhei.wav,,TRUE,FALSE,,,,,,,,,,,,,,j,1.8757,space,2.1071,,,,,,,,0,120,120,64,1,,
5ba44c47e671c6000123b4f3,2023-06-16_10h23.25.048,phx_ver10,2022.2.5,MacIntel,40.00160006,,,,,,,,,,,,121,testing_3,sh2j,a,sh2j_a,sh2j_1_asha.wav,sh2j_1_asha.wav,,TRUE,FALSE,,,,,,,,,,,,,,f,1.2828,space,1.4368,,,,,,,,0,121,121,120,1,,
5ba44c47e671c6000123b4f3,2023-06-16_10h23.25.048,phx_ver10,2022.2.5,MacIntel,40.00160006,,,,,,,,,,,,126,testing_3,sh2j,ai,sh2j_ai,sh2j_8_aijai.wav,sh2j_8_aijai.wav,,TRUE,FALSE,,,,,,,,,,,,,,j,5.2873,space,5.4414,,,,,,,,0,122,122,125,1,,
5ba44c47e671c6000123b4f3,2023-06-16_10h23.25.048,phx_ver10,2022.2.5,MacIntel,40.00160006,,,,,,,,,,,,93,testing_3,j2x,i,j2x_i,j2x_1_iji.wav,j2x_1_iji.wav,,TRUE,FALSE,,,,,,,,,,,,,,f,0.2576,space,0.4123,,,,,,,,0,123,123,92,1,,
5ba44c47e671c6000123b4f3,2023-06-16_10h23.25.048,phx_ver10,2022.2.5,MacIntel,40.00160006,,,,,,,,,,,,59,testing_3,zh2j,au,zh2j_au,zh2j_1_auzhau.wav,zh2j_8_aujau.wav,,FALSE,FALSE,,,,,,,,,,,,,,f,1.5925,space,1.7214,,,,,,,,0,124,124,58,1,,
5ba44c47e671c6000123b4f3,2023-06-16_10h23.25.048,phx_ver10,2022.2.5,MacIntel,40.00160006,,,,,,,,,,,,74,testing_3,j2x,a,j2x_a,j2x_8_axa.wav,j2x_8_axa.wav,,TRUE,FALSE,,,,,,,,,,,,,,f,1.7972,space,1.9268,,,,,,,,0,125,125,73,1,,
5ba44c47e671c6000123b4f3,2023-06-16_10h23.25.048,phx_ver10,2022.2.5,MacIntel,40.00160006,,,,,,,,,,,,107,testing_3,sh2x,au,sh2x_au,sh2x_1_aushau.wav,sh2x_8_auxau.wav,,FALSE,FALSE,,,,,,,,,,,,,,j,0.5439,space,0.6984,,,,,,,,0,126,126,106,1,,
5ba44c47e671c6000123b4f3,2023-06-16_10h23.25.048,phx_ver10,2022.2.5,MacIntel,40.00160006,,,,,,,,,,,,19,testing_2,zh2x,au,zh2x_au,zh2x_1_auzhau.wav,zh2x_8_auxau.wav,,FALSE,FALSE,,,,,,,,,,,,,,j,0.6414,space,0.7448,,,,,,,,0,127,127,18,1,,
5ba44c47e671c6000123b4f3,2023-06-16_10h23.25.048,phx_ver10,2022.2.5,MacIntel,40.00160006,,,,,,,,,,,,67,testing_3,zh2j,ei,zh2j_ei,zh2j_1_eizhei.wav,zh2j_8_eijei.wav,,FALSE,FALSE,,,,,,,,,,,,,,j,0.745,space,0.8487,,,,,,,,0,128,128,66,1,,
5ba44c47e671c6000123b4f3,2023-06-16_10h23.25.048,phx_ver10,2022.2.5,MacIntel,40.00160006,,,,,,,,,,,,128,testing_3,sh2j,ai,sh2j_ai,sh2j_8_aijai.wav,sh2j_1_aishai.wav,,FALSE,FALSE,,,,,,,,,,,,,,j,4.1922,space,4.4503,,,,,,,,0,129,129,127,1,,
5ba44c47e671c6000123b4f3,2023-06-16_10h23.25.048,phx_ver10,2022.2.5,MacIntel,40.00160006,,,,,,,,,,,,78,testing_3,j2x,ai,j2x_ai,j2x_8_aixai.wav,j2x_8_aixai.wav,,TRUE,FALSE,,,,,,,,,,,,,,j,3.6711,space,3.7743,,,,,,,,0,130,130,77,1,,
5ba44c47e671c6000123b4f3,2023-06-16_10h23.25.048,phx_ver10,2022.2.5,MacIntel,40.00160006,,,,,,,,,,,,142,testing_3,sh2j,i,sh2j_i,sh2j_8_iji.wav,sh2j_8_iji.wav,,TRUE,FALSE,,,,,,,,,,,,,,f,3.1108,space,3.2927,,,,,,,,0,131,131,141,1,,
5ba44c47e671c6000123b4f3,2023-06-16_10h23.25.048,phx_ver10,2022.2.5,MacIntel,40.00160006,,,,,,,,,,,,32,testing_3,zh2sh,ai,zh2sh_ai,zh2sh_8_aishai.wav,zh2sh_1_aizhai.wav,,FALSE,FALSE,,,,,,,,,,,,,,j,1.8239,space,1.927,,,,,,,,0,132,132,31,1,,
5ba44c47e671c6000123b4f3,2023-06-16_10h23.25.048,phx_ver10,2022.2.5,MacIntel,40.00160006,,,,,,,,,,,,103,testing_3,sh2x,ai,sh2x_ai,sh2x_1_aishai.wav,sh2x_8_aixai.wav,,FALSE,FALSE,,,,,,,,,,,,,,j,3.3459,space,3.4752,,,,,,,,0,133,133,102,1,,
5ba44c47e671c6000123b4f3,2023-06-16_10h23.25.048,phx_ver10,2022.2.5,MacIntel,40.00160006,,,,,,,,,,,,114,testing_3,sh2x,ei,sh2x_ei,sh2x_8_eixei.wav,sh2x_8_eixei.wav,,TRUE,FALSE,,,,,,,,,,,,,,f,0.5627,space,0.7414,,,,,,,,0,134,134,113,1,,
5ba44c47e671c6000123b4f3,2023-06-16_10h23.25.048,phx_ver10,2022.2.5,MacIntel,40.00160006,,,,,,,,,,,,46,testing_3,zh2sh,i,zh2sh_i,zh2sh_8_ishi.wav,zh2sh_8_ishi.wav,,TRUE,FALSE,,,,,,,,,,,,,,j,5.4495,space,5.5783,,,,,,,,0,135,135,45,1,,
5ba44c47e671c6000123b4f3,2023-06-16_10h23.25.048,phx_ver10,2022.2.5,MacIntel,40.00160006,,,,,,,,,,,,125,testing_3,sh2j,ai,sh2j_ai,sh2j_1_aishai.wav,sh2j_1_aishai.wav,,TRUE,FALSE,,,,,,,,,,,,,,f,0.1028,space,0.2572,,,,,,,,0,136,136,124,1,,
5ba44c47e671c6000123b4f3,2023-06-16_10h23.25.048,phx_ver10,2022.2.5,MacIntel,40.00160006,,,,,,,,,,,,38,testing_3,zh2sh,e,zh2sh_e,zh2sh_8_eshe.wav,zh2sh_8_eshe.wav,,TRUE,FALSE,,,,,,,,,,,,,,j,0.9725,space,1.0751,,,,,,,,0,137,137,37,1,,
5ba44c47e671c6000123b4f3,2023-06-16_10h23.25.048,phx_ver10,2022.2.5,MacIntel,40.00160006,,,,,,,,,,,,60,testing_3,zh2j,au,zh2j_au,zh2j_8_aujau.wav,zh2j_1_auzhau.wav,,FALSE,FALSE,,,,,,,,,,,,,,f,0.5892,space,0.6664,,,,,,,,0,138,138,59,1,,
5ba44c47e671c6000123b4f3,2023-06-16_10h23.25.048,phx_ver10,2022.2.5,MacIntel,40.00160006,,,,,,,,,,,,8,testing_1,zh2x,e,zh2x_e,zh2x_8_exe.wav,zh2x_1_ezhe.wav,,FALSE,TRUE,,,,,,,,,,,,,,j,4.8313,space,4.9344,,,,,,,,0,139,139,7,1,,
5ba44c47e671c6000123b4f3,2023-06-16_10h23.25.048,phx_ver10,2022.2.5,MacIntel,40.00160006,,,,,,,,,,,,22,testing_2,zh2x,ei,zh2x_ei,zh2x_8_eixei.wav,zh2x_8_eixei.wav,,TRUE,FALSE,,,,,,,,,,,,,,f,0.4105,space,0.5401,,,,,,,,0,140,140,21,1,,
5ba44c47e671c6000123b4f3,2023-06-16_10h23.25.048,phx_ver10,2022.2.5,MacIntel,40.00160006,,,,,,,,,,,,85,testing_3,j2x,e,j2x_e,j2x_1_eje.wav,j2x_1_eje.wav,,TRUE,FALSE,,,,,,,,,,,,,,f,1.28,space,1.3827,,,,,,,,0,141,141,84,1,,
5ba44c47e671c6000123b4f3,2023-06-16_10h23.25.048,phx_ver10,2022.2.5,MacIntel,40.00160006,,,,,,,,,,,,79,testing_3,j2x,ai,j2x_ai,j2x_1_aijai.wav,j2x_8_aixai.wav,,FALSE,FALSE,,,,,,,,,,,,,,j,0.5113,space,0.64,,,,,,,,0,142,142,78,1,,
5ba44c47e671c6000123b4f3,2023-06-16_10h23.25.048,phx_ver10,2022.2.5,MacIntel,40.00160006,,,,,,,,,,,,53,testing_3,zh2j,ai,zh2j_ai,zh2j_1_aizhai.wav,zh2j_1_aizhai.wav,,TRUE,FALSE,,,,,,,,,,,,,,j,6.8387,space,6.9425,,,,,,,,0,143,143,52,1,,
5ba44c47e671c6000123b4f3,2023-06-16_10h23.25.048,phx_ver10,2022.2.5,MacIntel,40.00160006,,,,,,,,,,,,,,,,,,,,,,,,,,,,,,,,,,,,,,,,,,,,,,,,,,,space,2.489
