participant,date,expName,psychopyVersion,OS,frameRate,space_1.keys,space_1.rt,space_2.keys,space_2.rt,space_train.keys,space_train.rt,training.thisRepN,training.thisTrialN,training.thisN,training.thisIndex,training.ran,token_id,task,continuum,vowel,series,sound_1,sound_2,img,same,trained,FJ_attn.keys,FJ_attn.rt,space_attn.keys,space_attn.rt,if_attn_test.thisRepN,if_attn_test.thisTrialN,if_attn_test.thisN,if_attn_test.thisIndex,if_attn_test.ran,space_trans_1.keys,space_trans_1.rt,space_trans_11.keys,space_trans_11.rt,FJ_test.keys,FJ_test.rt,space_test.keys,space_test.rt,testing_pre.thisRepN,testing_pre.thisTrialN,testing_pre.thisN,testing_pre.thisIndex,testing_pre.ran,space_trans_2.keys,space_trans_2.rt,testing_all.thisRepN,testing_all.thisTrialN,testing_all.thisN,testing_all.thisIndex,testing_all.ran,space_ending.keys,space_ending.rt
5c069c1566c9ab0001cd8625,2023-06-16_10h01.23.663,phx_ver10,2022.2.5,Win32,59.94485074,,,,,,,,,,,,,,,,,,,,,,,,,,,,,,,,,,,,,,,,,,,,,,,,,,,,
5c069c1566c9ab0001cd8625,2023-06-16_10h01.23.663,phx_ver10,2022.2.5,Win32,59.94485074,space,7.1991,,,,,,,,,,,,,,,,,,,,,,,,,,,,,,,,,,,,,,,,,,,,,,,,,,
5c069c1566c9ab0001cd8625,2023-06-16_10h01.23.663,phx_ver10,2022.2.5,Win32,59.94485074,,,space,3.0983,,,,,,,,,,,,,,,,,,,,,,,,,,,,,,,,,,,,,,,,,,,,,,,,
5c069c1566c9ab0001cd8625,2023-06-16_10h01.23.663,phx_ver10,2022.2.5,Win32,59.94485074,,,,,space,0.736,0,0,0,24,1,25,training,zh2x,e,zh2x_e,zh2x_5_exe.wav,,exe.jpg,,,,,,,,,,,,,,,,,,,,,,,,,,,,,,,,,
5c069c1566c9ab0001cd8625,2023-06-16_10h01.23.663,phx_ver10,2022.2.5,Win32,59.94485074,,,,,space,0.1215,0,1,1,31,1,32,training,zh2x,e,zh2x_e,zh2x_8_exe.wav,,exe.jpg,,,,,,,,,,,,,,,,,,,,,,,,,,,,,,,,,
5c069c1566c9ab0001cd8625,2023-06-16_10h01.23.663,phx_ver10,2022.2.5,Win32,59.94485074,,,,,space,0.6031,0,2,2,42,1,43,training,zh2x,i,zh2x_i,zh2x_6_ixi.wav,,ixi.jpg,,,,,,,,,,,,,,,,,,,,,,,,,,,,,,,,,
5c069c1566c9ab0001cd8625,2023-06-16_10h01.23.663,phx_ver10,2022.2.5,Win32,59.94485074,,,,,space,0.2886,0,3,3,36,1,37,training,zh2x,i,zh2x_i,zh2x_2_izhi.wav,,izhi.jpg,,,,,,,,,,,,,,,,,,,,,,,,,,,,,,,,,
5c069c1566c9ab0001cd8625,2023-06-16_10h01.23.663,phx_ver10,2022.2.5,Win32,59.94485074,,,,,space,0.4508,0,4,4,3,1,4,training,zh2x,a,zh2x_a,zh2x_2_azha.wav,,azha.jpg,,,,,,,,,,,,,,,,,,,,,,,,,,,,,,,,,
5c069c1566c9ab0001cd8625,2023-06-16_10h01.23.663,phx_ver10,2022.2.5,Win32,59.94485074,,,,,space,0.4008,0,5,5,23,1,24,training,zh2x,e,zh2x_e,zh2x_4_ezhe.wav,,ezhe.jpg,,,,,,,,,,,,,,,,,,,,,,,,,,,,,,,,,
5c069c1566c9ab0001cd8625,2023-06-16_10h01.23.663,phx_ver10,2022.2.5,Win32,59.94485074,,,,,,,,,,,,,attn_test,,,,zh2x_8_exe.wav,zh2x_1_ezhe.wav,exe.jpg,LEFT,,j,4.6824,space,6.9636,0,0,0,0,1,,,,,,,,,,,,,,,,,,,,,,
5c069c1566c9ab0001cd8625,2023-06-16_10h01.23.663,phx_ver10,2022.2.5,Win32,59.94485074,,,,,space,0.9516,0,6,6,25,1,26,training,zh2x,e,zh2x_e,zh2x_6_exe.wav,,exe.jpg,,,,,,,,,,,,,,,,,,,,,,,,,,,,,,,,,
5c069c1566c9ab0001cd8625,2023-06-16_10h01.23.663,phx_ver10,2022.2.5,Win32,59.94485074,,,,,space,0.1065,0,7,7,47,1,48,training,zh2x,i,zh2x_i,zh2x_8_ixi.wav,,ixi.jpg,,,,,,,,,,,,,,,,,,,,,,,,,,,,,,,,,
5c069c1566c9ab0001cd8625,2023-06-16_10h01.23.663,phx_ver10,2022.2.5,Win32,59.94485074,,,,,space,0.1347,0,8,8,17,1,18,training,zh2x,e,zh2x_e,zh2x_2_ezhe.wav,,ezhe.jpg,,,,,,,,,,,,,,,,,,,,,,,,,,,,,,,,,
5c069c1566c9ab0001cd8625,2023-06-16_10h01.23.663,phx_ver10,2022.2.5,Win32,59.94485074,,,,,space,0.0676,0,9,9,29,1,30,training,zh2x,e,zh2x_e,zh2x_7_exe.wav,,exe.jpg,,,,,,,,,,,,,,,,,,,,,,,,,,,,,,,,,
5c069c1566c9ab0001cd8625,2023-06-16_10h01.23.663,phx_ver10,2022.2.5,Win32,59.94485074,,,,,space,0.8566,0,10,10,14,1,15,training,zh2x,a,zh2x_a,zh2x_7_axa.wav,,axa.jpg,,,,,,,,,,,,,,,,,,,,,,,,,,,,,,,,,
5c069c1566c9ab0001cd8625,2023-06-16_10h01.23.663,phx_ver10,2022.2.5,Win32,59.94485074,,,,,space,0.6676,0,11,11,20,1,21,training,zh2x,e,zh2x_e,zh2x_2_ezhe.wav,,ezhe.jpg,,,,,,,,,,,,,,,,,,,,,,,,,,,,,,,,,
5c069c1566c9ab0001cd8625,2023-06-16_10h01.23.663,phx_ver10,2022.2.5,Win32,59.94485074,,,,,,,,,,,,,attn_test,,,,zh2x_8_exe.wav,zh2x_8_ixi.wav,exe.jpg,LEFT,,f,0.4995,space,1.6319,0,0,0,0,1,,,,,,,,,,,,,,,,,,,,,,
5c069c1566c9ab0001cd8625,2023-06-16_10h01.23.663,phx_ver10,2022.2.5,Win32,59.94485074,,,,,space,0.1203,0,12,12,38,1,39,training,zh2x,i,zh2x_i,zh2x_3_izhi.wav,,izhi.jpg,,,,,,,,,,,,,,,,,,,,,,,,,,,,,,,,,
5c069c1566c9ab0001cd8625,2023-06-16_10h01.23.663,phx_ver10,2022.2.5,Win32,59.94485074,,,,,space,0.1748,0,13,13,2,1,3,training,zh2x,a,zh2x_a,zh2x_2_azha.wav,,azha.jpg,,,,,,,,,,,,,,,,,,,,,,,,,,,,,,,,,
5c069c1566c9ab0001cd8625,2023-06-16_10h01.23.663,phx_ver10,2022.2.5,Win32,59.94485074,,,,,space,0.6671,0,14,14,7,1,8,training,zh2x,a,zh2x_a,zh2x_4_azha.wav,,azha.jpg,,,,,,,,,,,,,,,,,,,,,,,,,,,,,,,,,
5c069c1566c9ab0001cd8625,2023-06-16_10h01.23.663,phx_ver10,2022.2.5,Win32,59.94485074,,,,,space,0.0189,0,15,15,22,1,23,training,zh2x,e,zh2x_e,zh2x_3_ezhe.wav,,ezhe.jpg,,,,,,,,,,,,,,,,,,,,,,,,,,,,,,,,,
5c069c1566c9ab0001cd8625,2023-06-16_10h01.23.663,phx_ver10,2022.2.5,Win32,59.94485074,,,,,space,0.5676,0,16,16,39,1,40,training,zh2x,i,zh2x_i,zh2x_4_izhi.wav,,izhi.jpg,,,,,,,,,,,,,,,,,,,,,,,,,,,,,,,,,
5c069c1566c9ab0001cd8625,2023-06-16_10h01.23.663,phx_ver10,2022.2.5,Win32,59.94485074,,,,,space,0.1567,0,17,17,41,1,42,training,zh2x,i,zh2x_i,zh2x_6_ixi.wav,,ixi.jpg,,,,,,,,,,,,,,,,,,,,,,,,,,,,,,,,,
5c069c1566c9ab0001cd8625,2023-06-16_10h01.23.663,phx_ver10,2022.2.5,Win32,59.94485074,,,,,,,,,,,,,attn_test,,,,zh2x_1_azha.wav,zh2x_8_axa.wav,azha.jpg,LEFT,,f,0.5548,space,1.3162,0,0,0,0,1,,,,,,,,,,,,,,,,,,,,,,
5c069c1566c9ab0001cd8625,2023-06-16_10h01.23.663,phx_ver10,2022.2.5,Win32,59.94485074,,,,,space,0.1358,0,18,18,9,1,10,training,zh2x,a,zh2x_a,zh2x_6_axa.wav,,axa.jpg,,,,,,,,,,,,,,,,,,,,,,,,,,,,,,,,,
5c069c1566c9ab0001cd8625,2023-06-16_10h01.23.663,phx_ver10,2022.2.5,Win32,59.94485074,,,,,space,0.1334,0,19,19,19,1,20,training,zh2x,e,zh2x_e,zh2x_2_ezhe.wav,,ezhe.jpg,,,,,,,,,,,,,,,,,,,,,,,,,,,,,,,,,
5c069c1566c9ab0001cd8625,2023-06-16_10h01.23.663,phx_ver10,2022.2.5,Win32,59.94485074,,,,,space,0.6343,0,20,20,21,1,22,training,zh2x,e,zh2x_e,zh2x_3_ezhe.wav,,ezhe.jpg,,,,,,,,,,,,,,,,,,,,,,,,,,,,,,,,,
5c069c1566c9ab0001cd8625,2023-06-16_10h01.23.663,phx_ver10,2022.2.5,Win32,59.94485074,,,,,space,0.4844,0,21,21,33,1,34,training,zh2x,i,zh2x_i,zh2x_2_izhi.wav,,izhi.jpg,,,,,,,,,,,,,,,,,,,,,,,,,,,,,,,,,
5c069c1566c9ab0001cd8625,2023-06-16_10h01.23.663,phx_ver10,2022.2.5,Win32,59.94485074,,,,,space,0.405,0,22,22,32,1,33,training,zh2x,i,zh2x_i,zh2x_1_izhi.wav,,izhi.jpg,,,,,,,,,,,,,,,,,,,,,,,,,,,,,,,,,
5c069c1566c9ab0001cd8625,2023-06-16_10h01.23.663,phx_ver10,2022.2.5,Win32,59.94485074,,,,,space,0.0006,0,23,23,12,1,13,training,zh2x,a,zh2x_a,zh2x_7_axa.wav,,axa.jpg,,,,,,,,,,,,,,,,,,,,,,,,,,,,,,,,,
5c069c1566c9ab0001cd8625,2023-06-16_10h01.23.663,phx_ver10,2022.2.5,Win32,59.94485074,,,,,,,,,,,,,attn_test,,,,zh2x_8_ixi.wav,zh2x_1_ezhe.wav,ezhe.jpg,RIGHT,,j,1.648,space,2.6319,0,0,0,0,1,,,,,,,,,,,,,,,,,,,,,,
5c069c1566c9ab0001cd8625,2023-06-16_10h01.23.663,phx_ver10,2022.2.5,Win32,59.94485074,,,,,space,0.7253,0,24,24,34,1,35,training,zh2x,i,zh2x_i,zh2x_2_izhi.wav,,izhi.jpg,,,,,,,,,,,,,,,,,,,,,,,,,,,,,,,,,
5c069c1566c9ab0001cd8625,2023-06-16_10h01.23.663,phx_ver10,2022.2.5,Win32,59.94485074,,,,,space,0.6402,0,25,25,18,1,19,training,zh2x,e,zh2x_e,zh2x_2_ezhe.wav,,ezhe.jpg,,,,,,,,,,,,,,,,,,,,,,,,,,,,,,,,,
5c069c1566c9ab0001cd8625,2023-06-16_10h01.23.663,phx_ver10,2022.2.5,Win32,59.94485074,,,,,space,0.0668,0,26,26,27,1,28,training,zh2x,e,zh2x_e,zh2x_7_exe.wav,,exe.jpg,,,,,,,,,,,,,,,,,,,,,,,,,,,,,,,,,
5c069c1566c9ab0001cd8625,2023-06-16_10h01.23.663,phx_ver10,2022.2.5,Win32,59.94485074,,,,,space,0.6175,0,27,27,45,1,46,training,zh2x,i,zh2x_i,zh2x_7_ixi.wav,,ixi.jpg,,,,,,,,,,,,,,,,,,,,,,,,,,,,,,,,,
5c069c1566c9ab0001cd8625,2023-06-16_10h01.23.663,phx_ver10,2022.2.5,Win32,59.94485074,,,,,space,0.0749,0,28,28,0,1,1,training,zh2x,a,zh2x_a,zh2x_1_azha.wav,,azha.jpg,,,,,,,,,,,,,,,,,,,,,,,,,,,,,,,,,
5c069c1566c9ab0001cd8625,2023-06-16_10h01.23.663,phx_ver10,2022.2.5,Win32,59.94485074,,,,,space,0.0006,0,29,29,35,1,36,training,zh2x,i,zh2x_i,zh2x_2_izhi.wav,,izhi.jpg,,,,,,,,,,,,,,,,,,,,,,,,,,,,,,,,,
5c069c1566c9ab0001cd8625,2023-06-16_10h01.23.663,phx_ver10,2022.2.5,Win32,59.94485074,,,,,,,,,,,,,attn_test,,,,zh2x_1_izhi.wav,zh2x_1_ezhe.wav,izhi.jpg,LEFT,,f,0.4166,space,1.2837,0,0,0,0,1,,,,,,,,,,,,,,,,,,,,,,
5c069c1566c9ab0001cd8625,2023-06-16_10h01.23.663,phx_ver10,2022.2.5,Win32,59.94485074,,,,,space,0.1396,0,30,30,15,1,16,training,zh2x,a,zh2x_a,zh2x_8_axa.wav,,axa.jpg,,,,,,,,,,,,,,,,,,,,,,,,,,,,,,,,,
5c069c1566c9ab0001cd8625,2023-06-16_10h01.23.663,phx_ver10,2022.2.5,Win32,59.94485074,,,,,space,0.0828,0,31,31,1,1,2,training,zh2x,a,zh2x_a,zh2x_2_azha.wav,,azha.jpg,,,,,,,,,,,,,,,,,,,,,,,,,,,,,,,,,
5c069c1566c9ab0001cd8625,2023-06-16_10h01.23.663,phx_ver10,2022.2.5,Win32,59.94485074,,,,,space,0.0339,0,32,32,13,1,14,training,zh2x,a,zh2x_a,zh2x_7_axa.wav,,axa.jpg,,,,,,,,,,,,,,,,,,,,,,,,,,,,,,,,,
5c069c1566c9ab0001cd8625,2023-06-16_10h01.23.663,phx_ver10,2022.2.5,Win32,59.94485074,,,,,space,0.1342,0,33,33,28,1,29,training,zh2x,e,zh2x_e,zh2x_7_exe.wav,,exe.jpg,,,,,,,,,,,,,,,,,,,,,,,,,,,,,,,,,
5c069c1566c9ab0001cd8625,2023-06-16_10h01.23.663,phx_ver10,2022.2.5,Win32,59.94485074,,,,,space,0.0521,0,34,34,11,1,12,training,zh2x,a,zh2x_a,zh2x_7_axa.wav,,axa.jpg,,,,,,,,,,,,,,,,,,,,,,,,,,,,,,,,,
5c069c1566c9ab0001cd8625,2023-06-16_10h01.23.663,phx_ver10,2022.2.5,Win32,59.94485074,,,,,space,0.569,0,35,35,6,1,7,training,zh2x,a,zh2x_a,zh2x_3_azha.wav,,azha.jpg,,,,,,,,,,,,,,,,,,,,,,,,,,,,,,,,,
5c069c1566c9ab0001cd8625,2023-06-16_10h01.23.663,phx_ver10,2022.2.5,Win32,59.94485074,,,,,,,,,,,,,attn_test,,,,zh2x_1_azha.wav,zh2x_8_axa.wav,axa.jpg,RIGHT,,f,0.4537,space,1.6336,0,0,0,0,1,,,,,,,,,,,,,,,,,,,,,,
5c069c1566c9ab0001cd8625,2023-06-16_10h01.23.663,phx_ver10,2022.2.5,Win32,59.94485074,,,,,space,0.0632,0,36,36,5,1,6,training,zh2x,a,zh2x_a,zh2x_3_azha.wav,,azha.jpg,,,,,,,,,,,,,,,,,,,,,,,,,,,,,,,,,
5c069c1566c9ab0001cd8625,2023-06-16_10h01.23.663,phx_ver10,2022.2.5,Win32,59.94485074,,,,,space,0.6675,0,37,37,26,1,27,training,zh2x,e,zh2x_e,zh2x_6_exe.wav,,exe.jpg,,,,,,,,,,,,,,,,,,,,,,,,,,,,,,,,,
5c069c1566c9ab0001cd8625,2023-06-16_10h01.23.663,phx_ver10,2022.2.5,Win32,59.94485074,,,,,space,0.139,0,38,38,8,1,9,training,zh2x,a,zh2x_a,zh2x_5_axa.wav,,axa.jpg,,,,,,,,,,,,,,,,,,,,,,,,,,,,,,,,,
5c069c1566c9ab0001cd8625,2023-06-16_10h01.23.663,phx_ver10,2022.2.5,Win32,59.94485074,,,,,space,0.1103,0,39,39,43,1,44,training,zh2x,i,zh2x_i,zh2x_7_ixi.wav,,ixi.jpg,,,,,,,,,,,,,,,,,,,,,,,,,,,,,,,,,
5c069c1566c9ab0001cd8625,2023-06-16_10h01.23.663,phx_ver10,2022.2.5,Win32,59.94485074,,,,,space,0.7561,0,40,40,46,1,47,training,zh2x,i,zh2x_i,zh2x_7_ixi.wav,,ixi.jpg,,,,,,,,,,,,,,,,,,,,,,,,,,,,,,,,,
5c069c1566c9ab0001cd8625,2023-06-16_10h01.23.663,phx_ver10,2022.2.5,Win32,59.94485074,,,,,space,0.1217,0,41,41,30,1,31,training,zh2x,e,zh2x_e,zh2x_7_exe.wav,,exe.jpg,,,,,,,,,,,,,,,,,,,,,,,,,,,,,,,,,
5c069c1566c9ab0001cd8625,2023-06-16_10h01.23.663,phx_ver10,2022.2.5,Win32,59.94485074,,,,,,,,,,,,,attn_test,,,,zh2x_1_izhi.wav,zh2x_8_exe.wav,exe.jpg,RIGHT,,j,0.1995,space,1.0689,0,0,0,0,1,,,,,,,,,,,,,,,,,,,,,,
5c069c1566c9ab0001cd8625,2023-06-16_10h01.23.663,phx_ver10,2022.2.5,Win32,59.94485074,,,,,space,0.071,0,42,42,16,1,17,training,zh2x,e,zh2x_e,zh2x_1_ezhe.wav,,ezhe.jpg,,,,,,,,,,,,,,,,,,,,,,,,,,,,,,,,,
5c069c1566c9ab0001cd8625,2023-06-16_10h01.23.663,phx_ver10,2022.2.5,Win32,59.94485074,,,,,space,0.0167,0,43,43,4,1,5,training,zh2x,a,zh2x_a,zh2x_2_azha.wav,,azha.jpg,,,,,,,,,,,,,,,,,,,,,,,,,,,,,,,,,
5c069c1566c9ab0001cd8625,2023-06-16_10h01.23.663,phx_ver10,2022.2.5,Win32,59.94485074,,,,,space,0.6675,0,44,44,40,1,41,training,zh2x,i,zh2x_i,zh2x_5_ixi.wav,,ixi.jpg,,,,,,,,,,,,,,,,,,,,,,,,,,,,,,,,,
5c069c1566c9ab0001cd8625,2023-06-16_10h01.23.663,phx_ver10,2022.2.5,Win32,59.94485074,,,,,space,0.1175,0,45,45,44,1,45,training,zh2x,i,zh2x_i,zh2x_7_ixi.wav,,ixi.jpg,,,,,,,,,,,,,,,,,,,,,,,,,,,,,,,,,
5c069c1566c9ab0001cd8625,2023-06-16_10h01.23.663,phx_ver10,2022.2.5,Win32,59.94485074,,,,,space,0.0366,0,46,46,10,1,11,training,zh2x,a,zh2x_a,zh2x_6_axa.wav,,axa.jpg,,,,,,,,,,,,,,,,,,,,,,,,,,,,,,,,,
5c069c1566c9ab0001cd8625,2023-06-16_10h01.23.663,phx_ver10,2022.2.5,Win32,59.94485074,,,,,space,0.5052,0,47,47,37,1,38,training,zh2x,i,zh2x_i,zh2x_3_izhi.wav,,izhi.jpg,,,,,,,,,,,,,,,,,,,,,,,,,,,,,,,,,
5c069c1566c9ab0001cd8625,2023-06-16_10h01.23.663,phx_ver10,2022.2.5,Win32,59.94485074,,,,,,,,,,,,,attn_test,,,,zh2x_1_izhi.wav,zh2x_8_exe.wav,izhi.jpg,LEFT,,f,0.3005,space,0.984,,,,,,,,,,,,,,,,,,,,,,,,,,,
5c069c1566c9ab0001cd8625,2023-06-16_10h01.23.663,phx_ver10,2022.2.5,Win32,59.94485074,,,,,,,,,,,,,,,,,,,,,,,,,,,,,,,space,0.8484,,,,,,,,,,,,,,,,,,,,
5c069c1566c9ab0001cd8625,2023-06-16_10h01.23.663,phx_ver10,2022.2.5,Win32,59.94485074,,,,,,,,,,,,,,,,,,,,,,,,,,,,,,,,,space,4.6159,,,,,,,,,,,,,,,,,,
5c069c1566c9ab0001cd8625,2023-06-16_10h01.23.663,phx_ver10,2022.2.5,Win32,59.94485074,,,,,,,,,,,,4,testing_pre,,,,eihei.wav,eihei.wav,,TRUE,,,,,,,,,,,,,,,f,1.7133,space,3.0797,0,0,0,3,1,,,,,,,,,
5c069c1566c9ab0001cd8625,2023-06-16_10h01.23.663,phx_ver10,2022.2.5,Win32,59.94485074,,,,,,,,,,,,5,testing_pre,,,,ihi.wav,ifi.wav,,FALSE,,,,,,,,,,,,,,,j,1.5843,space,2.7338,0,1,1,4,1,,,,,,,,,
5c069c1566c9ab0001cd8625,2023-06-16_10h01.23.663,phx_ver10,2022.2.5,Win32,59.94485074,,,,,,,,,,,,2,testing_pre,,,,auhau.wav,aufau.wav,,FALSE,,,,,,,,,,,,,,,j,1.2155,space,3.4023,0,2,2,1,1,,,,,,,,,
5c069c1566c9ab0001cd8625,2023-06-16_10h01.23.663,phx_ver10,2022.2.5,Win32,59.94485074,,,,,,,,,,,,1,testing_pre,,,,ifi.wav,ifi.wav,,TRUE,,,,,,,,,,,,,,,f,0.889,space,2.8339,0,3,3,0,1,,,,,,,,,
5c069c1566c9ab0001cd8625,2023-06-16_10h01.23.663,phx_ver10,2022.2.5,Win32,59.94485074,,,,,,,,,,,,3,testing_pre,,,,afa.wav,aha.wav,,FALSE,,,,,,,,,,,,,,,j,0.6568,space,1.3894,0,4,4,2,1,,,,,,,,,
5c069c1566c9ab0001cd8625,2023-06-16_10h01.23.663,phx_ver10,2022.2.5,Win32,59.94485074,,,,,,,,,,,,,,,,,,,,,,,,,,,,,,,,,,,,,,,,,,,,space,1.1641,,,,,,,
5c069c1566c9ab0001cd8625,2023-06-16_10h01.23.663,phx_ver10,2022.2.5,Win32,59.94485074,,,,,,,,,,,,134,testing_3,sh2j,e,sh2j_e,sh2j_8_eje.wav,sh2j_8_eje.wav,,TRUE,FALSE,,,,,,,,,,,,,,f,0.9249,space,1.6211,,,,,,,,0,0,0,133,1,,
5c069c1566c9ab0001cd8625,2023-06-16_10h01.23.663,phx_ver10,2022.2.5,Win32,59.94485074,,,,,,,,,,,,122,testing_3,sh2j,a,sh2j_a,sh2j_8_aja.wav,sh2j_8_aja.wav,,TRUE,FALSE,,,,,,,,,,,,,,f,0.2207,space,0.6007,,,,,,,,0,1,1,121,1,,
5c069c1566c9ab0001cd8625,2023-06-16_10h01.23.663,phx_ver10,2022.2.5,Win32,59.94485074,,,,,,,,,,,,29,testing_3,zh2sh,ai,zh2sh_ai,zh2sh_1_aizhai.wav,zh2sh_1_aizhai.wav,,TRUE,FALSE,,,,,,,,,,,,,,f,0.2841,space,0.6339,,,,,,,,0,2,2,28,1,,
5c069c1566c9ab0001cd8625,2023-06-16_10h01.23.663,phx_ver10,2022.2.5,Win32,59.94485074,,,,,,,,,,,,57,testing_3,zh2j,au,zh2j_au,zh2j_1_auzhau.wav,zh2j_1_auzhau.wav,,TRUE,FALSE,,,,,,,,,,,,,,f,0.2988,space,0.6985,,,,,,,,0,3,3,56,1,,
5c069c1566c9ab0001cd8625,2023-06-16_10h01.23.663,phx_ver10,2022.2.5,Win32,59.94485074,,,,,,,,,,,,12,testing_1,zh2x,i,zh2x_i,zh2x_8_ixi.wav,zh2x_1_izhi.wav,,FALSE,TRUE,,,,,,,,,,,,,,j,0.4041,space,0.836,,,,,,,,0,4,4,11,1,,
5c069c1566c9ab0001cd8625,2023-06-16_10h01.23.663,phx_ver10,2022.2.5,Win32,59.94485074,,,,,,,,,,,,26,testing_3,zh2sh,a,zh2sh_a,zh2sh_8_asha.wav,zh2sh_8_asha.wav,,TRUE,FALSE,,,,,,,,,,,,,,f,0.0346,space,0.4007,,,,,,,,0,5,5,25,1,,
5c069c1566c9ab0001cd8625,2023-06-16_10h01.23.663,phx_ver10,2022.2.5,Win32,59.94485074,,,,,,,,,,,,20,testing_2,zh2x,au,zh2x_au,zh2x_8_auxau.wav,zh2x_1_auzhau.wav,,FALSE,FALSE,,,,,,,,,,,,,,j,0.316,space,0.6821,,,,,,,,0,6,6,19,1,,
5c069c1566c9ab0001cd8625,2023-06-16_10h01.23.663,phx_ver10,2022.2.5,Win32,59.94485074,,,,,,,,,,,,92,testing_3,j2x,ei,j2x_ei,j2x_8_eixei.wav,j2x_1_eijei.wav,,FALSE,FALSE,,,,,,,,,,,,,,j,0.4738,space,0.8522,,,,,,,,0,7,7,91,1,,
5c069c1566c9ab0001cd8625,2023-06-16_10h01.23.663,phx_ver10,2022.2.5,Win32,59.94485074,,,,,,,,,,,,89,testing_3,j2x,ei,j2x_ei,j2x_1_eijei.wav,j2x_1_eijei.wav,,TRUE,FALSE,,,,,,,,,,,,,,f,0.2869,space,0.625,,,,,,,,0,8,8,88,1,,
5c069c1566c9ab0001cd8625,2023-06-16_10h01.23.663,phx_ver10,2022.2.5,Win32,59.94485074,,,,,,,,,,,,46,testing_3,zh2sh,i,zh2sh_i,zh2sh_8_ishi.wav,zh2sh_8_ishi.wav,,TRUE,FALSE,,,,,,,,,,,,,,f,0.0511,space,0.4355,,,,,,,,0,9,9,45,1,,
5c069c1566c9ab0001cd8625,2023-06-16_10h01.23.663,phx_ver10,2022.2.5,Win32,59.94485074,,,,,,,,,,,,99,testing_3,sh2x,a,sh2x_a,sh2x_1_asha.wav,sh2x_8_axa.wav,,FALSE,FALSE,,,,,,,,,,,,,,j,0.1686,space,0.5004,,,,,,,,0,10,10,98,1,,
5c069c1566c9ab0001cd8625,2023-06-16_10h01.23.663,phx_ver10,2022.2.5,Win32,59.94485074,,,,,,,,,,,,111,testing_3,sh2x,e,sh2x_e,sh2x_1_eshe.wav,sh2x_8_exe.wav,,FALSE,FALSE,,,,,,,,,,,,,,j,0.1508,space,0.4505,,,,,,,,0,11,11,110,1,,
5c069c1566c9ab0001cd8625,2023-06-16_10h01.23.663,phx_ver10,2022.2.5,Win32,59.94485074,,,,,,,,,,,,88,testing_3,j2x,e,j2x_e,j2x_8_exe.wav,j2x_1_eje.wav,,FALSE,FALSE,,,,,,,,,,,,,,j,0.485,space,0.768,,,,,,,,0,12,12,87,1,,
5c069c1566c9ab0001cd8625,2023-06-16_10h01.23.663,phx_ver10,2022.2.5,Win32,59.94485074,,,,,,,,,,,,118,testing_3,sh2x,i,sh2x_i,sh2x_8_ixi.wav,sh2x_8_ixi.wav,,TRUE,FALSE,,,,,,,,,,,,,,f,0.0675,space,0.4012,,,,,,,,0,13,13,117,1,,
5c069c1566c9ab0001cd8625,2023-06-16_10h01.23.663,phx_ver10,2022.2.5,Win32,59.94485074,,,,,,,,,,,,52,testing_3,zh2j,a,zh2j_a,zh2j_8_aja.wav,zh2j_1_azha.wav,,FALSE,FALSE,,,,,,,,,,,,,,j,0.1535,space,0.4742,,,,,,,,0,14,14,51,1,,
5c069c1566c9ab0001cd8625,2023-06-16_10h01.23.663,phx_ver10,2022.2.5,Win32,59.94485074,,,,,,,,,,,,77,testing_3,j2x,ai,j2x_ai,j2x_1_aijai.wav,j2x_1_aijai.wav,,TRUE,FALSE,,,,,,,,,,,,,,f,1.1501,space,1.518,,,,,,,,0,15,15,76,1,,
5c069c1566c9ab0001cd8625,2023-06-16_10h01.23.663,phx_ver10,2022.2.5,Win32,59.94485074,,,,,,,,,,,,1,testing_1,zh2x,a,zh2x_a,zh2x_1_azha.wav,zh2x_1_azha_copy.wav,,TRUE,TRUE,,,,,,,,,,,,,,f,0.6669,space,1.4196,,,,,,,,0,16,16,0,1,,
5c069c1566c9ab0001cd8625,2023-06-16_10h01.23.663,phx_ver10,2022.2.5,Win32,59.94485074,,,,,,,,,,,,98,testing_3,sh2x,a,sh2x_a,sh2x_8_axa.wav,sh2x_8_axa.wav,,TRUE,FALSE,,,,,,,,,,,,,,j,1.4359,space,1.7864,,,,,,,,0,17,17,97,1,,
5c069c1566c9ab0001cd8625,2023-06-16_10h01.23.663,phx_ver10,2022.2.5,Win32,59.94485074,,,,,,,,,,,,123,testing_3,sh2j,a,sh2j_a,sh2j_1_asha.wav,sh2j_8_aja.wav,,FALSE,FALSE,,,,,,,,,,,,,,j,0.4512,space,0.9335,,,,,,,,0,18,18,122,1,,
5c069c1566c9ab0001cd8625,2023-06-16_10h01.23.663,phx_ver10,2022.2.5,Win32,59.94485074,,,,,,,,,,,,2,testing_1,zh2x,a,zh2x_a,zh2x_8_axa.wav,zh2x_8_axa_copy.wav,,TRUE,TRUE,,,,,,,,,,,,,,f,0.4512,space,0.8498,,,,,,,,0,19,19,1,1,,
5c069c1566c9ab0001cd8625,2023-06-16_10h01.23.663,phx_ver10,2022.2.5,Win32,59.94485074,,,,,,,,,,,,140,testing_3,sh2j,ei,sh2j_ei,sh2j_8_eijei.wav,sh2j_1_eishei.wav,,FALSE,FALSE,,,,,,,,,,,,,,j,0.1168,space,0.5706,,,,,,,,0,20,20,139,1,,
5c069c1566c9ab0001cd8625,2023-06-16_10h01.23.663,phx_ver10,2022.2.5,Win32,59.94485074,,,,,,,,,,,,119,testing_3,sh2x,i,sh2x_i,sh2x_1_ishi.wav,sh2x_8_ixi.wav,,FALSE,FALSE,,,,,,,,,,,,,,j,0.5512,space,0.9839,,,,,,,,0,21,21,118,1,,
5c069c1566c9ab0001cd8625,2023-06-16_10h01.23.663,phx_ver10,2022.2.5,Win32,59.94485074,,,,,,,,,,,,112,testing_3,sh2x,e,sh2x_e,sh2x_8_exe.wav,sh2x_1_eshe.wav,,FALSE,FALSE,,,,,,,,,,,,,,j,0.4541,space,0.8571,,,,,,,,0,22,22,111,1,,
5c069c1566c9ab0001cd8625,2023-06-16_10h01.23.663,phx_ver10,2022.2.5,Win32,59.94485074,,,,,,,,,,,,36,testing_3,zh2sh,au,zh2sh_au,zh2sh_8_aushau.wav,zh2sh_1_auzhau.wav,,FALSE,FALSE,,,,,,,,,,,,,,j,0.017,space,0.5719,,,,,,,,0,23,23,35,1,,
5c069c1566c9ab0001cd8625,2023-06-16_10h01.23.663,phx_ver10,2022.2.5,Win32,59.94485074,,,,,,,,,,,,139,testing_3,sh2j,ei,sh2j_ei,sh2j_1_eishei.wav,sh2j_8_eijei.wav,,FALSE,FALSE,,,,,,,,,,,,,,j,0.6519,space,1.1349,,,,,,,,0,24,24,138,1,,
5c069c1566c9ab0001cd8625,2023-06-16_10h01.23.663,phx_ver10,2022.2.5,Win32,59.94485074,,,,,,,,,,,,126,testing_3,sh2j,ai,sh2j_ai,sh2j_8_aijai.wav,sh2j_8_aijai.wav,,TRUE,FALSE,,,,,,,,,,,,,,f,0.4019,space,0.7845,,,,,,,,0,25,25,125,1,,
5c069c1566c9ab0001cd8625,2023-06-16_10h01.23.663,phx_ver10,2022.2.5,Win32,59.94485074,,,,,,,,,,,,87,testing_3,j2x,e,j2x_e,j2x_1_eje.wav,j2x_8_exe.wav,,FALSE,FALSE,,,,,,,,,,,,,,j,0.152,space,0.6394,,,,,,,,0,26,26,86,1,,
5c069c1566c9ab0001cd8625,2023-06-16_10h01.23.663,phx_ver10,2022.2.5,Win32,59.94485074,,,,,,,,,,,,53,testing_3,zh2j,ai,zh2j_ai,zh2j_1_aizhai.wav,zh2j_1_aizhai.wav,,TRUE,FALSE,,,,,,,,,,,,,,f,0.6845,space,1.0665,,,,,,,,0,27,27,52,1,,
5c069c1566c9ab0001cd8625,2023-06-16_10h01.23.663,phx_ver10,2022.2.5,Win32,59.94485074,,,,,,,,,,,,60,testing_3,zh2j,au,zh2j_au,zh2j_8_aujau.wav,zh2j_1_auzhau.wav,,FALSE,FALSE,,,,,,,,,,,,,,j,0.2671,space,0.751,,,,,,,,0,28,28,59,1,,
5c069c1566c9ab0001cd8625,2023-06-16_10h01.23.663,phx_ver10,2022.2.5,Win32,59.94485074,,,,,,,,,,,,7,testing_1,zh2x,e,zh2x_e,zh2x_1_ezhe.wav,zh2x_8_exe.wav,,FALSE,TRUE,,,,,,,,,,,,,,j,0.9337,space,1.3507,,,,,,,,0,29,29,6,1,,
5c069c1566c9ab0001cd8625,2023-06-16_10h01.23.663,phx_ver10,2022.2.5,Win32,59.94485074,,,,,,,,,,,,19,testing_2,zh2x,au,zh2x_au,zh2x_1_auzhau.wav,zh2x_8_auxau.wav,,FALSE,FALSE,,,,,,,,,,,,,,j,0.1176,space,0.6175,,,,,,,,0,30,30,18,1,,
5c069c1566c9ab0001cd8625,2023-06-16_10h01.23.663,phx_ver10,2022.2.5,Win32,59.94485074,,,,,,,,,,,,11,testing_1,zh2x,i,zh2x_i,zh2x_1_izhi.wav,zh2x_8_ixi.wav,,FALSE,TRUE,,,,,,,,,,,,,,j,0.0006,space,0.5172,,,,,,,,0,31,31,10,1,,
5c069c1566c9ab0001cd8625,2023-06-16_10h01.23.663,phx_ver10,2022.2.5,Win32,59.94485074,,,,,,,,,,,,90,testing_3,j2x,ei,j2x_ei,j2x_8_eixei.wav,j2x_8_eixei.wav,,TRUE,FALSE,,,,,,,,,,,,,,f,0.4507,space,0.851,,,,,,,,0,32,32,89,1,,
5c069c1566c9ab0001cd8625,2023-06-16_10h01.23.663,phx_ver10,2022.2.5,Win32,59.94485074,,,,,,,,,,,,45,testing_3,zh2sh,i,zh2sh_i,zh2sh_1_izhi.wav,zh2sh_1_izhi.wav,,TRUE,FALSE,,,,,,,,,,,,,,f,0.2339,space,0.6665,,,,,,,,0,33,33,44,1,,
5c069c1566c9ab0001cd8625,2023-06-16_10h01.23.663,phx_ver10,2022.2.5,Win32,59.94485074,,,,,,,,,,,,84,testing_3,j2x,au,j2x_au,j2x_8_auxau.wav,j2x_1_aujau.wav,,FALSE,FALSE,,,,,,,,,,,,,,j,0.0506,space,0.551,,,,,,,,0,34,34,83,1,,
5c069c1566c9ab0001cd8625,2023-06-16_10h01.23.663,phx_ver10,2022.2.5,Win32,59.94485074,,,,,,,,,,,,14,testing_2,zh2x,ai,zh2x_ai,zh2x_8_aixai.wav,zh2x_8_aixai.wav,,TRUE,FALSE,,,,,,,,,,,,,,f,0.2512,space,0.6848,,,,,,,,0,35,35,13,1,,
5c069c1566c9ab0001cd8625,2023-06-16_10h01.23.663,phx_ver10,2022.2.5,Win32,59.94485074,,,,,,,,,,,,76,testing_3,j2x,a,j2x_a,j2x_8_axa.wav,j2x_1_aja.wav,,FALSE,FALSE,,,,,,,,,,,,,,j,0.1177,space,0.5673,,,,,,,,0,36,36,75,1,,
5c069c1566c9ab0001cd8625,2023-06-16_10h01.23.663,phx_ver10,2022.2.5,Win32,59.94485074,,,,,,,,,,,,64,testing_3,zh2j,e,zh2j_e,zh2j_8_eje.wav,zh2j_1_ezhe.wav,,FALSE,FALSE,,,,,,,,,,,,,,j,0.4005,space,0.851,,,,,,,,0,37,37,63,1,,
5c069c1566c9ab0001cd8625,2023-06-16_10h01.23.663,phx_ver10,2022.2.5,Win32,59.94485074,,,,,,,,,,,,96,testing_3,j2x,i,j2x_i,j2x_8_ixi.wav,j2x_1_iji.wav,,FALSE,FALSE,,,,,,,,,,,,,,j,0.3173,space,0.7532,,,,,,,,0,38,38,95,1,,
5c069c1566c9ab0001cd8625,2023-06-16_10h01.23.663,phx_ver10,2022.2.5,Win32,59.94485074,,,,,,,,,,,,127,testing_3,sh2j,ai,sh2j_ai,sh2j_1_aishai.wav,sh2j_8_aijai.wav,,FALSE,FALSE,,,,,,,,,,,,,,j,0.0506,space,0.4903,,,,,,,,0,39,39,126,1,,
5c069c1566c9ab0001cd8625,2023-06-16_10h01.23.663,phx_ver10,2022.2.5,Win32,59.94485074,,,,,,,,,,,,9,testing_1,zh2x,i,zh2x_i,zh2x_1_izhi.wav,zh2x_1_izhi_copy.wav,,TRUE,TRUE,,,,,,,,,,,,,,f,0.2256,space,0.6169,,,,,,,,0,40,40,8,1,,
5c069c1566c9ab0001cd8625,2023-06-16_10h01.23.663,phx_ver10,2022.2.5,Win32,59.94485074,,,,,,,,,,,,22,testing_2,zh2x,ei,zh2x_ei,zh2x_8_eixei.wav,zh2x_8_eixei.wav,,TRUE,FALSE,,,,,,,,,,,,,,f,0.1045,space,0.4874,,,,,,,,0,41,41,21,1,,
5c069c1566c9ab0001cd8625,2023-06-16_10h01.23.663,phx_ver10,2022.2.5,Win32,59.94485074,,,,,,,,,,,,62,testing_3,zh2j,e,zh2j_e,zh2j_8_eje.wav,zh2j_8_eje.wav,,TRUE,FALSE,,,,,,,,,,,,,,f,0.4038,space,0.8183,,,,,,,,0,42,42,61,1,,
5c069c1566c9ab0001cd8625,2023-06-16_10h01.23.663,phx_ver10,2022.2.5,Win32,59.94485074,,,,,,,,,,,,48,testing_3,zh2sh,i,zh2sh_i,zh2sh_8_ishi.wav,zh2sh_1_izhi.wav,,FALSE,FALSE,,,,,,,,,,,,,,j,0.5579,space,1.0835,,,,,,,,0,43,43,47,1,,
5c069c1566c9ab0001cd8625,2023-06-16_10h01.23.663,phx_ver10,2022.2.5,Win32,59.94485074,,,,,,,,,,,,114,testing_3,sh2x,ei,sh2x_ei,sh2x_8_eixei.wav,sh2x_8_eixei.wav,,TRUE,FALSE,,,,,,,,,,,,,,f,0.3395,space,0.8335,,,,,,,,0,44,44,113,1,,
5c069c1566c9ab0001cd8625,2023-06-16_10h01.23.663,phx_ver10,2022.2.5,Win32,59.94485074,,,,,,,,,,,,50,testing_3,zh2j,a,zh2j_a,zh2j_8_aja.wav,zh2j_8_aja.wav,,TRUE,FALSE,,,,,,,,,,,,,,f,0.0567,space,0.5226,,,,,,,,0,45,45,49,1,,
5c069c1566c9ab0001cd8625,2023-06-16_10h01.23.663,phx_ver10,2022.2.5,Win32,59.94485074,,,,,,,,,,,,25,testing_3,zh2sh,a,zh2sh_a,zh2sh_1_azha.wav,zh2sh_1_azha.wav,,TRUE,FALSE,,,,,,,,,,,,,,f,0.1344,space,0.5827,,,,,,,,0,46,46,24,1,,
5c069c1566c9ab0001cd8625,2023-06-16_10h01.23.663,phx_ver10,2022.2.5,Win32,59.94485074,,,,,,,,,,,,61,testing_3,zh2j,e,zh2j_e,zh2j_1_ezhe.wav,zh2j_1_ezhe.wav,,TRUE,FALSE,,,,,,,,,,,,,,f,0.0182,space,0.4933,,,,,,,,0,47,47,60,1,,
5c069c1566c9ab0001cd8625,2023-06-16_10h01.23.663,phx_ver10,2022.2.5,Win32,59.94485074,,,,,,,,,,,,40,testing_3,zh2sh,e,zh2sh_e,zh2sh_8_eshe.wav,zh2sh_1_ezhe.wav,,FALSE,FALSE,,,,,,,,,,,,,,j,0.185,space,0.5994,,,,,,,,0,48,48,39,1,,
5c069c1566c9ab0001cd8625,2023-06-16_10h01.23.663,phx_ver10,2022.2.5,Win32,59.94485074,,,,,,,,,,,,131,testing_3,sh2j,au,sh2j_au,sh2j_1_aushau.wav,sh2j_8_aujau.wav,,FALSE,FALSE,,,,,,,,,,,,,,j,0.1173,space,0.5473,,,,,,,,0,49,49,130,1,,
5c069c1566c9ab0001cd8625,2023-06-16_10h01.23.663,phx_ver10,2022.2.5,Win32,59.94485074,,,,,,,,,,,,35,testing_3,zh2sh,au,zh2sh_au,zh2sh_1_auzhau.wav,zh2sh_8_aushau.wav,,FALSE,FALSE,,,,,,,,,,,,,,j,0.215,space,0.6256,,,,,,,,0,50,50,34,1,,
5c069c1566c9ab0001cd8625,2023-06-16_10h01.23.663,phx_ver10,2022.2.5,Win32,59.94485074,,,,,,,,,,,,142,testing_3,sh2j,i,sh2j_i,sh2j_8_iji.wav,sh2j_8_iji.wav,,TRUE,FALSE,,,,,,,,,,,,,,f,0.0667,space,0.5172,,,,,,,,0,51,51,141,1,,
5c069c1566c9ab0001cd8625,2023-06-16_10h01.23.663,phx_ver10,2022.2.5,Win32,59.94485074,,,,,,,,,,,,43,testing_3,zh2sh,ei,zh2sh_ei,zh2sh_1_eizhei.wav,zh2sh_8_eishei.wav,,FALSE,FALSE,,,,,,,,,,,,,,j,0.4005,space,0.7889,,,,,,,,0,52,52,42,1,,
5c069c1566c9ab0001cd8625,2023-06-16_10h01.23.663,phx_ver10,2022.2.5,Win32,59.94485074,,,,,,,,,,,,132,testing_3,sh2j,au,sh2j_au,sh2j_8_aujau.wav,sh2j_1_aushau.wav,,FALSE,FALSE,,,,,,,,,,,,,,j,0.4186,space,0.8548,,,,,,,,0,53,53,131,1,,
5c069c1566c9ab0001cd8625,2023-06-16_10h01.23.663,phx_ver10,2022.2.5,Win32,59.94485074,,,,,,,,,,,,8,testing_1,zh2x,e,zh2x_e,zh2x_8_exe.wav,zh2x_1_ezhe.wav,,FALSE,TRUE,,,,,,,,,,,,,,j,0.2562,space,0.7004,,,,,,,,0,54,54,7,1,,
5c069c1566c9ab0001cd8625,2023-06-16_10h01.23.663,phx_ver10,2022.2.5,Win32,59.94485074,,,,,,,,,,,,71,testing_3,zh2j,i,zh2j_i,zh2j_1_izhi.wav,zh2j_8_iji.wav,,FALSE,FALSE,,,,,,,,,,,,,,j,0.1041,space,0.5843,,,,,,,,0,55,55,70,1,,
5c069c1566c9ab0001cd8625,2023-06-16_10h01.23.663,phx_ver10,2022.2.5,Win32,59.94485074,,,,,,,,,,,,16,testing_2,zh2x,ai,zh2x_ai,zh2x_8_aixai.wav,zh2x_1_aizhai.wav,,FALSE,FALSE,,,,,,,,,,,,,,j,0.4026,space,0.8335,,,,,,,,0,56,56,15,1,,
5c069c1566c9ab0001cd8625,2023-06-16_10h01.23.663,phx_ver10,2022.2.5,Win32,59.94485074,,,,,,,,,,,,33,testing_3,zh2sh,au,zh2sh_au,zh2sh_1_auzhau.wav,zh2sh_1_auzhau.wav,,TRUE,FALSE,,,,,,,,,,,,,,f,0.4008,space,0.7853,,,,,,,,0,57,57,32,1,,
5c069c1566c9ab0001cd8625,2023-06-16_10h01.23.663,phx_ver10,2022.2.5,Win32,59.94485074,,,,,,,,,,,,80,testing_3,j2x,ai,j2x_ai,j2x_8_aixai.wav,j2x_1_aijai.wav,,FALSE,FALSE,,,,,,,,,,,,,,j,0.4198,space,0.8739,,,,,,,,0,58,58,79,1,,
5c069c1566c9ab0001cd8625,2023-06-16_10h01.23.663,phx_ver10,2022.2.5,Win32,59.94485074,,,,,,,,,,,,107,testing_3,sh2x,au,sh2x_au,sh2x_1_aushau.wav,sh2x_8_auxau.wav,,FALSE,FALSE,,,,,,,,,,,,,,j,0.0177,space,0.4022,,,,,,,,0,59,59,106,1,,
5c069c1566c9ab0001cd8625,2023-06-16_10h01.23.663,phx_ver10,2022.2.5,Win32,59.94485074,,,,,,,,,,,,108,testing_3,sh2x,au,sh2x_au,sh2x_8_auxau.wav,sh2x_1_aushau.wav,,FALSE,FALSE,,,,,,,,,,,,,,j,0.2069,space,0.6679,,,,,,,,0,60,60,107,1,,
5c069c1566c9ab0001cd8625,2023-06-16_10h01.23.663,phx_ver10,2022.2.5,Win32,59.94485074,,,,,,,,,,,,34,testing_3,zh2sh,au,zh2sh_au,zh2sh_8_aushau.wav,zh2sh_8_aushau.wav,,TRUE,FALSE,,,,,,,,,,,,,,f,0.0083,space,0.4548,,,,,,,,0,61,61,33,1,,
5c069c1566c9ab0001cd8625,2023-06-16_10h01.23.663,phx_ver10,2022.2.5,Win32,59.94485074,,,,,,,,,,,,42,testing_3,zh2sh,ei,zh2sh_ei,zh2sh_8_eishei.wav,zh2sh_8_eishei.wav,,TRUE,FALSE,,,,,,,,,,,,,,f,0.4341,space,0.8683,,,,,,,,0,62,62,41,1,,
5c069c1566c9ab0001cd8625,2023-06-16_10h01.23.663,phx_ver10,2022.2.5,Win32,59.94485074,,,,,,,,,,,,93,testing_3,j2x,i,j2x_i,j2x_1_iji.wav,j2x_1_iji.wav,,TRUE,FALSE,,,,,,,,,,,,,,f,0.5184,space,0.9508,,,,,,,,0,63,63,92,1,,
5c069c1566c9ab0001cd8625,2023-06-16_10h01.23.663,phx_ver10,2022.2.5,Win32,59.94485074,,,,,,,,,,,,144,testing_3,sh2j,i,sh2j_i,sh2j_8_iji.wav,sh2j_1_ishi.wav,,FALSE,FALSE,,,,,,,,,,,,,,j,0.3343,space,0.8031,,,,,,,,0,64,64,143,1,,
5c069c1566c9ab0001cd8625,2023-06-16_10h01.23.663,phx_ver10,2022.2.5,Win32,59.94485074,,,,,,,,,,,,31,testing_3,zh2sh,ai,zh2sh_ai,zh2sh_1_aizhai.wav,zh2sh_8_aishai.wav,,FALSE,FALSE,,,,,,,,,,,,,,j,0.3675,space,0.8998,,,,,,,,0,65,65,30,1,,
5c069c1566c9ab0001cd8625,2023-06-16_10h01.23.663,phx_ver10,2022.2.5,Win32,59.94485074,,,,,,,,,,,,130,testing_3,sh2j,au,sh2j_au,sh2j_8_aujau.wav,sh2j_8_aujau.wav,,TRUE,FALSE,,,,,,,,,,,,,,f,0.1675,space,0.6174,,,,,,,,0,66,66,129,1,,
5c069c1566c9ab0001cd8625,2023-06-16_10h01.23.663,phx_ver10,2022.2.5,Win32,59.94485074,,,,,,,,,,,,95,testing_3,j2x,i,j2x_i,j2x_1_iji.wav,j2x_8_ixi.wav,,FALSE,FALSE,,,,,,,,,,,,,,j,0.4175,space,0.8176,,,,,,,,0,67,67,94,1,,
5c069c1566c9ab0001cd8625,2023-06-16_10h01.23.663,phx_ver10,2022.2.5,Win32,59.94485074,,,,,,,,,,,,28,testing_3,zh2sh,a,zh2sh_a,zh2sh_8_asha.wav,zh2sh_1_azha.wav,,FALSE,FALSE,,,,,,,,,,,,,,j,0.4378,space,0.8541,,,,,,,,0,68,68,27,1,,
5c069c1566c9ab0001cd8625,2023-06-16_10h01.23.663,phx_ver10,2022.2.5,Win32,59.94485074,,,,,,,,,,,,86,testing_3,j2x,e,j2x_e,j2x_8_exe.wav,j2x_8_exe.wav,,TRUE,FALSE,,,,,,,,,,,,,,f,0.2055,space,0.6543,,,,,,,,0,69,69,85,1,,
5c069c1566c9ab0001cd8625,2023-06-16_10h01.23.663,phx_ver10,2022.2.5,Win32,59.94485074,,,,,,,,,,,,17,testing_2,zh2x,au,zh2x_au,zh2x_1_auzhau.wav,zh2x_1_auzhau.wav,,TRUE,FALSE,,,,,,,,,,,,,,f,0.2849,space,0.7853,,,,,,,,0,70,70,16,1,,
5c069c1566c9ab0001cd8625,2023-06-16_10h01.23.663,phx_ver10,2022.2.5,Win32,59.94485074,,,,,,,,,,,,24,testing_2,zh2x,ei,zh2x_ei,zh2x_8_eixei.wav,zh2x_1_eizhei.wav,,FALSE,FALSE,,,,,,,,,,,,,,j,0.1682,space,0.6846,,,,,,,,0,71,71,23,1,,
5c069c1566c9ab0001cd8625,2023-06-16_10h01.23.663,phx_ver10,2022.2.5,Win32,59.94485074,,,,,,,,,,,,41,testing_3,zh2sh,ei,zh2sh_ei,zh2sh_1_eizhei.wav,zh2sh_1_eizhei.wav,,TRUE,FALSE,,,,,,,,,,,,,,f,0.5177,space,1.0006,,,,,,,,0,72,72,40,1,,
5c069c1566c9ab0001cd8625,2023-06-16_10h01.23.663,phx_ver10,2022.2.5,Win32,59.94485074,,,,,,,,,,,,15,testing_2,zh2x,ai,zh2x_ai,zh2x_1_aizhai.wav,zh2x_8_aixai.wav,,FALSE,FALSE,,,,,,,,,,,,,,j,0.6675,space,1.4173,,,,,,,,0,73,73,14,1,,
5c069c1566c9ab0001cd8625,2023-06-16_10h01.23.663,phx_ver10,2022.2.5,Win32,59.94485074,,,,,,,,,,,,106,testing_3,sh2x,au,sh2x_au,sh2x_8_auxau.wav,sh2x_8_auxau.wav,,TRUE,FALSE,,,,,,,,,,,,,,f,0.0008,space,0.485,,,,,,,,0,74,74,105,1,,
5c069c1566c9ab0001cd8625,2023-06-16_10h01.23.663,phx_ver10,2022.2.5,Win32,59.94485074,,,,,,,,,,,,59,testing_3,zh2j,au,zh2j_au,zh2j_1_auzhau.wav,zh2j_8_aujau.wav,,FALSE,FALSE,,,,,,,,,,,,,,j,0.0319,space,0.5007,,,,,,,,0,75,75,58,1,,
5c069c1566c9ab0001cd8625,2023-06-16_10h01.23.663,phx_ver10,2022.2.5,Win32,59.94485074,,,,,,,,,,,,65,testing_3,zh2j,ei,zh2j_ei,zh2j_1_eizhei.wav,zh2j_1_eizhei.wav,,TRUE,FALSE,,,,,,,,,,,,,,f,0.1394,space,0.5845,,,,,,,,0,76,76,64,1,,
5c069c1566c9ab0001cd8625,2023-06-16_10h01.23.663,phx_ver10,2022.2.5,Win32,59.94485074,,,,,,,,,,,,104,testing_3,sh2x,ai,sh2x_ai,sh2x_8_aixai.wav,sh2x_1_aishai.wav,,FALSE,FALSE,,,,,,,,,,,,,,j,0.1176,space,0.5832,,,,,,,,0,77,77,103,1,,
5c069c1566c9ab0001cd8625,2023-06-16_10h01.23.663,phx_ver10,2022.2.5,Win32,59.94485074,,,,,,,,,,,,73,testing_3,j2x,a,j2x_a,j2x_1_aja.wav,j2x_1_aja.wav,,TRUE,FALSE,,,,,,,,,,,,,,f,0.2006,space,0.6674,,,,,,,,0,78,78,72,1,,
5c069c1566c9ab0001cd8625,2023-06-16_10h01.23.663,phx_ver10,2022.2.5,Win32,59.94485074,,,,,,,,,,,,13,testing_2,zh2x,ai,zh2x_ai,zh2x_1_aizhai.wav,zh2x_1_aizhai.wav,,TRUE,FALSE,,,,,,,,,,,,,,f,0.2173,space,0.7333,,,,,,,,0,79,79,12,1,,
5c069c1566c9ab0001cd8625,2023-06-16_10h01.23.663,phx_ver10,2022.2.5,Win32,59.94485074,,,,,,,,,,,,63,testing_3,zh2j,e,zh2j_e,zh2j_1_ezhe.wav,zh2j_8_eje.wav,,FALSE,FALSE,,,,,,,,,,,,,,j,0.3003,space,0.7237,,,,,,,,0,80,80,62,1,,
5c069c1566c9ab0001cd8625,2023-06-16_10h01.23.663,phx_ver10,2022.2.5,Win32,59.94485074,,,,,,,,,,,,129,testing_3,sh2j,au,sh2j_au,sh2j_1_aushau.wav,sh2j_1_aushau.wav,,TRUE,FALSE,,,,,,,,,,,,,,f,0.0505,space,0.4837,,,,,,,,0,81,81,128,1,,
5c069c1566c9ab0001cd8625,2023-06-16_10h01.23.663,phx_ver10,2022.2.5,Win32,59.94485074,,,,,,,,,,,,128,testing_3,sh2j,ai,sh2j_ai,sh2j_8_aijai.wav,sh2j_1_aishai.wav,,FALSE,FALSE,,,,,,,,,,,,,,j,0.0228,space,0.4345,,,,,,,,0,82,82,127,1,,
5c069c1566c9ab0001cd8625,2023-06-16_10h01.23.663,phx_ver10,2022.2.5,Win32,59.94485074,,,,,,,,,,,,113,testing_3,sh2x,ei,sh2x_ei,sh2x_1_eishei.wav,sh2x_1_eishei.wav,,TRUE,FALSE,,,,,,,,,,,,,,f,0.4402,space,0.8275,,,,,,,,0,83,83,112,1,,
5c069c1566c9ab0001cd8625,2023-06-16_10h01.23.663,phx_ver10,2022.2.5,Win32,59.94485074,,,,,,,,,,,,39,testing_3,zh2sh,e,zh2sh_e,zh2sh_1_ezhe.wav,zh2sh_8_eshe.wav,,FALSE,FALSE,,,,,,,,,,,,,,j,0.1187,space,0.535,,,,,,,,0,84,84,38,1,,
5c069c1566c9ab0001cd8625,2023-06-16_10h01.23.663,phx_ver10,2022.2.5,Win32,59.94485074,,,,,,,,,,,,81,testing_3,j2x,au,j2x_au,j2x_1_aujau.wav,j2x_1_aujau.wav,,TRUE,FALSE,,,,,,,,,,,,,,f,0.2226,space,0.6907,,,,,,,,0,85,85,80,1,,
5c069c1566c9ab0001cd8625,2023-06-16_10h01.23.663,phx_ver10,2022.2.5,Win32,59.94485074,,,,,,,,,,,,83,testing_3,j2x,au,j2x_au,j2x_1_aujau.wav,j2x_8_auxau.wav,,FALSE,FALSE,,,,,,,,,,,,,,j,0.4091,space,0.8676,,,,,,,,0,86,86,82,1,,
5c069c1566c9ab0001cd8625,2023-06-16_10h01.23.663,phx_ver10,2022.2.5,Win32,59.94485074,,,,,,,,,,,,18,testing_2,zh2x,au,zh2x_au,zh2x_8_auxau.wav,zh2x_8_auxau.wav,,TRUE,FALSE,,,,,,,,,,,,,,f,0.0459,space,0.4833,,,,,,,,0,87,87,17,1,,
5c069c1566c9ab0001cd8625,2023-06-16_10h01.23.663,phx_ver10,2022.2.5,Win32,59.94485074,,,,,,,,,,,,125,testing_3,sh2j,ai,sh2j_ai,sh2j_1_aishai.wav,sh2j_1_aishai.wav,,TRUE,FALSE,,,,,,,,,,,,,,f,0.484,space,0.8929,,,,,,,,0,88,88,124,1,,
5c069c1566c9ab0001cd8625,2023-06-16_10h01.23.663,phx_ver10,2022.2.5,Win32,59.94485074,,,,,,,,,,,,102,testing_3,sh2x,ai,sh2x_ai,sh2x_8_aixai.wav,sh2x_8_aixai.wav,,TRUE,FALSE,,,,,,,,,,,,,,f,0.2537,space,1.0064,,,,,,,,0,89,89,101,1,,
5c069c1566c9ab0001cd8625,2023-06-16_10h01.23.663,phx_ver10,2022.2.5,Win32,59.94485074,,,,,,,,,,,,67,testing_3,zh2j,ei,zh2j_ei,zh2j_1_eizhei.wav,zh2j_8_eijei.wav,,FALSE,FALSE,,,,,,,,,,,,,,j,0.0339,space,0.4616,,,,,,,,0,90,90,66,1,,
5c069c1566c9ab0001cd8625,2023-06-16_10h01.23.663,phx_ver10,2022.2.5,Win32,59.94485074,,,,,,,,,,,,68,testing_3,zh2j,ei,zh2j_ei,zh2j_8_eijei.wav,zh2j_1_eizhei.wav,,FALSE,FALSE,,,,,,,,,,,,,,j,0.0731,space,0.6516,,,,,,,,0,91,91,67,1,,
5c069c1566c9ab0001cd8625,2023-06-16_10h01.23.663,phx_ver10,2022.2.5,Win32,59.94485074,,,,,,,,,,,,66,testing_3,zh2j,ei,zh2j_ei,zh2j_8_eijei.wav,zh2j_8_eijei.wav,,TRUE,FALSE,,,,,,,,,,,,,,f,0.4015,space,0.8257,,,,,,,,0,92,92,65,1,,
5c069c1566c9ab0001cd8625,2023-06-16_10h01.23.663,phx_ver10,2022.2.5,Win32,59.94485074,,,,,,,,,,,,69,testing_3,zh2j,i,zh2j_i,zh2j_1_izhi.wav,zh2j_1_izhi.wav,,TRUE,FALSE,,,,,,,,,,,,,,f,0.4183,space,0.8253,,,,,,,,0,93,93,68,1,,
5c069c1566c9ab0001cd8625,2023-06-16_10h01.23.663,phx_ver10,2022.2.5,Win32,59.94485074,,,,,,,,,,,,100,testing_3,sh2x,a,sh2x_a,sh2x_8_axa.wav,sh2x_1_asha.wav,,FALSE,FALSE,,,,,,,,,,,,,,j,0.0617,space,0.5507,,,,,,,,0,94,94,99,1,,
5c069c1566c9ab0001cd8625,2023-06-16_10h01.23.663,phx_ver10,2022.2.5,Win32,59.94485074,,,,,,,,,,,,10,testing_1,zh2x,i,zh2x_i,zh2x_8_ixi.wav,zh2x_8_ixi_copy.wav,,TRUE,TRUE,,,,,,,,,,,,,,f,0.0507,space,0.517,,,,,,,,0,95,95,9,1,,
5c069c1566c9ab0001cd8625,2023-06-16_10h01.23.663,phx_ver10,2022.2.5,Win32,59.94485074,,,,,,,,,,,,82,testing_3,j2x,au,j2x_au,j2x_8_auxau.wav,j2x_8_auxau.wav,,TRUE,FALSE,,,,,,,,,,,,,,f,0.1218,space,0.6015,,,,,,,,0,96,96,81,1,,
5c069c1566c9ab0001cd8625,2023-06-16_10h01.23.663,phx_ver10,2022.2.5,Win32,59.94485074,,,,,,,,,,,,74,testing_3,j2x,a,j2x_a,j2x_8_axa.wav,j2x_8_axa.wav,,TRUE,FALSE,,,,,,,,,,,,,,f,0.3174,space,1.5842,,,,,,,,0,97,97,73,1,,
5c069c1566c9ab0001cd8625,2023-06-16_10h01.23.663,phx_ver10,2022.2.5,Win32,59.94485074,,,,,,,,,,,,49,testing_3,zh2j,a,zh2j_a,zh2j_1_azha.wav,zh2j_1_azha.wav,,TRUE,FALSE,,,,,,,,,,,,,,f,0.2173,space,0.6671,,,,,,,,0,98,98,48,1,,
5c069c1566c9ab0001cd8625,2023-06-16_10h01.23.663,phx_ver10,2022.2.5,Win32,59.94485074,,,,,,,,,,,,135,testing_3,sh2j,e,sh2j_e,sh2j_1_eshe.wav,sh2j_8_eje.wav,,FALSE,FALSE,,,,,,,,,,,,,,j,0.2673,space,0.6669,,,,,,,,0,99,99,134,1,,
5c069c1566c9ab0001cd8625,2023-06-16_10h01.23.663,phx_ver10,2022.2.5,Win32,59.94485074,,,,,,,,,,,,136,testing_3,sh2j,e,sh2j_e,sh2j_8_eje.wav,sh2j_1_eshe.wav,,FALSE,FALSE,,,,,,,,,,,,,,j,0.5013,space,0.8541,,,,,,,,0,100,100,135,1,,
5c069c1566c9ab0001cd8625,2023-06-16_10h01.23.663,phx_ver10,2022.2.5,Win32,59.94485074,,,,,,,,,,,,141,testing_3,sh2j,i,sh2j_i,sh2j_1_ishi.wav,sh2j_1_ishi.wav,,TRUE,FALSE,,,,,,,,,,,,,,f,0.2738,space,0.6871,,,,,,,,0,101,101,140,1,,
5c069c1566c9ab0001cd8625,2023-06-16_10h01.23.663,phx_ver10,2022.2.5,Win32,59.94485074,,,,,,,,,,,,91,testing_3,j2x,ei,j2x_ei,j2x_1_eijei.wav,j2x_8_eixei.wav,,FALSE,FALSE,,,,,,,,,,,,,,j,0.1249,space,0.5851,,,,,,,,0,102,102,90,1,,
5c069c1566c9ab0001cd8625,2023-06-16_10h01.23.663,phx_ver10,2022.2.5,Win32,59.94485074,,,,,,,,,,,,44,testing_3,zh2sh,ei,zh2sh_ei,zh2sh_8_eishei.wav,zh2sh_1_eizhei.wav,,FALSE,FALSE,,,,,,,,,,,,,,j,0.168,space,0.7334,,,,,,,,0,103,103,43,1,,
5c069c1566c9ab0001cd8625,2023-06-16_10h01.23.663,phx_ver10,2022.2.5,Win32,59.94485074,,,,,,,,,,,,137,testing_3,sh2j,ei,sh2j_ei,sh2j_1_eishei.wav,sh2j_1_eishei.wav,,TRUE,FALSE,,,,,,,,,,,,,,f,0.1007,space,0.5172,,,,,,,,0,104,104,136,1,,
5c069c1566c9ab0001cd8625,2023-06-16_10h01.23.663,phx_ver10,2022.2.5,Win32,59.94485074,,,,,,,,,,,,115,testing_3,sh2x,ei,sh2x_ei,sh2x_1_eishei.wav,sh2x_8_eixei.wav,,FALSE,FALSE,,,,,,,,,,,,,,j,0.0009,space,0.436,,,,,,,,0,105,105,114,1,,
5c069c1566c9ab0001cd8625,2023-06-16_10h01.23.663,phx_ver10,2022.2.5,Win32,59.94485074,,,,,,,,,,,,94,testing_3,j2x,i,j2x_i,j2x_8_ixi.wav,j2x_8_ixi.wav,,TRUE,FALSE,,,,,,,,,,,,,,f,0.0222,space,0.4012,,,,,,,,0,106,106,93,1,,
5c069c1566c9ab0001cd8625,2023-06-16_10h01.23.663,phx_ver10,2022.2.5,Win32,59.94485074,,,,,,,,,,,,109,testing_3,sh2x,e,sh2x_e,sh2x_1_eshe.wav,sh2x_1_eshe.wav,,TRUE,FALSE,,,,,,,,,,,,,,f,0.1759,space,0.5501,,,,,,,,0,107,107,108,1,,
5c069c1566c9ab0001cd8625,2023-06-16_10h01.23.663,phx_ver10,2022.2.5,Win32,59.94485074,,,,,,,,,,,,143,testing_3,sh2j,i,sh2j_i,sh2j_1_ishi.wav,sh2j_8_iji.wav,,FALSE,FALSE,,,,,,,,,,,,,,j,0.0065,space,0.4168,,,,,,,,0,108,108,142,1,,
5c069c1566c9ab0001cd8625,2023-06-16_10h01.23.663,phx_ver10,2022.2.5,Win32,59.94485074,,,,,,,,,,,,105,testing_3,sh2x,au,sh2x_au,sh2x_1_aushau.wav,sh2x_1_aushau.wav,,TRUE,FALSE,,,,,,,,,,,,,,f,0.0509,space,0.4662,,,,,,,,0,109,109,104,1,,
5c069c1566c9ab0001cd8625,2023-06-16_10h01.23.663,phx_ver10,2022.2.5,Win32,59.94485074,,,,,,,,,,,,97,testing_3,sh2x,a,sh2x_a,sh2x_1_asha.wav,sh2x_1_asha.wav,,TRUE,FALSE,,,,,,,,,,,,,,f,0.0342,space,0.4395,,,,,,,,0,110,110,96,1,,
5c069c1566c9ab0001cd8625,2023-06-16_10h01.23.663,phx_ver10,2022.2.5,Win32,59.94485074,,,,,,,,,,,,72,testing_3,zh2j,i,zh2j_i,zh2j_8_iji.wav,zh2j_1_izhi.wav,,FALSE,FALSE,,,,,,,,,,,,,,f,0.0398,space,0.6536,,,,,,,,0,111,111,71,1,,
5c069c1566c9ab0001cd8625,2023-06-16_10h01.23.663,phx_ver10,2022.2.5,Win32,59.94485074,,,,,,,,,,,,110,testing_3,sh2x,e,sh2x_e,sh2x_8_exe.wav,sh2x_8_exe.wav,,TRUE,FALSE,,,,,,,,,,,,,,f,0.4713,space,1.0211,,,,,,,,0,112,112,109,1,,
5c069c1566c9ab0001cd8625,2023-06-16_10h01.23.663,phx_ver10,2022.2.5,Win32,59.94485074,,,,,,,,,,,,21,testing_2,zh2x,ei,zh2x_ei,zh2x_1_eizhei.wav,zh2x_1_eizhei.wav,,TRUE,FALSE,,,,,,,,,,,,,,f,0.191,space,0.6679,,,,,,,,0,113,113,20,1,,
5c069c1566c9ab0001cd8625,2023-06-16_10h01.23.663,phx_ver10,2022.2.5,Win32,59.94485074,,,,,,,,,,,,23,testing_2,zh2x,ei,zh2x_ei,zh2x_1_eizhei.wav,zh2x_8_eixei.wav,,FALSE,FALSE,,,,,,,,,,,,,,j,0.3171,space,0.6669,,,,,,,,0,114,114,22,1,,
5c069c1566c9ab0001cd8625,2023-06-16_10h01.23.663,phx_ver10,2022.2.5,Win32,59.94485074,,,,,,,,,,,,55,testing_3,zh2j,ai,zh2j_ai,zh2j_1_aizhai.wav,zh2j_8_aijai.wav,,FALSE,FALSE,,,,,,,,,,,,,,j,0.0844,space,0.5015,,,,,,,,0,115,115,54,1,,
5c069c1566c9ab0001cd8625,2023-06-16_10h01.23.663,phx_ver10,2022.2.5,Win32,59.94485074,,,,,,,,,,,,124,testing_3,sh2j,a,sh2j_a,sh2j_8_aja.wav,sh2j_1_asha.wav,,FALSE,FALSE,,,,,,,,,,,,,,j,0.0575,space,0.4336,,,,,,,,0,116,116,123,1,,
5c069c1566c9ab0001cd8625,2023-06-16_10h01.23.663,phx_ver10,2022.2.5,Win32,59.94485074,,,,,,,,,,,,133,testing_3,sh2j,e,sh2j_e,sh2j_1_eshe.wav,sh2j_1_eshe.wav,,TRUE,FALSE,,,,,,,,,,,,,,f,0.2194,space,0.591,,,,,,,,0,117,117,132,1,,
5c069c1566c9ab0001cd8625,2023-06-16_10h01.23.663,phx_ver10,2022.2.5,Win32,59.94485074,,,,,,,,,,,,5,testing_1,zh2x,e,zh2x_e,zh2x_1_ezhe.wav,zh2x_1_ezhe_copy.wav,,TRUE,TRUE,,,,,,,,,,,,,,f,0.2082,space,0.6339,,,,,,,,0,118,118,4,1,,
5c069c1566c9ab0001cd8625,2023-06-16_10h01.23.663,phx_ver10,2022.2.5,Win32,59.94485074,,,,,,,,,,,,37,testing_3,zh2sh,e,zh2sh_e,zh2sh_1_ezhe.wav,zh2sh_1_ezhe.wav,,TRUE,FALSE,,,,,,,,,,,,,,f,0.0504,space,0.5012,,,,,,,,0,119,119,36,1,,
5c069c1566c9ab0001cd8625,2023-06-16_10h01.23.663,phx_ver10,2022.2.5,Win32,59.94485074,,,,,,,,,,,,79,testing_3,j2x,ai,j2x_ai,j2x_1_aijai.wav,j2x_8_aixai.wav,,FALSE,FALSE,,,,,,,,,,,,,,j,0.4076,space,2.1161,,,,,,,,0,120,120,78,1,,
5c069c1566c9ab0001cd8625,2023-06-16_10h01.23.663,phx_ver10,2022.2.5,Win32,59.94485074,,,,,,,,,,,,75,testing_3,j2x,a,j2x_a,j2x_1_aja.wav,j2x_8_axa.wav,,FALSE,FALSE,,,,,,,,,,,,,,j,0.1837,space,0.5504,,,,,,,,0,121,121,74,1,,
5c069c1566c9ab0001cd8625,2023-06-16_10h01.23.663,phx_ver10,2022.2.5,Win32,59.94485074,,,,,,,,,,,,54,testing_3,zh2j,ai,zh2j_ai,zh2j_8_aijai.wav,zh2j_8_aijai.wav,,TRUE,FALSE,,,,,,,,,,,,,,f,0.4673,space,0.851,,,,,,,,0,122,122,53,1,,
5c069c1566c9ab0001cd8625,2023-06-16_10h01.23.663,phx_ver10,2022.2.5,Win32,59.94485074,,,,,,,,,,,,101,testing_3,sh2x,ai,sh2x_ai,sh2x_1_aishai.wav,sh2x_1_aishai.wav,,TRUE,FALSE,,,,,,,,,,,,,,f,0.0514,space,0.4676,,,,,,,,0,123,123,100,1,,
5c069c1566c9ab0001cd8625,2023-06-16_10h01.23.663,phx_ver10,2022.2.5,Win32,59.94485074,,,,,,,,,,,,78,testing_3,j2x,ai,j2x_ai,j2x_8_aixai.wav,j2x_8_aixai.wav,,TRUE,FALSE,,,,,,,,,,,,,,f,0.2313,space,1.0625,,,,,,,,0,124,124,77,1,,
5c069c1566c9ab0001cd8625,2023-06-16_10h01.23.663,phx_ver10,2022.2.5,Win32,59.94485074,,,,,,,,,,,,138,testing_3,sh2j,ei,sh2j_ei,sh2j_8_eijei.wav,sh2j_8_eijei.wav,,TRUE,FALSE,,,,,,,,,,,,,,f,0.0685,space,0.4683,,,,,,,,0,125,125,137,1,,
5c069c1566c9ab0001cd8625,2023-06-16_10h01.23.663,phx_ver10,2022.2.5,Win32,59.94485074,,,,,,,,,,,,27,testing_3,zh2sh,a,zh2sh_a,zh2sh_1_azha.wav,zh2sh_8_asha.wav,,FALSE,FALSE,,,,,,,,,,,,,,j,0.0323,space,0.4234,,,,,,,,0,126,126,26,1,,
5c069c1566c9ab0001cd8625,2023-06-16_10h01.23.663,phx_ver10,2022.2.5,Win32,59.94485074,,,,,,,,,,,,38,testing_3,zh2sh,e,zh2sh_e,zh2sh_8_eshe.wav,zh2sh_8_eshe.wav,,TRUE,FALSE,,,,,,,,,,,,,,f,0.0686,space,0.4837,,,,,,,,0,127,127,37,1,,
5c069c1566c9ab0001cd8625,2023-06-16_10h01.23.663,phx_ver10,2022.2.5,Win32,59.94485074,,,,,,,,,,,,3,testing_1,zh2x,a,zh2x_a,zh2x_1_azha.wav,zh2x_8_axa.wav,,FALSE,TRUE,,,,,,,,,,,,,,j,0.0842,space,0.469,,,,,,,,0,128,128,2,1,,
5c069c1566c9ab0001cd8625,2023-06-16_10h01.23.663,phx_ver10,2022.2.5,Win32,59.94485074,,,,,,,,,,,,51,testing_3,zh2j,a,zh2j_a,zh2j_1_azha.wav,zh2j_8_aja.wav,,FALSE,FALSE,,,,,,,,,,,,,,j,0.1847,space,0.5421,,,,,,,,0,129,129,50,1,,
5c069c1566c9ab0001cd8625,2023-06-16_10h01.23.663,phx_ver10,2022.2.5,Win32,59.94485074,,,,,,,,,,,,58,testing_3,zh2j,au,zh2j_au,zh2j_8_aujau.wav,zh2j_8_aujau.wav,,TRUE,FALSE,,,,,,,,,,,,,,f,0.6167,space,0.9992,,,,,,,,0,130,130,57,1,,
5c069c1566c9ab0001cd8625,2023-06-16_10h01.23.663,phx_ver10,2022.2.5,Win32,59.94485074,,,,,,,,,,,,56,testing_3,zh2j,ai,zh2j_ai,zh2j_8_aijai.wav,zh2j_1_aizhai.wav,,FALSE,FALSE,,,,,,,,,,,,,,j,0.0006,space,0.3697,,,,,,,,0,131,131,55,1,,
5c069c1566c9ab0001cd8625,2023-06-16_10h01.23.663,phx_ver10,2022.2.5,Win32,59.94485074,,,,,,,,,,,,103,testing_3,sh2x,ai,sh2x_ai,sh2x_1_aishai.wav,sh2x_8_aixai.wav,,FALSE,FALSE,,,,,,,,,,,,,,j,0.0041,space,0.4023,,,,,,,,0,132,132,102,1,,
5c069c1566c9ab0001cd8625,2023-06-16_10h01.23.663,phx_ver10,2022.2.5,Win32,59.94485074,,,,,,,,,,,,121,testing_3,sh2j,a,sh2j_a,sh2j_1_asha.wav,sh2j_1_asha.wav,,TRUE,FALSE,,,,,,,,,,,,,,f,0.3482,space,0.7681,,,,,,,,0,133,133,120,1,,
5c069c1566c9ab0001cd8625,2023-06-16_10h01.23.663,phx_ver10,2022.2.5,Win32,59.94485074,,,,,,,,,,,,85,testing_3,j2x,e,j2x_e,j2x_1_eje.wav,j2x_1_eje.wav,,TRUE,FALSE,,,,,,,,,,,,,,f,0.6649,space,1.0844,,,,,,,,0,134,134,84,1,,
5c069c1566c9ab0001cd8625,2023-06-16_10h01.23.663,phx_ver10,2022.2.5,Win32,59.94485074,,,,,,,,,,,,6,testing_1,zh2x,e,zh2x_e,zh2x_8_exe.wav,zh2x_8_exe_copy.wav,,TRUE,TRUE,,,,,,,,,,,,,,f,0.2002,space,0.7246,,,,,,,,0,135,135,5,1,,
5c069c1566c9ab0001cd8625,2023-06-16_10h01.23.663,phx_ver10,2022.2.5,Win32,59.94485074,,,,,,,,,,,,70,testing_3,zh2j,i,zh2j_i,zh2j_8_iji.wav,zh2j_8_iji.wav,,TRUE,FALSE,,,,,,,,,,,,,,f,0.6213,space,1.1212,,,,,,,,0,136,136,69,1,,
5c069c1566c9ab0001cd8625,2023-06-16_10h01.23.663,phx_ver10,2022.2.5,Win32,59.94485074,,,,,,,,,,,,30,testing_3,zh2sh,ai,zh2sh_ai,zh2sh_8_aishai.wav,zh2sh_8_aishai.wav,,TRUE,FALSE,,,,,,,,,,,,,,f,0.1009,space,0.5349,,,,,,,,0,137,137,29,1,,
5c069c1566c9ab0001cd8625,2023-06-16_10h01.23.663,phx_ver10,2022.2.5,Win32,59.94485074,,,,,,,,,,,,4,testing_1,zh2x,a,zh2x_a,zh2x_8_axa.wav,zh2x_1_azha.wav,,FALSE,TRUE,,,,,,,,,,,,,,j,0.2008,space,0.6395,,,,,,,,0,138,138,3,1,,
5c069c1566c9ab0001cd8625,2023-06-16_10h01.23.663,phx_ver10,2022.2.5,Win32,59.94485074,,,,,,,,,,,,47,testing_3,zh2sh,i,zh2sh_i,zh2sh_1_izhi.wav,zh2sh_8_ishi.wav,,FALSE,FALSE,,,,,,,,,,,,,,j,0.1203,space,0.5658,,,,,,,,0,139,139,46,1,,
5c069c1566c9ab0001cd8625,2023-06-16_10h01.23.663,phx_ver10,2022.2.5,Win32,59.94485074,,,,,,,,,,,,116,testing_3,sh2x,ei,sh2x_ei,sh2x_8_eixei.wav,sh2x_1_eishei.wav,,FALSE,FALSE,,,,,,,,,,,,,,j,0.0095,space,0.3706,,,,,,,,0,140,140,115,1,,
5c069c1566c9ab0001cd8625,2023-06-16_10h01.23.663,phx_ver10,2022.2.5,Win32,59.94485074,,,,,,,,,,,,120,testing_3,sh2x,i,sh2x_i,sh2x_8_ixi.wav,sh2x_1_ishi.wav,,FALSE,FALSE,,,,,,,,,,,,,,f,0.5838,space,1.0205,,,,,,,,0,141,141,119,1,,
5c069c1566c9ab0001cd8625,2023-06-16_10h01.23.663,phx_ver10,2022.2.5,Win32,59.94485074,,,,,,,,,,,,117,testing_3,sh2x,i,sh2x_i,sh2x_1_ishi.wav,sh2x_1_ishi.wav,,TRUE,FALSE,,,,,,,,,,,,,,f,0.0237,space,0.4032,,,,,,,,0,142,142,116,1,,
5c069c1566c9ab0001cd8625,2023-06-16_10h01.23.663,phx_ver10,2022.2.5,Win32,59.94485074,,,,,,,,,,,,32,testing_3,zh2sh,ai,zh2sh_ai,zh2sh_8_aishai.wav,zh2sh_1_aizhai.wav,,FALSE,FALSE,,,,,,,,,,,,,,j,0.0337,space,0.409,,,,,,,,0,143,143,31,1,,
5c069c1566c9ab0001cd8625,2023-06-16_10h01.23.663,phx_ver10,2022.2.5,Win32,59.94485074,,,,,,,,,,,,,,,,,,,,,,,,,,,,,,,,,,,,,,,,,,,,,,,,,,,space,5.0106
