participant,date,expName,psychopyVersion,OS,frameRate,space_1.keys,space_1.rt,space_2.keys,space_2.rt,space_train.keys,space_train.rt,training.thisRepN,training.thisTrialN,training.thisN,training.thisIndex,training.ran,token_id,task,continuum,vowel,series,sound_1,sound_2,img,same,trained,FJ_attn.keys,FJ_attn.rt,space_attn.keys,space_attn.rt,if_attn_test.thisRepN,if_attn_test.thisTrialN,if_attn_test.thisN,if_attn_test.thisIndex,if_attn_test.ran,space_trans_1.keys,space_trans_1.rt,space_trans_11.keys,space_trans_11.rt,FJ_test.keys,FJ_test.rt,space_test.keys,space_test.rt,testing_pre.thisRepN,testing_pre.thisTrialN,testing_pre.thisN,testing_pre.thisIndex,testing_pre.ran,space_trans_2.keys,space_trans_2.rt,testing_all.thisRepN,testing_all.thisTrialN,testing_all.thisN,testing_all.thisIndex,testing_all.ran,space_ending.keys,space_ending.rt
5c345ebad4f77a0001a91ec0,2023-06-16_11h15.42.681,phx_ver10,2022.2.5,Win32,165.0437366,,,,,,,,,,,,,,,,,,,,,,,,,,,,,,,,,,,,,,,,,,,,,,,,,,,,
5c345ebad4f77a0001a91ec0,2023-06-16_11h15.42.681,phx_ver10,2022.2.5,Win32,165.0437366,space,4.4298,,,,,,,,,,,,,,,,,,,,,,,,,,,,,,,,,,,,,,,,,,,,,,,,,,
5c345ebad4f77a0001a91ec0,2023-06-16_11h15.42.681,phx_ver10,2022.2.5,Win32,165.0437366,,,space,2.7589,,,,,,,,,,,,,,,,,,,,,,,,,,,,,,,,,,,,,,,,,,,,,,,,
5c345ebad4f77a0001a91ec0,2023-06-16_11h15.42.681,phx_ver10,2022.2.5,Win32,165.0437366,,,,,space,3.1639,0,0,0,5,1,6,training,zh2x,a,zh2x_a,zh2x_3_azha.wav,,azha.jpg,,,,,,,,,,,,,,,,,,,,,,,,,,,,,,,,,
5c345ebad4f77a0001a91ec0,2023-06-16_11h15.42.681,phx_ver10,2022.2.5,Win32,165.0437366,,,,,space,2.0615,0,1,1,32,1,33,training,zh2x,i,zh2x_i,zh2x_1_izhi.wav,,izhi.jpg,,,,,,,,,,,,,,,,,,,,,,,,,,,,,,,,,
5c345ebad4f77a0001a91ec0,2023-06-16_11h15.42.681,phx_ver10,2022.2.5,Win32,165.0437366,,,,,space,1.8459,0,2,2,11,1,12,training,zh2x,a,zh2x_a,zh2x_7_axa.wav,,axa.jpg,,,,,,,,,,,,,,,,,,,,,,,,,,,,,,,,,
5c345ebad4f77a0001a91ec0,2023-06-16_11h15.42.681,phx_ver10,2022.2.5,Win32,165.0437366,,,,,space,2.0658,0,3,3,24,1,25,training,zh2x,e,zh2x_e,zh2x_5_exe.wav,,exe.jpg,,,,,,,,,,,,,,,,,,,,,,,,,,,,,,,,,
5c345ebad4f77a0001a91ec0,2023-06-16_11h15.42.681,phx_ver10,2022.2.5,Win32,165.0437366,,,,,space,2.0315,0,4,4,4,1,5,training,zh2x,a,zh2x_a,zh2x_2_azha.wav,,azha.jpg,,,,,,,,,,,,,,,,,,,,,,,,,,,,,,,,,
5c345ebad4f77a0001a91ec0,2023-06-16_11h15.42.681,phx_ver10,2022.2.5,Win32,165.0437366,,,,,space,1.4308,0,5,5,20,1,21,training,zh2x,e,zh2x_e,zh2x_2_ezhe.wav,,ezhe.jpg,,,,,,,,,,,,,,,,,,,,,,,,,,,,,,,,,
5c345ebad4f77a0001a91ec0,2023-06-16_11h15.42.681,phx_ver10,2022.2.5,Win32,165.0437366,,,,,,,,,,,,,attn_test,,,,zh2x_8_axa.wav,zh2x_1_izhi.wav,axa.jpg,LEFT,,j,2.7638,space,4.9646,0,0,0,0,1,,,,,,,,,,,,,,,,,,,,,,
5c345ebad4f77a0001a91ec0,2023-06-16_11h15.42.681,phx_ver10,2022.2.5,Win32,165.0437366,,,,,space,1.0201,0,6,6,10,1,11,training,zh2x,a,zh2x_a,zh2x_6_axa.wav,,axa.jpg,,,,,,,,,,,,,,,,,,,,,,,,,,,,,,,,,
5c345ebad4f77a0001a91ec0,2023-06-16_11h15.42.681,phx_ver10,2022.2.5,Win32,165.0437366,,,,,space,1.159,0,7,7,44,1,45,training,zh2x,i,zh2x_i,zh2x_7_ixi.wav,,ixi.jpg,,,,,,,,,,,,,,,,,,,,,,,,,,,,,,,,,
5c345ebad4f77a0001a91ec0,2023-06-16_11h15.42.681,phx_ver10,2022.2.5,Win32,165.0437366,,,,,space,0.9339,0,8,8,36,1,37,training,zh2x,i,zh2x_i,zh2x_2_izhi.wav,,izhi.jpg,,,,,,,,,,,,,,,,,,,,,,,,,,,,,,,,,
5c345ebad4f77a0001a91ec0,2023-06-16_11h15.42.681,phx_ver10,2022.2.5,Win32,165.0437366,,,,,space,0.5895,0,9,9,29,1,30,training,zh2x,e,zh2x_e,zh2x_7_exe.wav,,exe.jpg,,,,,,,,,,,,,,,,,,,,,,,,,,,,,,,,,
5c345ebad4f77a0001a91ec0,2023-06-16_11h15.42.681,phx_ver10,2022.2.5,Win32,165.0437366,,,,,space,1.0266,0,10,10,30,1,31,training,zh2x,e,zh2x_e,zh2x_7_exe.wav,,exe.jpg,,,,,,,,,,,,,,,,,,,,,,,,,,,,,,,,,
5c345ebad4f77a0001a91ec0,2023-06-16_11h15.42.681,phx_ver10,2022.2.5,Win32,165.0437366,,,,,space,0.7092,0,11,11,39,1,40,training,zh2x,i,zh2x_i,zh2x_4_izhi.wav,,izhi.jpg,,,,,,,,,,,,,,,,,,,,,,,,,,,,,,,,,
5c345ebad4f77a0001a91ec0,2023-06-16_11h15.42.681,phx_ver10,2022.2.5,Win32,165.0437366,,,,,,,,,,,,,attn_test,,,,zh2x_1_izhi.wav,zh2x_8_axa.wav,axa.jpg,RIGHT,,j,1.2299,space,2.6183,0,0,0,0,1,,,,,,,,,,,,,,,,,,,,,,
5c345ebad4f77a0001a91ec0,2023-06-16_11h15.42.681,phx_ver10,2022.2.5,Win32,165.0437366,,,,,space,0.6246,0,12,12,33,1,34,training,zh2x,i,zh2x_i,zh2x_2_izhi.wav,,izhi.jpg,,,,,,,,,,,,,,,,,,,,,,,,,,,,,,,,,
5c345ebad4f77a0001a91ec0,2023-06-16_11h15.42.681,phx_ver10,2022.2.5,Win32,165.0437366,,,,,space,0.2286,0,13,13,35,1,36,training,zh2x,i,zh2x_i,zh2x_2_izhi.wav,,izhi.jpg,,,,,,,,,,,,,,,,,,,,,,,,,,,,,,,,,
5c345ebad4f77a0001a91ec0,2023-06-16_11h15.42.681,phx_ver10,2022.2.5,Win32,165.0437366,,,,,space,0.8574,0,14,14,42,1,43,training,zh2x,i,zh2x_i,zh2x_6_ixi.wav,,ixi.jpg,,,,,,,,,,,,,,,,,,,,,,,,,,,,,,,,,
5c345ebad4f77a0001a91ec0,2023-06-16_11h15.42.681,phx_ver10,2022.2.5,Win32,165.0437366,,,,,space,1.0145,0,15,15,19,1,20,training,zh2x,e,zh2x_e,zh2x_2_ezhe.wav,,ezhe.jpg,,,,,,,,,,,,,,,,,,,,,,,,,,,,,,,,,
5c345ebad4f77a0001a91ec0,2023-06-16_11h15.42.681,phx_ver10,2022.2.5,Win32,165.0437366,,,,,space,0.2059,0,16,16,46,1,47,training,zh2x,i,zh2x_i,zh2x_7_ixi.wav,,ixi.jpg,,,,,,,,,,,,,,,,,,,,,,,,,,,,,,,,,
5c345ebad4f77a0001a91ec0,2023-06-16_11h15.42.681,phx_ver10,2022.2.5,Win32,165.0437366,,,,,space,0.7896,0,17,17,41,1,42,training,zh2x,i,zh2x_i,zh2x_6_ixi.wav,,ixi.jpg,,,,,,,,,,,,,,,,,,,,,,,,,,,,,,,,,
5c345ebad4f77a0001a91ec0,2023-06-16_11h15.42.681,phx_ver10,2022.2.5,Win32,165.0437366,,,,,,,,,,,,,attn_test,,,,zh2x_1_ezhe.wav,zh2x_8_ixi.wav,ezhe.jpg,LEFT,,f,0.2302,space,1.4743,0,0,0,0,1,,,,,,,,,,,,,,,,,,,,,,
5c345ebad4f77a0001a91ec0,2023-06-16_11h15.42.681,phx_ver10,2022.2.5,Win32,165.0437366,,,,,space,0.7883,0,18,18,0,1,1,training,zh2x,a,zh2x_a,zh2x_1_azha.wav,,azha.jpg,,,,,,,,,,,,,,,,,,,,,,,,,,,,,,,,,
5c345ebad4f77a0001a91ec0,2023-06-16_11h15.42.681,phx_ver10,2022.2.5,Win32,165.0437366,,,,,space,0.5052,0,19,19,22,1,23,training,zh2x,e,zh2x_e,zh2x_3_ezhe.wav,,ezhe.jpg,,,,,,,,,,,,,,,,,,,,,,,,,,,,,,,,,
5c345ebad4f77a0001a91ec0,2023-06-16_11h15.42.681,phx_ver10,2022.2.5,Win32,165.0437366,,,,,space,0.1879,0,20,20,2,1,3,training,zh2x,a,zh2x_a,zh2x_2_azha.wav,,azha.jpg,,,,,,,,,,,,,,,,,,,,,,,,,,,,,,,,,
5c345ebad4f77a0001a91ec0,2023-06-16_11h15.42.681,phx_ver10,2022.2.5,Win32,165.0437366,,,,,space,0.2077,0,21,21,40,1,41,training,zh2x,i,zh2x_i,zh2x_5_ixi.wav,,ixi.jpg,,,,,,,,,,,,,,,,,,,,,,,,,,,,,,,,,
5c345ebad4f77a0001a91ec0,2023-06-16_11h15.42.681,phx_ver10,2022.2.5,Win32,165.0437366,,,,,space,0.4208,0,22,22,31,1,32,training,zh2x,e,zh2x_e,zh2x_8_exe.wav,,exe.jpg,,,,,,,,,,,,,,,,,,,,,,,,,,,,,,,,,
5c345ebad4f77a0001a91ec0,2023-06-16_11h15.42.681,phx_ver10,2022.2.5,Win32,165.0437366,,,,,space,0.7883,0,23,23,28,1,29,training,zh2x,e,zh2x_e,zh2x_7_exe.wav,,exe.jpg,,,,,,,,,,,,,,,,,,,,,,,,,,,,,,,,,
5c345ebad4f77a0001a91ec0,2023-06-16_11h15.42.681,phx_ver10,2022.2.5,Win32,165.0437366,,,,,,,,,,,,,attn_test,,,,zh2x_8_ixi.wav,zh2x_1_azha.wav,azha.jpg,RIGHT,,f,0.0003,space,0.994,0,0,0,0,1,,,,,,,,,,,,,,,,,,,,,,
5c345ebad4f77a0001a91ec0,2023-06-16_11h15.42.681,phx_ver10,2022.2.5,Win32,165.0437366,,,,,space,0.0252,0,24,24,9,1,10,training,zh2x,a,zh2x_a,zh2x_6_axa.wav,,axa.jpg,,,,,,,,,,,,,,,,,,,,,,,,,,,,,,,,,
5c345ebad4f77a0001a91ec0,2023-06-16_11h15.42.681,phx_ver10,2022.2.5,Win32,165.0437366,,,,,space,0.2491,0,25,25,1,1,2,training,zh2x,a,zh2x_a,zh2x_2_azha.wav,,azha.jpg,,,,,,,,,,,,,,,,,,,,,,,,,,,,,,,,,
5c345ebad4f77a0001a91ec0,2023-06-16_11h15.42.681,phx_ver10,2022.2.5,Win32,165.0437366,,,,,space,1.2586,0,26,26,17,1,18,training,zh2x,e,zh2x_e,zh2x_2_ezhe.wav,,ezhe.jpg,,,,,,,,,,,,,,,,,,,,,,,,,,,,,,,,,
5c345ebad4f77a0001a91ec0,2023-06-16_11h15.42.681,phx_ver10,2022.2.5,Win32,165.0437366,,,,,space,0.0542,0,27,27,47,1,48,training,zh2x,i,zh2x_i,zh2x_8_ixi.wav,,ixi.jpg,,,,,,,,,,,,,,,,,,,,,,,,,,,,,,,,,
5c345ebad4f77a0001a91ec0,2023-06-16_11h15.42.681,phx_ver10,2022.2.5,Win32,165.0437366,,,,,space,0.0302,0,28,28,26,1,27,training,zh2x,e,zh2x_e,zh2x_6_exe.wav,,exe.jpg,,,,,,,,,,,,,,,,,,,,,,,,,,,,,,,,,
5c345ebad4f77a0001a91ec0,2023-06-16_11h15.42.681,phx_ver10,2022.2.5,Win32,165.0437366,,,,,space,0.2732,0,29,29,12,1,13,training,zh2x,a,zh2x_a,zh2x_7_axa.wav,,axa.jpg,,,,,,,,,,,,,,,,,,,,,,,,,,,,,,,,,
5c345ebad4f77a0001a91ec0,2023-06-16_11h15.42.681,phx_ver10,2022.2.5,Win32,165.0437366,,,,,,,,,,,,,attn_test,,,,zh2x_8_ixi.wav,zh2x_8_axa.wav,ixi.jpg,LEFT,,f,0.4881,space,1.173,0,0,0,0,1,,,,,,,,,,,,,,,,,,,,,,
5c345ebad4f77a0001a91ec0,2023-06-16_11h15.42.681,phx_ver10,2022.2.5,Win32,165.0437366,,,,,space,0.3695,0,30,30,16,1,17,training,zh2x,e,zh2x_e,zh2x_1_ezhe.wav,,ezhe.jpg,,,,,,,,,,,,,,,,,,,,,,,,,,,,,,,,,
5c345ebad4f77a0001a91ec0,2023-06-16_11h15.42.681,phx_ver10,2022.2.5,Win32,165.0437366,,,,,space,0.2849,0,31,31,25,1,26,training,zh2x,e,zh2x_e,zh2x_6_exe.wav,,exe.jpg,,,,,,,,,,,,,,,,,,,,,,,,,,,,,,,,,
5c345ebad4f77a0001a91ec0,2023-06-16_11h15.42.681,phx_ver10,2022.2.5,Win32,165.0437366,,,,,space,0.5093,0,32,32,7,1,8,training,zh2x,a,zh2x_a,zh2x_4_azha.wav,,azha.jpg,,,,,,,,,,,,,,,,,,,,,,,,,,,,,,,,,
5c345ebad4f77a0001a91ec0,2023-06-16_11h15.42.681,phx_ver10,2022.2.5,Win32,165.0437366,,,,,space,0.2158,0,33,33,13,1,14,training,zh2x,a,zh2x_a,zh2x_7_axa.wav,,axa.jpg,,,,,,,,,,,,,,,,,,,,,,,,,,,,,,,,,
5c345ebad4f77a0001a91ec0,2023-06-16_11h15.42.681,phx_ver10,2022.2.5,Win32,165.0437366,,,,,space,0.0809,0,34,34,3,1,4,training,zh2x,a,zh2x_a,zh2x_2_azha.wav,,azha.jpg,,,,,,,,,,,,,,,,,,,,,,,,,,,,,,,,,
5c345ebad4f77a0001a91ec0,2023-06-16_11h15.42.681,phx_ver10,2022.2.5,Win32,165.0437366,,,,,space,0.1275,0,35,35,43,1,44,training,zh2x,i,zh2x_i,zh2x_7_ixi.wav,,ixi.jpg,,,,,,,,,,,,,,,,,,,,,,,,,,,,,,,,,
5c345ebad4f77a0001a91ec0,2023-06-16_11h15.42.681,phx_ver10,2022.2.5,Win32,165.0437366,,,,,,,,,,,,,attn_test,,,,zh2x_8_ixi.wav,zh2x_1_izhi.wav,ixi.jpg,LEFT,,f,5.0852,space,5.7878,0,0,0,0,1,,,,,,,,,,,,,,,,,,,,,,
5c345ebad4f77a0001a91ec0,2023-06-16_11h15.42.681,phx_ver10,2022.2.5,Win32,165.0437366,,,,,space,0.7816,0,36,36,27,1,28,training,zh2x,e,zh2x_e,zh2x_7_exe.wav,,exe.jpg,,,,,,,,,,,,,,,,,,,,,,,,,,,,,,,,,
5c345ebad4f77a0001a91ec0,2023-06-16_11h15.42.681,phx_ver10,2022.2.5,Win32,165.0437366,,,,,space,0.061,0,37,37,37,1,38,training,zh2x,i,zh2x_i,zh2x_3_izhi.wav,,izhi.jpg,,,,,,,,,,,,,,,,,,,,,,,,,,,,,,,,,
5c345ebad4f77a0001a91ec0,2023-06-16_11h15.42.681,phx_ver10,2022.2.5,Win32,165.0437366,,,,,space,0.8742,0,38,38,18,1,19,training,zh2x,e,zh2x_e,zh2x_2_ezhe.wav,,ezhe.jpg,,,,,,,,,,,,,,,,,,,,,,,,,,,,,,,,,
5c345ebad4f77a0001a91ec0,2023-06-16_11h15.42.681,phx_ver10,2022.2.5,Win32,165.0437366,,,,,space,0.6607,0,39,39,14,1,15,training,zh2x,a,zh2x_a,zh2x_7_axa.wav,,axa.jpg,,,,,,,,,,,,,,,,,,,,,,,,,,,,,,,,,
5c345ebad4f77a0001a91ec0,2023-06-16_11h15.42.681,phx_ver10,2022.2.5,Win32,165.0437366,,,,,space,0.8193,0,40,40,38,1,39,training,zh2x,i,zh2x_i,zh2x_3_izhi.wav,,izhi.jpg,,,,,,,,,,,,,,,,,,,,,,,,,,,,,,,,,
5c345ebad4f77a0001a91ec0,2023-06-16_11h15.42.681,phx_ver10,2022.2.5,Win32,165.0437366,,,,,space,0.3168,0,41,41,15,1,16,training,zh2x,a,zh2x_a,zh2x_8_axa.wav,,axa.jpg,,,,,,,,,,,,,,,,,,,,,,,,,,,,,,,,,
5c345ebad4f77a0001a91ec0,2023-06-16_11h15.42.681,phx_ver10,2022.2.5,Win32,165.0437366,,,,,,,,,,,,,attn_test,,,,zh2x_8_exe.wav,zh2x_8_axa.wav,axa.jpg,RIGHT,,j,0.1255,space,0.9385,0,0,0,0,1,,,,,,,,,,,,,,,,,,,,,,
5c345ebad4f77a0001a91ec0,2023-06-16_11h15.42.681,phx_ver10,2022.2.5,Win32,165.0437366,,,,,space,0.2127,0,42,42,21,1,22,training,zh2x,e,zh2x_e,zh2x_3_ezhe.wav,,ezhe.jpg,,,,,,,,,,,,,,,,,,,,,,,,,,,,,,,,,
5c345ebad4f77a0001a91ec0,2023-06-16_11h15.42.681,phx_ver10,2022.2.5,Win32,165.0437366,,,,,space,0.6548,0,43,43,6,1,7,training,zh2x,a,zh2x_a,zh2x_3_azha.wav,,azha.jpg,,,,,,,,,,,,,,,,,,,,,,,,,,,,,,,,,
5c345ebad4f77a0001a91ec0,2023-06-16_11h15.42.681,phx_ver10,2022.2.5,Win32,165.0437366,,,,,space,0.2861,0,44,44,8,1,9,training,zh2x,a,zh2x_a,zh2x_5_axa.wav,,axa.jpg,,,,,,,,,,,,,,,,,,,,,,,,,,,,,,,,,
5c345ebad4f77a0001a91ec0,2023-06-16_11h15.42.681,phx_ver10,2022.2.5,Win32,165.0437366,,,,,space,0.2081,0,45,45,23,1,24,training,zh2x,e,zh2x_e,zh2x_4_ezhe.wav,,ezhe.jpg,,,,,,,,,,,,,,,,,,,,,,,,,,,,,,,,,
5c345ebad4f77a0001a91ec0,2023-06-16_11h15.42.681,phx_ver10,2022.2.5,Win32,165.0437366,,,,,space,0.1037,0,46,46,34,1,35,training,zh2x,i,zh2x_i,zh2x_2_izhi.wav,,izhi.jpg,,,,,,,,,,,,,,,,,,,,,,,,,,,,,,,,,
5c345ebad4f77a0001a91ec0,2023-06-16_11h15.42.681,phx_ver10,2022.2.5,Win32,165.0437366,,,,,space,0.5977,0,47,47,45,1,46,training,zh2x,i,zh2x_i,zh2x_7_ixi.wav,,ixi.jpg,,,,,,,,,,,,,,,,,,,,,,,,,,,,,,,,,
5c345ebad4f77a0001a91ec0,2023-06-16_11h15.42.681,phx_ver10,2022.2.5,Win32,165.0437366,,,,,,,,,,,,,attn_test,,,,zh2x_8_axa.wav,zh2x_1_ezhe.wav,axa.jpg,LEFT,,f,0.984,space,1.6605,,,,,,,,,,,,,,,,,,,,,,,,,,,
5c345ebad4f77a0001a91ec0,2023-06-16_11h15.42.681,phx_ver10,2022.2.5,Win32,165.0437366,,,,,,,,,,,,,,,,,,,,,,,,,,,,,,,space,0.2082,,,,,,,,,,,,,,,,,,,,
5c345ebad4f77a0001a91ec0,2023-06-16_11h15.42.681,phx_ver10,2022.2.5,Win32,165.0437366,,,,,,,,,,,,,,,,,,,,,,,,,,,,,,,,,space,3.6432,,,,,,,,,,,,,,,,,,
5c345ebad4f77a0001a91ec0,2023-06-16_11h15.42.681,phx_ver10,2022.2.5,Win32,165.0437366,,,,,,,,,,,,2,testing_pre,,,,auhau.wav,aufau.wav,,FALSE,,,,,,,,,,,,,,,j,1.0183,space,2.2143,0,0,0,1,1,,,,,,,,,
5c345ebad4f77a0001a91ec0,2023-06-16_11h15.42.681,phx_ver10,2022.2.5,Win32,165.0437366,,,,,,,,,,,,3,testing_pre,,,,afa.wav,aha.wav,,FALSE,,,,,,,,,,,,,,,j,0.958,space,1.9336,0,1,1,2,1,,,,,,,,,
5c345ebad4f77a0001a91ec0,2023-06-16_11h15.42.681,phx_ver10,2022.2.5,Win32,165.0437366,,,,,,,,,,,,5,testing_pre,,,,ihi.wav,ifi.wav,,FALSE,,,,,,,,,,,,,,,j,0.9035,space,1.5611,0,2,2,4,1,,,,,,,,,
5c345ebad4f77a0001a91ec0,2023-06-16_11h15.42.681,phx_ver10,2022.2.5,Win32,165.0437366,,,,,,,,,,,,4,testing_pre,,,,eihei.wav,eihei.wav,,TRUE,,,,,,,,,,,,,,,f,1.6378,space,2.5358,0,3,3,3,1,,,,,,,,,
5c345ebad4f77a0001a91ec0,2023-06-16_11h15.42.681,phx_ver10,2022.2.5,Win32,165.0437366,,,,,,,,,,,,1,testing_pre,,,,ifi.wav,ifi.wav,,TRUE,,,,,,,,,,,,,,,f,0.9829,space,1.5391,0,4,4,0,1,,,,,,,,,
5c345ebad4f77a0001a91ec0,2023-06-16_11h15.42.681,phx_ver10,2022.2.5,Win32,165.0437366,,,,,,,,,,,,,,,,,,,,,,,,,,,,,,,,,,,,,,,,,,,,space,1.552,,,,,,,
5c345ebad4f77a0001a91ec0,2023-06-16_11h15.42.681,phx_ver10,2022.2.5,Win32,165.0437366,,,,,,,,,,,,45,testing_3,zh2sh,i,zh2sh_i,zh2sh_1_izhi.wav,zh2sh_1_izhi.wav,,TRUE,FALSE,,,,,,,,,,,,,,f,1.0656,space,2.0536,,,,,,,,0,0,0,44,1,,
5c345ebad4f77a0001a91ec0,2023-06-16_11h15.42.681,phx_ver10,2022.2.5,Win32,165.0437366,,,,,,,,,,,,40,testing_3,zh2sh,e,zh2sh_e,zh2sh_8_eshe.wav,zh2sh_1_ezhe.wav,,FALSE,FALSE,,,,,,,,,,,,,,j,1.0569,space,2.0033,,,,,,,,0,1,1,39,1,,
5c345ebad4f77a0001a91ec0,2023-06-16_11h15.42.681,phx_ver10,2022.2.5,Win32,165.0437366,,,,,,,,,,,,20,testing_2,zh2x,au,zh2x_au,zh2x_8_auxau.wav,zh2x_1_auzhau.wav,,FALSE,FALSE,,,,,,,,,,,,,,j,0.9334,space,1.5361,,,,,,,,0,2,2,19,1,,
5c345ebad4f77a0001a91ec0,2023-06-16_11h15.42.681,phx_ver10,2022.2.5,Win32,165.0437366,,,,,,,,,,,,18,testing_2,zh2x,au,zh2x_au,zh2x_8_auxau.wav,zh2x_8_auxau.wav,,TRUE,FALSE,,,,,,,,,,,,,,f,1.0919,space,1.886,,,,,,,,0,3,3,17,1,,
5c345ebad4f77a0001a91ec0,2023-06-16_11h15.42.681,phx_ver10,2022.2.5,Win32,165.0437366,,,,,,,,,,,,86,testing_3,j2x,e,j2x_e,j2x_8_exe.wav,j2x_8_exe.wav,,TRUE,FALSE,,,,,,,,,,,,,,f,0.6362,space,1.2537,,,,,,,,0,4,4,85,1,,
5c345ebad4f77a0001a91ec0,2023-06-16_11h15.42.681,phx_ver10,2022.2.5,Win32,165.0437366,,,,,,,,,,,,54,testing_3,zh2j,ai,zh2j_ai,zh2j_8_aijai.wav,zh2j_8_aijai.wav,,TRUE,FALSE,,,,,,,,,,,,,,f,0.7175,space,1.3543,,,,,,,,0,5,5,53,1,,
5c345ebad4f77a0001a91ec0,2023-06-16_11h15.42.681,phx_ver10,2022.2.5,Win32,165.0437366,,,,,,,,,,,,25,testing_3,zh2sh,a,zh2sh_a,zh2sh_1_azha.wav,zh2sh_1_azha.wav,,TRUE,FALSE,,,,,,,,,,,,,,f,0.868,space,1.5224,,,,,,,,0,6,6,24,1,,
5c345ebad4f77a0001a91ec0,2023-06-16_11h15.42.681,phx_ver10,2022.2.5,Win32,165.0437366,,,,,,,,,,,,138,testing_3,sh2j,ei,sh2j_ei,sh2j_8_eijei.wav,sh2j_8_eijei.wav,,TRUE,FALSE,,,,,,,,,,,,,,f,0.6869,space,1.2976,,,,,,,,0,7,7,137,1,,
5c345ebad4f77a0001a91ec0,2023-06-16_11h15.42.681,phx_ver10,2022.2.5,Win32,165.0437366,,,,,,,,,,,,15,testing_2,zh2x,ai,zh2x_ai,zh2x_1_aizhai.wav,zh2x_8_aixai.wav,,FALSE,FALSE,,,,,,,,,,,,,,j,0.8435,space,1.5094,,,,,,,,0,8,8,14,1,,
5c345ebad4f77a0001a91ec0,2023-06-16_11h15.42.681,phx_ver10,2022.2.5,Win32,165.0437366,,,,,,,,,,,,42,testing_3,zh2sh,ei,zh2sh_ei,zh2sh_8_eishei.wav,zh2sh_8_eishei.wav,,TRUE,FALSE,,,,,,,,,,,,,,f,0.6242,space,1.1824,,,,,,,,0,9,9,41,1,,
5c345ebad4f77a0001a91ec0,2023-06-16_11h15.42.681,phx_ver10,2022.2.5,Win32,165.0437366,,,,,,,,,,,,106,testing_3,sh2x,au,sh2x_au,sh2x_8_auxau.wav,sh2x_8_auxau.wav,,TRUE,FALSE,,,,,,,,,,,,,,f,0.5647,space,1.5033,,,,,,,,0,10,10,105,1,,
5c345ebad4f77a0001a91ec0,2023-06-16_11h15.42.681,phx_ver10,2022.2.5,Win32,165.0437366,,,,,,,,,,,,119,testing_3,sh2x,i,sh2x_i,sh2x_1_ishi.wav,sh2x_8_ixi.wav,,FALSE,FALSE,,,,,,,,,,,,,,j,2.1414,space,3.406,,,,,,,,0,11,11,118,1,,
5c345ebad4f77a0001a91ec0,2023-06-16_11h15.42.681,phx_ver10,2022.2.5,Win32,165.0437366,,,,,,,,,,,,87,testing_3,j2x,e,j2x_e,j2x_1_eje.wav,j2x_8_exe.wav,,FALSE,FALSE,,,,,,,,,,,,,,j,0.6735,space,1.1601,,,,,,,,0,12,12,86,1,,
5c345ebad4f77a0001a91ec0,2023-06-16_11h15.42.681,phx_ver10,2022.2.5,Win32,165.0437366,,,,,,,,,,,,64,testing_3,zh2j,e,zh2j_e,zh2j_8_eje.wav,zh2j_1_ezhe.wav,,FALSE,FALSE,,,,,,,,,,,,,,f,0.5943,space,1.2309,,,,,,,,0,13,13,63,1,,
5c345ebad4f77a0001a91ec0,2023-06-16_11h15.42.681,phx_ver10,2022.2.5,Win32,165.0437366,,,,,,,,,,,,142,testing_3,sh2j,i,sh2j_i,sh2j_8_iji.wav,sh2j_8_iji.wav,,TRUE,FALSE,,,,,,,,,,,,,,f,0.7545,space,1.1104,,,,,,,,0,14,14,141,1,,
5c345ebad4f77a0001a91ec0,2023-06-16_11h15.42.681,phx_ver10,2022.2.5,Win32,165.0437366,,,,,,,,,,,,49,testing_3,zh2j,a,zh2j_a,zh2j_1_azha.wav,zh2j_1_azha.wav,,TRUE,FALSE,,,,,,,,,,,,,,f,0.6432,space,1.269,,,,,,,,0,15,15,48,1,,
5c345ebad4f77a0001a91ec0,2023-06-16_11h15.42.681,phx_ver10,2022.2.5,Win32,165.0437366,,,,,,,,,,,,85,testing_3,j2x,e,j2x_e,j2x_1_eje.wav,j2x_1_eje.wav,,TRUE,FALSE,,,,,,,,,,,,,,f,0.541,space,1.0739,,,,,,,,0,16,16,84,1,,
5c345ebad4f77a0001a91ec0,2023-06-16_11h15.42.681,phx_ver10,2022.2.5,Win32,165.0437366,,,,,,,,,,,,104,testing_3,sh2x,ai,sh2x_ai,sh2x_8_aixai.wav,sh2x_1_aishai.wav,,FALSE,FALSE,,,,,,,,,,,,,,f,3.6734,space,4.2247,,,,,,,,0,17,17,103,1,,
5c345ebad4f77a0001a91ec0,2023-06-16_11h15.42.681,phx_ver10,2022.2.5,Win32,165.0437366,,,,,,,,,,,,38,testing_3,zh2sh,e,zh2sh_e,zh2sh_8_eshe.wav,zh2sh_8_eshe.wav,,TRUE,FALSE,,,,,,,,,,,,,,f,0.4201,space,0.819,,,,,,,,0,18,18,37,1,,
5c345ebad4f77a0001a91ec0,2023-06-16_11h15.42.681,phx_ver10,2022.2.5,Win32,165.0437366,,,,,,,,,,,,58,testing_3,zh2j,au,zh2j_au,zh2j_8_aujau.wav,zh2j_8_aujau.wav,,TRUE,FALSE,,,,,,,,,,,,,,f,0.527,space,1.0122,,,,,,,,0,19,19,57,1,,
5c345ebad4f77a0001a91ec0,2023-06-16_11h15.42.681,phx_ver10,2022.2.5,Win32,165.0437366,,,,,,,,,,,,103,testing_3,sh2x,ai,sh2x_ai,sh2x_1_aishai.wav,sh2x_8_aixai.wav,,FALSE,FALSE,,,,,,,,,,,,,,j,1.1342,space,1.7456,,,,,,,,0,20,20,102,1,,
5c345ebad4f77a0001a91ec0,2023-06-16_11h15.42.681,phx_ver10,2022.2.5,Win32,165.0437366,,,,,,,,,,,,127,testing_3,sh2j,ai,sh2j_ai,sh2j_1_aishai.wav,sh2j_8_aijai.wav,,FALSE,FALSE,,,,,,,,,,,,,,j,1.033,space,1.8068,,,,,,,,0,21,21,126,1,,
5c345ebad4f77a0001a91ec0,2023-06-16_11h15.42.681,phx_ver10,2022.2.5,Win32,165.0437366,,,,,,,,,,,,75,testing_3,j2x,a,j2x_a,j2x_1_aja.wav,j2x_8_axa.wav,,FALSE,FALSE,,,,,,,,,,,,,,j,0.7936,space,1.3822,,,,,,,,0,22,22,74,1,,
5c345ebad4f77a0001a91ec0,2023-06-16_11h15.42.681,phx_ver10,2022.2.5,Win32,165.0437366,,,,,,,,,,,,14,testing_2,zh2x,ai,zh2x_ai,zh2x_8_aixai.wav,zh2x_8_aixai.wav,,TRUE,FALSE,,,,,,,,,,,,,,f,1.1585,space,1.8429,,,,,,,,0,23,23,13,1,,
5c345ebad4f77a0001a91ec0,2023-06-16_11h15.42.681,phx_ver10,2022.2.5,Win32,165.0437366,,,,,,,,,,,,77,testing_3,j2x,ai,j2x_ai,j2x_1_aijai.wav,j2x_1_aijai.wav,,TRUE,FALSE,,,,,,,,,,,,,,f,0.7639,space,1.7393,,,,,,,,0,24,24,76,1,,
5c345ebad4f77a0001a91ec0,2023-06-16_11h15.42.681,phx_ver10,2022.2.5,Win32,165.0437366,,,,,,,,,,,,28,testing_3,zh2sh,a,zh2sh_a,zh2sh_8_asha.wav,zh2sh_1_azha.wav,,FALSE,FALSE,,,,,,,,,,,,,,j,0.5239,space,0.934,,,,,,,,0,25,25,27,1,,
5c345ebad4f77a0001a91ec0,2023-06-16_11h15.42.681,phx_ver10,2022.2.5,Win32,165.0437366,,,,,,,,,,,,37,testing_3,zh2sh,e,zh2sh_e,zh2sh_1_ezhe.wav,zh2sh_1_ezhe.wav,,TRUE,FALSE,,,,,,,,,,,,,,f,0.7412,space,1.2695,,,,,,,,0,26,26,36,1,,
5c345ebad4f77a0001a91ec0,2023-06-16_11h15.42.681,phx_ver10,2022.2.5,Win32,165.0437366,,,,,,,,,,,,80,testing_3,j2x,ai,j2x_ai,j2x_8_aixai.wav,j2x_1_aijai.wav,,FALSE,FALSE,,,,,,,,,,,,,,j,0.6811,space,1.3096,,,,,,,,0,27,27,79,1,,
5c345ebad4f77a0001a91ec0,2023-06-16_11h15.42.681,phx_ver10,2022.2.5,Win32,165.0437366,,,,,,,,,,,,63,testing_3,zh2j,e,zh2j_e,zh2j_1_ezhe.wav,zh2j_8_eje.wav,,FALSE,FALSE,,,,,,,,,,,,,,f,0.6314,space,0.9762,,,,,,,,0,28,28,62,1,,
5c345ebad4f77a0001a91ec0,2023-06-16_11h15.42.681,phx_ver10,2022.2.5,Win32,165.0437366,,,,,,,,,,,,114,testing_3,sh2x,ei,sh2x_ei,sh2x_8_eixei.wav,sh2x_8_eixei.wav,,TRUE,FALSE,,,,,,,,,,,,,,f,0.7998,space,1.121,,,,,,,,0,29,29,113,1,,
5c345ebad4f77a0001a91ec0,2023-06-16_11h15.42.681,phx_ver10,2022.2.5,Win32,165.0437366,,,,,,,,,,,,57,testing_3,zh2j,au,zh2j_au,zh2j_1_auzhau.wav,zh2j_1_auzhau.wav,,TRUE,FALSE,,,,,,,,,,,,,,f,0.4788,space,0.8185,,,,,,,,0,30,30,56,1,,
5c345ebad4f77a0001a91ec0,2023-06-16_11h15.42.681,phx_ver10,2022.2.5,Win32,165.0437366,,,,,,,,,,,,125,testing_3,sh2j,ai,sh2j_ai,sh2j_1_aishai.wav,sh2j_1_aishai.wav,,TRUE,FALSE,,,,,,,,,,,,,,f,0.3354,space,0.7396,,,,,,,,0,31,31,124,1,,
5c345ebad4f77a0001a91ec0,2023-06-16_11h15.42.681,phx_ver10,2022.2.5,Win32,165.0437366,,,,,,,,,,,,100,testing_3,sh2x,a,sh2x_a,sh2x_8_axa.wav,sh2x_1_asha.wav,,FALSE,FALSE,,,,,,,,,,,,,,j,0.8907,space,1.3159,,,,,,,,0,32,32,99,1,,
5c345ebad4f77a0001a91ec0,2023-06-16_11h15.42.681,phx_ver10,2022.2.5,Win32,165.0437366,,,,,,,,,,,,143,testing_3,sh2j,i,sh2j_i,sh2j_1_ishi.wav,sh2j_8_iji.wav,,FALSE,FALSE,,,,,,,,,,,,,,j,0.5971,space,0.8679,,,,,,,,0,33,33,142,1,,
5c345ebad4f77a0001a91ec0,2023-06-16_11h15.42.681,phx_ver10,2022.2.5,Win32,165.0437366,,,,,,,,,,,,62,testing_3,zh2j,e,zh2j_e,zh2j_8_eje.wav,zh2j_8_eje.wav,,TRUE,FALSE,,,,,,,,,,,,,,f,0.6789,space,2.0316,,,,,,,,0,34,34,61,1,,
5c345ebad4f77a0001a91ec0,2023-06-16_11h15.42.681,phx_ver10,2022.2.5,Win32,165.0437366,,,,,,,,,,,,76,testing_3,j2x,a,j2x_a,j2x_8_axa.wav,j2x_1_aja.wav,,FALSE,FALSE,,,,,,,,,,,,,,j,0.4064,space,0.6743,,,,,,,,0,35,35,75,1,,
5c345ebad4f77a0001a91ec0,2023-06-16_11h15.42.681,phx_ver10,2022.2.5,Win32,165.0437366,,,,,,,,,,,,130,testing_3,sh2j,au,sh2j_au,sh2j_8_aujau.wav,sh2j_8_aujau.wav,,TRUE,FALSE,,,,,,,,,,,,,,f,0.5944,space,1.1218,,,,,,,,0,36,36,129,1,,
5c345ebad4f77a0001a91ec0,2023-06-16_11h15.42.681,phx_ver10,2022.2.5,Win32,165.0437366,,,,,,,,,,,,133,testing_3,sh2j,e,sh2j_e,sh2j_1_eshe.wav,sh2j_1_eshe.wav,,TRUE,FALSE,,,,,,,,,,,,,,f,0.2616,space,0.8672,,,,,,,,0,37,37,132,1,,
5c345ebad4f77a0001a91ec0,2023-06-16_11h15.42.681,phx_ver10,2022.2.5,Win32,165.0437366,,,,,,,,,,,,89,testing_3,j2x,ei,j2x_ei,j2x_1_eijei.wav,j2x_1_eijei.wav,,TRUE,FALSE,,,,,,,,,,,,,,f,0.4612,space,1.9485,,,,,,,,0,38,38,88,1,,
5c345ebad4f77a0001a91ec0,2023-06-16_11h15.42.681,phx_ver10,2022.2.5,Win32,165.0437366,,,,,,,,,,,,123,testing_3,sh2j,a,sh2j_a,sh2j_1_asha.wav,sh2j_8_aja.wav,,FALSE,FALSE,,,,,,,,,,,,,,j,1.0028,space,1.5407,,,,,,,,0,39,39,122,1,,
5c345ebad4f77a0001a91ec0,2023-06-16_11h15.42.681,phx_ver10,2022.2.5,Win32,165.0437366,,,,,,,,,,,,52,testing_3,zh2j,a,zh2j_a,zh2j_8_aja.wav,zh2j_1_azha.wav,,FALSE,FALSE,,,,,,,,,,,,,,f,0.5218,space,0.7944,,,,,,,,0,40,40,51,1,,
5c345ebad4f77a0001a91ec0,2023-06-16_11h15.42.681,phx_ver10,2022.2.5,Win32,165.0437366,,,,,,,,,,,,61,testing_3,zh2j,e,zh2j_e,zh2j_1_ezhe.wav,zh2j_1_ezhe.wav,,TRUE,FALSE,,,,,,,,,,,,,,f,0.2908,space,0.5944,,,,,,,,0,41,41,60,1,,
5c345ebad4f77a0001a91ec0,2023-06-16_11h15.42.681,phx_ver10,2022.2.5,Win32,165.0437366,,,,,,,,,,,,99,testing_3,sh2x,a,sh2x_a,sh2x_1_asha.wav,sh2x_8_axa.wav,,FALSE,FALSE,,,,,,,,,,,,,,j,0.4818,space,0.8247,,,,,,,,0,42,42,98,1,,
5c345ebad4f77a0001a91ec0,2023-06-16_11h15.42.681,phx_ver10,2022.2.5,Win32,165.0437366,,,,,,,,,,,,78,testing_3,j2x,ai,j2x_ai,j2x_8_aixai.wav,j2x_8_aixai.wav,,TRUE,FALSE,,,,,,,,,,,,,,f,0.5213,space,0.7694,,,,,,,,0,43,43,77,1,,
5c345ebad4f77a0001a91ec0,2023-06-16_11h15.42.681,phx_ver10,2022.2.5,Win32,165.0437366,,,,,,,,,,,,8,testing_1,zh2x,e,zh2x_e,zh2x_8_exe.wav,zh2x_1_ezhe.wav,,FALSE,TRUE,,,,,,,,,,,,,,j,0.6091,space,0.9101,,,,,,,,0,44,44,7,1,,
5c345ebad4f77a0001a91ec0,2023-06-16_11h15.42.681,phx_ver10,2022.2.5,Win32,165.0437366,,,,,,,,,,,,132,testing_3,sh2j,au,sh2j_au,sh2j_8_aujau.wav,sh2j_1_aushau.wav,,FALSE,FALSE,,,,,,,,,,,,,,j,0.5948,space,0.837,,,,,,,,0,45,45,131,1,,
5c345ebad4f77a0001a91ec0,2023-06-16_11h15.42.681,phx_ver10,2022.2.5,Win32,165.0437366,,,,,,,,,,,,69,testing_3,zh2j,i,zh2j_i,zh2j_1_izhi.wav,zh2j_1_izhi.wav,,TRUE,FALSE,,,,,,,,,,,,,,f,0.8434,space,1.1898,,,,,,,,0,46,46,68,1,,
5c345ebad4f77a0001a91ec0,2023-06-16_11h15.42.681,phx_ver10,2022.2.5,Win32,165.0437366,,,,,,,,,,,,79,testing_3,j2x,ai,j2x_ai,j2x_1_aijai.wav,j2x_8_aixai.wav,,FALSE,FALSE,,,,,,,,,,,,,,j,0.6248,space,1.2253,,,,,,,,0,47,47,78,1,,
5c345ebad4f77a0001a91ec0,2023-06-16_11h15.42.681,phx_ver10,2022.2.5,Win32,165.0437366,,,,,,,,,,,,141,testing_3,sh2j,i,sh2j_i,sh2j_1_ishi.wav,sh2j_1_ishi.wav,,TRUE,FALSE,,,,,,,,,,,,,,f,0.5943,space,0.8697,,,,,,,,0,48,48,140,1,,
5c345ebad4f77a0001a91ec0,2023-06-16_11h15.42.681,phx_ver10,2022.2.5,Win32,165.0437366,,,,,,,,,,,,66,testing_3,zh2j,ei,zh2j_ei,zh2j_8_eijei.wav,zh2j_8_eijei.wav,,TRUE,FALSE,,,,,,,,,,,,,,f,0.3532,space,0.6146,,,,,,,,0,49,49,65,1,,
5c345ebad4f77a0001a91ec0,2023-06-16_11h15.42.681,phx_ver10,2022.2.5,Win32,165.0437366,,,,,,,,,,,,122,testing_3,sh2j,a,sh2j_a,sh2j_8_aja.wav,sh2j_8_aja.wav,,TRUE,FALSE,,,,,,,,,,,,,,f,0.7963,space,1.085,,,,,,,,0,50,50,121,1,,
5c345ebad4f77a0001a91ec0,2023-06-16_11h15.42.681,phx_ver10,2022.2.5,Win32,165.0437366,,,,,,,,,,,,108,testing_3,sh2x,au,sh2x_au,sh2x_8_auxau.wav,sh2x_1_aushau.wav,,FALSE,FALSE,,,,,,,,,,,,,,j,0.661,space,1.1596,,,,,,,,0,51,51,107,1,,
5c345ebad4f77a0001a91ec0,2023-06-16_11h15.42.681,phx_ver10,2022.2.5,Win32,165.0437366,,,,,,,,,,,,98,testing_3,sh2x,a,sh2x_a,sh2x_8_axa.wav,sh2x_8_axa.wav,,TRUE,FALSE,,,,,,,,,,,,,,f,0.413,space,0.9818,,,,,,,,0,52,52,97,1,,
5c345ebad4f77a0001a91ec0,2023-06-16_11h15.42.681,phx_ver10,2022.2.5,Win32,165.0437366,,,,,,,,,,,,48,testing_3,zh2sh,i,zh2sh_i,zh2sh_8_ishi.wav,zh2sh_1_izhi.wav,,FALSE,FALSE,,,,,,,,,,,,,,j,0.8179,space,1.4924,,,,,,,,0,53,53,47,1,,
5c345ebad4f77a0001a91ec0,2023-06-16_11h15.42.681,phx_ver10,2022.2.5,Win32,165.0437366,,,,,,,,,,,,118,testing_3,sh2x,i,sh2x_i,sh2x_8_ixi.wav,sh2x_8_ixi.wav,,TRUE,FALSE,,,,,,,,,,,,,,f,34.2977,space,35.9303,,,,,,,,0,54,54,117,1,,
5c345ebad4f77a0001a91ec0,2023-06-16_11h15.42.681,phx_ver10,2022.2.5,Win32,165.0437366,,,,,,,,,,,,129,testing_3,sh2j,au,sh2j_au,sh2j_1_aushau.wav,sh2j_1_aushau.wav,,TRUE,FALSE,,,,,,,,,,,,,,f,0.6739,space,1.0841,,,,,,,,0,55,55,128,1,,
5c345ebad4f77a0001a91ec0,2023-06-16_11h15.42.681,phx_ver10,2022.2.5,Win32,165.0437366,,,,,,,,,,,,67,testing_3,zh2j,ei,zh2j_ei,zh2j_1_eizhei.wav,zh2j_8_eijei.wav,,FALSE,FALSE,,,,,,,,,,,,,,f,0.5518,space,2.8125,,,,,,,,0,56,56,66,1,,
5c345ebad4f77a0001a91ec0,2023-06-16_11h15.42.681,phx_ver10,2022.2.5,Win32,165.0437366,,,,,,,,,,,,116,testing_3,sh2x,ei,sh2x_ei,sh2x_8_eixei.wav,sh2x_1_eishei.wav,,FALSE,FALSE,,,,,,,,,,,,,,f,0.4058,space,0.8064,,,,,,,,0,57,57,115,1,,
5c345ebad4f77a0001a91ec0,2023-06-16_11h15.42.681,phx_ver10,2022.2.5,Win32,165.0437366,,,,,,,,,,,,109,testing_3,sh2x,e,sh2x_e,sh2x_1_eshe.wav,sh2x_1_eshe.wav,,TRUE,FALSE,,,,,,,,,,,,,,f,0.0386,space,0.3655,,,,,,,,0,58,58,108,1,,
5c345ebad4f77a0001a91ec0,2023-06-16_11h15.42.681,phx_ver10,2022.2.5,Win32,165.0437366,,,,,,,,,,,,101,testing_3,sh2x,ai,sh2x_ai,sh2x_1_aishai.wav,sh2x_1_aishai.wav,,TRUE,FALSE,,,,,,,,,,,,,,f,0.1036,space,0.461,,,,,,,,0,59,59,100,1,,
5c345ebad4f77a0001a91ec0,2023-06-16_11h15.42.681,phx_ver10,2022.2.5,Win32,165.0437366,,,,,,,,,,,,53,testing_3,zh2j,ai,zh2j_ai,zh2j_1_aizhai.wav,zh2j_1_aizhai.wav,,TRUE,FALSE,,,,,,,,,,,,,,f,0.0556,space,0.3098,,,,,,,,0,60,60,52,1,,
5c345ebad4f77a0001a91ec0,2023-06-16_11h15.42.681,phx_ver10,2022.2.5,Win32,165.0437366,,,,,,,,,,,,96,testing_3,j2x,i,j2x_i,j2x_8_ixi.wav,j2x_1_iji.wav,,FALSE,FALSE,,,,,,,,,,,,,,f,0.3397,space,0.7346,,,,,,,,0,61,61,95,1,,
5c345ebad4f77a0001a91ec0,2023-06-16_11h15.42.681,phx_ver10,2022.2.5,Win32,165.0437366,,,,,,,,,,,,56,testing_3,zh2j,ai,zh2j_ai,zh2j_8_aijai.wav,zh2j_1_aizhai.wav,,FALSE,FALSE,,,,,,,,,,,,,,f,0.1666,space,0.5825,,,,,,,,0,62,62,55,1,,
5c345ebad4f77a0001a91ec0,2023-06-16_11h15.42.681,phx_ver10,2022.2.5,Win32,165.0437366,,,,,,,,,,,,31,testing_3,zh2sh,ai,zh2sh_ai,zh2sh_1_aizhai.wav,zh2sh_8_aishai.wav,,FALSE,FALSE,,,,,,,,,,,,,,j,0.4,space,0.7409,,,,,,,,0,63,63,30,1,,
5c345ebad4f77a0001a91ec0,2023-06-16_11h15.42.681,phx_ver10,2022.2.5,Win32,165.0437366,,,,,,,,,,,,5,testing_1,zh2x,e,zh2x_e,zh2x_1_ezhe.wav,zh2x_1_ezhe_copy.wav,,TRUE,TRUE,,,,,,,,,,,,,,f,0.4368,space,1.3457,,,,,,,,0,64,64,4,1,,
5c345ebad4f77a0001a91ec0,2023-06-16_11h15.42.681,phx_ver10,2022.2.5,Win32,165.0437366,,,,,,,,,,,,41,testing_3,zh2sh,ei,zh2sh_ei,zh2sh_1_eizhei.wav,zh2sh_1_eizhei.wav,,TRUE,FALSE,,,,,,,,,,,,,,f,0.3967,space,0.6495,,,,,,,,0,65,65,40,1,,
5c345ebad4f77a0001a91ec0,2023-06-16_11h15.42.681,phx_ver10,2022.2.5,Win32,165.0437366,,,,,,,,,,,,140,testing_3,sh2j,ei,sh2j_ei,sh2j_8_eijei.wav,sh2j_1_eishei.wav,,FALSE,FALSE,,,,,,,,,,,,,,j,0.8062,space,1.3158,,,,,,,,0,66,66,139,1,,
5c345ebad4f77a0001a91ec0,2023-06-16_11h15.42.681,phx_ver10,2022.2.5,Win32,165.0437366,,,,,,,,,,,,30,testing_3,zh2sh,ai,zh2sh_ai,zh2sh_8_aishai.wav,zh2sh_8_aishai.wav,,TRUE,FALSE,,,,,,,,,,,,,,f,0.457,space,0.9573,,,,,,,,0,67,67,29,1,,
5c345ebad4f77a0001a91ec0,2023-06-16_11h15.42.681,phx_ver10,2022.2.5,Win32,165.0437366,,,,,,,,,,,,12,testing_1,zh2x,i,zh2x_i,zh2x_8_ixi.wav,zh2x_1_izhi.wav,,FALSE,TRUE,,,,,,,,,,,,,,j,0.6136,space,0.8849,,,,,,,,0,68,68,11,1,,
5c345ebad4f77a0001a91ec0,2023-06-16_11h15.42.681,phx_ver10,2022.2.5,Win32,165.0437366,,,,,,,,,,,,39,testing_3,zh2sh,e,zh2sh_e,zh2sh_1_ezhe.wav,zh2sh_8_eshe.wav,,FALSE,FALSE,,,,,,,,,,,,,,j,1.657,space,2.0186,,,,,,,,0,69,69,38,1,,
5c345ebad4f77a0001a91ec0,2023-06-16_11h15.42.681,phx_ver10,2022.2.5,Win32,165.0437366,,,,,,,,,,,,22,testing_2,zh2x,ei,zh2x_ei,zh2x_8_eixei.wav,zh2x_8_eixei.wav,,TRUE,FALSE,,,,,,,,,,,,,,f,0.7234,space,1.1209,,,,,,,,0,70,70,21,1,,
5c345ebad4f77a0001a91ec0,2023-06-16_11h15.42.681,phx_ver10,2022.2.5,Win32,165.0437366,,,,,,,,,,,,71,testing_3,zh2j,i,zh2j_i,zh2j_1_izhi.wav,zh2j_8_iji.wav,,FALSE,FALSE,,,,,,,,,,,,,,f,0.4596,space,0.7568,,,,,,,,0,71,71,70,1,,
5c345ebad4f77a0001a91ec0,2023-06-16_11h15.42.681,phx_ver10,2022.2.5,Win32,165.0437366,,,,,,,,,,,,144,testing_3,sh2j,i,sh2j_i,sh2j_8_iji.wav,sh2j_1_ishi.wav,,FALSE,FALSE,,,,,,,,,,,,,,j,0.4116,space,0.8512,,,,,,,,0,72,72,143,1,,
5c345ebad4f77a0001a91ec0,2023-06-16_11h15.42.681,phx_ver10,2022.2.5,Win32,165.0437366,,,,,,,,,,,,107,testing_3,sh2x,au,sh2x_au,sh2x_1_aushau.wav,sh2x_8_auxau.wav,,FALSE,FALSE,,,,,,,,,,,,,,f,2.3463,space,2.8814,,,,,,,,0,73,73,106,1,,
5c345ebad4f77a0001a91ec0,2023-06-16_11h15.42.681,phx_ver10,2022.2.5,Win32,165.0437366,,,,,,,,,,,,139,testing_3,sh2j,ei,sh2j_ei,sh2j_1_eishei.wav,sh2j_8_eijei.wav,,FALSE,FALSE,,,,,,,,,,,,,,j,1.6383,space,2.607,,,,,,,,0,74,74,138,1,,
5c345ebad4f77a0001a91ec0,2023-06-16_11h15.42.681,phx_ver10,2022.2.5,Win32,165.0437366,,,,,,,,,,,,24,testing_2,zh2x,ei,zh2x_ei,zh2x_8_eixei.wav,zh2x_1_eizhei.wav,,FALSE,FALSE,,,,,,,,,,,,,,j,0.4122,space,0.6788,,,,,,,,0,75,75,23,1,,
5c345ebad4f77a0001a91ec0,2023-06-16_11h15.42.681,phx_ver10,2022.2.5,Win32,165.0437366,,,,,,,,,,,,110,testing_3,sh2x,e,sh2x_e,sh2x_8_exe.wav,sh2x_8_exe.wav,,TRUE,FALSE,,,,,,,,,,,,,,f,0.5771,space,0.7341,,,,,,,,0,76,76,109,1,,
5c345ebad4f77a0001a91ec0,2023-06-16_11h15.42.681,phx_ver10,2022.2.5,Win32,165.0437366,,,,,,,,,,,,36,testing_3,zh2sh,au,zh2sh_au,zh2sh_8_aushau.wav,zh2sh_1_auzhau.wav,,FALSE,FALSE,,,,,,,,,,,,,,j,0.2978,space,0.5398,,,,,,,,0,77,77,35,1,,
5c345ebad4f77a0001a91ec0,2023-06-16_11h15.42.681,phx_ver10,2022.2.5,Win32,165.0437366,,,,,,,,,,,,2,testing_1,zh2x,a,zh2x_a,zh2x_8_axa.wav,zh2x_8_axa_copy.wav,,TRUE,TRUE,,,,,,,,,,,,,,f,0.0674,space,0.2626,,,,,,,,0,78,78,1,1,,
5c345ebad4f77a0001a91ec0,2023-06-16_11h15.42.681,phx_ver10,2022.2.5,Win32,165.0437366,,,,,,,,,,,,95,testing_3,j2x,i,j2x_i,j2x_1_iji.wav,j2x_8_ixi.wav,,FALSE,FALSE,,,,,,,,,,,,,,j,1.0139,space,1.219,,,,,,,,0,79,79,94,1,,
5c345ebad4f77a0001a91ec0,2023-06-16_11h15.42.681,phx_ver10,2022.2.5,Win32,165.0437366,,,,,,,,,,,,97,testing_3,sh2x,a,sh2x_a,sh2x_1_asha.wav,sh2x_1_asha.wav,,TRUE,FALSE,,,,,,,,,,,,,,f,0.1828,space,0.4614,,,,,,,,0,80,80,96,1,,
5c345ebad4f77a0001a91ec0,2023-06-16_11h15.42.681,phx_ver10,2022.2.5,Win32,165.0437366,,,,,,,,,,,,60,testing_3,zh2j,au,zh2j_au,zh2j_8_aujau.wav,zh2j_1_auzhau.wav,,FALSE,FALSE,,,,,,,,,,,,,,f,0.1094,space,0.3943,,,,,,,,0,81,81,59,1,,
5c345ebad4f77a0001a91ec0,2023-06-16_11h15.42.681,phx_ver10,2022.2.5,Win32,165.0437366,,,,,,,,,,,,68,testing_3,zh2j,ei,zh2j_ei,zh2j_8_eijei.wav,zh2j_1_eizhei.wav,,FALSE,FALSE,,,,,,,,,,,,,,f,0.1151,space,0.3539,,,,,,,,0,82,82,67,1,,
5c345ebad4f77a0001a91ec0,2023-06-16_11h15.42.681,phx_ver10,2022.2.5,Win32,165.0437366,,,,,,,,,,,,73,testing_3,j2x,a,j2x_a,j2x_1_aja.wav,j2x_1_aja.wav,,TRUE,FALSE,,,,,,,,,,,,,,f,0.0669,space,0.3095,,,,,,,,0,83,83,72,1,,
5c345ebad4f77a0001a91ec0,2023-06-16_11h15.42.681,phx_ver10,2022.2.5,Win32,165.0437366,,,,,,,,,,,,74,testing_3,j2x,a,j2x_a,j2x_8_axa.wav,j2x_8_axa.wav,,TRUE,FALSE,,,,,,,,,,,,,,f,0.0611,space,0.2914,,,,,,,,0,84,84,73,1,,
5c345ebad4f77a0001a91ec0,2023-06-16_11h15.42.681,phx_ver10,2022.2.5,Win32,165.0437366,,,,,,,,,,,,16,testing_2,zh2x,ai,zh2x_ai,zh2x_8_aixai.wav,zh2x_1_aizhai.wav,,FALSE,FALSE,,,,,,,,,,,,,,j,0.0507,space,0.2995,,,,,,,,0,85,85,15,1,,
5c345ebad4f77a0001a91ec0,2023-06-16_11h15.42.681,phx_ver10,2022.2.5,Win32,165.0437366,,,,,,,,,,,,21,testing_2,zh2x,ei,zh2x_ei,zh2x_1_eizhei.wav,zh2x_1_eizhei.wav,,TRUE,FALSE,,,,,,,,,,,,,,f,0.2915,space,0.5717,,,,,,,,0,86,86,20,1,,
5c345ebad4f77a0001a91ec0,2023-06-16_11h15.42.681,phx_ver10,2022.2.5,Win32,165.0437366,,,,,,,,,,,,111,testing_3,sh2x,e,sh2x_e,sh2x_1_eshe.wav,sh2x_8_exe.wav,,FALSE,FALSE,,,,,,,,,,,,,,j,0.2189,space,0.4496,,,,,,,,0,87,87,110,1,,
5c345ebad4f77a0001a91ec0,2023-06-16_11h15.42.681,phx_ver10,2022.2.5,Win32,165.0437366,,,,,,,,,,,,9,testing_1,zh2x,i,zh2x_i,zh2x_1_izhi.wav,zh2x_1_izhi_copy.wav,,TRUE,TRUE,,,,,,,,,,,,,,f,0.0912,space,0.2796,,,,,,,,0,88,88,8,1,,
5c345ebad4f77a0001a91ec0,2023-06-16_11h15.42.681,phx_ver10,2022.2.5,Win32,165.0437366,,,,,,,,,,,,51,testing_3,zh2j,a,zh2j_a,zh2j_1_azha.wav,zh2j_8_aja.wav,,FALSE,FALSE,,,,,,,,,,,,,,j,3.6561,space,3.9291,,,,,,,,0,89,89,50,1,,
5c345ebad4f77a0001a91ec0,2023-06-16_11h15.42.681,phx_ver10,2022.2.5,Win32,165.0437366,,,,,,,,,,,,91,testing_3,j2x,ei,j2x_ei,j2x_1_eijei.wav,j2x_8_eixei.wav,,FALSE,FALSE,,,,,,,,,,,,,,j,0.3456,space,0.5633,,,,,,,,0,90,90,90,1,,
5c345ebad4f77a0001a91ec0,2023-06-16_11h15.42.681,phx_ver10,2022.2.5,Win32,165.0437366,,,,,,,,,,,,46,testing_3,zh2sh,i,zh2sh_i,zh2sh_8_ishi.wav,zh2sh_8_ishi.wav,,TRUE,FALSE,,,,,,,,,,,,,,f,0.1083,space,0.357,,,,,,,,0,91,91,45,1,,
5c345ebad4f77a0001a91ec0,2023-06-16_11h15.42.681,phx_ver10,2022.2.5,Win32,165.0437366,,,,,,,,,,,,19,testing_2,zh2x,au,zh2x_au,zh2x_1_auzhau.wav,zh2x_8_auxau.wav,,FALSE,FALSE,,,,,,,,,,,,,,j,0.0002,space,0.2186,,,,,,,,0,92,92,18,1,,
5c345ebad4f77a0001a91ec0,2023-06-16_11h15.42.681,phx_ver10,2022.2.5,Win32,165.0437366,,,,,,,,,,,,6,testing_1,zh2x,e,zh2x_e,zh2x_8_exe.wav,zh2x_8_exe_copy.wav,,TRUE,TRUE,,,,,,,,,,,,,,f,0.2567,space,0.4544,,,,,,,,0,93,93,5,1,,
5c345ebad4f77a0001a91ec0,2023-06-16_11h15.42.681,phx_ver10,2022.2.5,Win32,165.0437366,,,,,,,,,,,,105,testing_3,sh2x,au,sh2x_au,sh2x_1_aushau.wav,sh2x_1_aushau.wav,,TRUE,FALSE,,,,,,,,,,,,,,f,0.2266,space,0.4184,,,,,,,,0,94,94,104,1,,
5c345ebad4f77a0001a91ec0,2023-06-16_11h15.42.681,phx_ver10,2022.2.5,Win32,165.0437366,,,,,,,,,,,,27,testing_3,zh2sh,a,zh2sh_a,zh2sh_1_azha.wav,zh2sh_8_asha.wav,,FALSE,FALSE,,,,,,,,,,,,,,j,0.2128,space,0.4489,,,,,,,,0,95,95,26,1,,
5c345ebad4f77a0001a91ec0,2023-06-16_11h15.42.681,phx_ver10,2022.2.5,Win32,165.0437366,,,,,,,,,,,,59,testing_3,zh2j,au,zh2j_au,zh2j_1_auzhau.wav,zh2j_8_aujau.wav,,FALSE,FALSE,,,,,,,,,,,,,,f,0.2005,space,0.5474,,,,,,,,0,96,96,58,1,,
5c345ebad4f77a0001a91ec0,2023-06-16_11h15.42.681,phx_ver10,2022.2.5,Win32,165.0437366,,,,,,,,,,,,137,testing_3,sh2j,ei,sh2j_ei,sh2j_1_eishei.wav,sh2j_1_eishei.wav,,TRUE,FALSE,,,,,,,,,,,,,,f,0.1045,space,0.3039,,,,,,,,0,97,97,136,1,,
5c345ebad4f77a0001a91ec0,2023-06-16_11h15.42.681,phx_ver10,2022.2.5,Win32,165.0437366,,,,,,,,,,,,13,testing_2,zh2x,ai,zh2x_ai,zh2x_1_aizhai.wav,zh2x_1_aizhai.wav,,TRUE,FALSE,,,,,,,,,,,,,,f,0.2016,space,0.3887,,,,,,,,0,98,98,12,1,,
5c345ebad4f77a0001a91ec0,2023-06-16_11h15.42.681,phx_ver10,2022.2.5,Win32,165.0437366,,,,,,,,,,,,112,testing_3,sh2x,e,sh2x_e,sh2x_8_exe.wav,sh2x_1_eshe.wav,,FALSE,FALSE,,,,,,,,,,,,,,j,0.3415,space,0.5941,,,,,,,,0,99,99,111,1,,
5c345ebad4f77a0001a91ec0,2023-06-16_11h15.42.681,phx_ver10,2022.2.5,Win32,165.0437366,,,,,,,,,,,,93,testing_3,j2x,i,j2x_i,j2x_1_iji.wav,j2x_1_iji.wav,,TRUE,FALSE,,,,,,,,,,,,,,f,0.881,space,1.2062,,,,,,,,0,100,100,92,1,,
5c345ebad4f77a0001a91ec0,2023-06-16_11h15.42.681,phx_ver10,2022.2.5,Win32,165.0437366,,,,,,,,,,,,92,testing_3,j2x,ei,j2x_ei,j2x_8_eixei.wav,j2x_1_eijei.wav,,FALSE,FALSE,,,,,,,,,,,,,,j,0.0972,space,0.3665,,,,,,,,0,101,101,91,1,,
5c345ebad4f77a0001a91ec0,2023-06-16_11h15.42.681,phx_ver10,2022.2.5,Win32,165.0437366,,,,,,,,,,,,84,testing_3,j2x,au,j2x_au,j2x_8_auxau.wav,j2x_1_aujau.wav,,FALSE,FALSE,,,,,,,,,,,,,,j,0.2319,space,0.4878,,,,,,,,0,102,102,83,1,,
5c345ebad4f77a0001a91ec0,2023-06-16_11h15.42.681,phx_ver10,2022.2.5,Win32,165.0437366,,,,,,,,,,,,65,testing_3,zh2j,ei,zh2j_ei,zh2j_1_eizhei.wav,zh2j_1_eizhei.wav,,TRUE,FALSE,,,,,,,,,,,,,,f,0.0611,space,0.2568,,,,,,,,0,103,103,64,1,,
5c345ebad4f77a0001a91ec0,2023-06-16_11h15.42.681,phx_ver10,2022.2.5,Win32,165.0437366,,,,,,,,,,,,43,testing_3,zh2sh,ei,zh2sh_ei,zh2sh_1_eizhei.wav,zh2sh_8_eishei.wav,,FALSE,FALSE,,,,,,,,,,,,,,j,0.6088,space,1.0196,,,,,,,,0,104,104,42,1,,
5c345ebad4f77a0001a91ec0,2023-06-16_11h15.42.681,phx_ver10,2022.2.5,Win32,165.0437366,,,,,,,,,,,,113,testing_3,sh2x,ei,sh2x_ei,sh2x_1_eishei.wav,sh2x_1_eishei.wav,,TRUE,FALSE,,,,,,,,,,,,,,f,0.0359,space,0.2537,,,,,,,,0,105,105,112,1,,
5c345ebad4f77a0001a91ec0,2023-06-16_11h15.42.681,phx_ver10,2022.2.5,Win32,165.0437366,,,,,,,,,,,,128,testing_3,sh2j,ai,sh2j_ai,sh2j_8_aijai.wav,sh2j_1_aishai.wav,,FALSE,FALSE,,,,,,,,,,,,,,j,0.244,space,0.5155,,,,,,,,0,106,106,127,1,,
5c345ebad4f77a0001a91ec0,2023-06-16_11h15.42.681,phx_ver10,2022.2.5,Win32,165.0437366,,,,,,,,,,,,90,testing_3,j2x,ei,j2x_ei,j2x_8_eixei.wav,j2x_8_eixei.wav,,TRUE,FALSE,,,,,,,,,,,,,,f,0.1093,space,0.3214,,,,,,,,0,107,107,89,1,,
5c345ebad4f77a0001a91ec0,2023-06-16_11h15.42.681,phx_ver10,2022.2.5,Win32,165.0437366,,,,,,,,,,,,136,testing_3,sh2j,e,sh2j_e,sh2j_8_eje.wav,sh2j_1_eshe.wav,,FALSE,FALSE,,,,,,,,,,,,,,j,0.0189,space,0.4024,,,,,,,,0,108,108,135,1,,
5c345ebad4f77a0001a91ec0,2023-06-16_11h15.42.681,phx_ver10,2022.2.5,Win32,165.0437366,,,,,,,,,,,,102,testing_3,sh2x,ai,sh2x_ai,sh2x_8_aixai.wav,sh2x_8_aixai.wav,,TRUE,FALSE,,,,,,,,,,,,,,f,0.2676,space,0.5224,,,,,,,,0,109,109,101,1,,
5c345ebad4f77a0001a91ec0,2023-06-16_11h15.42.681,phx_ver10,2022.2.5,Win32,165.0437366,,,,,,,,,,,,135,testing_3,sh2j,e,sh2j_e,sh2j_1_eshe.wav,sh2j_8_eje.wav,,FALSE,FALSE,,,,,,,,,,,,,,j,0.0253,space,0.3308,,,,,,,,0,110,110,134,1,,
5c345ebad4f77a0001a91ec0,2023-06-16_11h15.42.681,phx_ver10,2022.2.5,Win32,165.0437366,,,,,,,,,,,,3,testing_1,zh2x,a,zh2x_a,zh2x_1_azha.wav,zh2x_8_axa.wav,,FALSE,TRUE,,,,,,,,,,,,,,j,0.0726,space,0.2982,,,,,,,,0,111,111,2,1,,
5c345ebad4f77a0001a91ec0,2023-06-16_11h15.42.681,phx_ver10,2022.2.5,Win32,165.0437366,,,,,,,,,,,,131,testing_3,sh2j,au,sh2j_au,sh2j_1_aushau.wav,sh2j_8_aujau.wav,,FALSE,FALSE,,,,,,,,,,,,,,j,0.3093,space,0.5407,,,,,,,,0,112,112,130,1,,
5c345ebad4f77a0001a91ec0,2023-06-16_11h15.42.681,phx_ver10,2022.2.5,Win32,165.0437366,,,,,,,,,,,,7,testing_1,zh2x,e,zh2x_e,zh2x_1_ezhe.wav,zh2x_8_exe.wav,,FALSE,TRUE,,,,,,,,,,,,,,j,0.1701,space,0.4064,,,,,,,,0,113,113,6,1,,
5c345ebad4f77a0001a91ec0,2023-06-16_11h15.42.681,phx_ver10,2022.2.5,Win32,165.0437366,,,,,,,,,,,,88,testing_3,j2x,e,j2x_e,j2x_8_exe.wav,j2x_1_eje.wav,,FALSE,FALSE,,,,,,,,,,,,,,j,0.1271,space,0.3935,,,,,,,,0,114,114,87,1,,
5c345ebad4f77a0001a91ec0,2023-06-16_11h15.42.681,phx_ver10,2022.2.5,Win32,165.0437366,,,,,,,,,,,,72,testing_3,zh2j,i,zh2j_i,zh2j_8_iji.wav,zh2j_1_izhi.wav,,FALSE,FALSE,,,,,,,,,,,,,,f,0.1277,space,0.4673,,,,,,,,0,115,115,71,1,,
5c345ebad4f77a0001a91ec0,2023-06-16_11h15.42.681,phx_ver10,2022.2.5,Win32,165.0437366,,,,,,,,,,,,17,testing_2,zh2x,au,zh2x_au,zh2x_1_auzhau.wav,zh2x_1_auzhau.wav,,TRUE,FALSE,,,,,,,,,,,,,,f,0.1944,space,0.4851,,,,,,,,0,116,116,16,1,,
5c345ebad4f77a0001a91ec0,2023-06-16_11h15.42.681,phx_ver10,2022.2.5,Win32,165.0437366,,,,,,,,,,,,70,testing_3,zh2j,i,zh2j_i,zh2j_8_iji.wav,zh2j_8_iji.wav,,TRUE,FALSE,,,,,,,,,,,,,,f,0.0684,space,0.2919,,,,,,,,0,117,117,69,1,,
5c345ebad4f77a0001a91ec0,2023-06-16_11h15.42.681,phx_ver10,2022.2.5,Win32,165.0437366,,,,,,,,,,,,94,testing_3,j2x,i,j2x_i,j2x_8_ixi.wav,j2x_8_ixi.wav,,TRUE,FALSE,,,,,,,,,,,,,,f,0.1817,space,0.4489,,,,,,,,0,118,118,93,1,,
5c345ebad4f77a0001a91ec0,2023-06-16_11h15.42.681,phx_ver10,2022.2.5,Win32,165.0437366,,,,,,,,,,,,29,testing_3,zh2sh,ai,zh2sh_ai,zh2sh_1_aizhai.wav,zh2sh_1_aizhai.wav,,TRUE,FALSE,,,,,,,,,,,,,,f,0.1283,space,0.3518,,,,,,,,0,119,119,28,1,,
5c345ebad4f77a0001a91ec0,2023-06-16_11h15.42.681,phx_ver10,2022.2.5,Win32,165.0437366,,,,,,,,,,,,10,testing_1,zh2x,i,zh2x_i,zh2x_8_ixi.wav,zh2x_8_ixi_copy.wav,,TRUE,TRUE,,,,,,,,,,,,,,j,2.1882,space,2.5092,,,,,,,,0,120,120,9,1,,
5c345ebad4f77a0001a91ec0,2023-06-16_11h15.42.681,phx_ver10,2022.2.5,Win32,165.0437366,,,,,,,,,,,,134,testing_3,sh2j,e,sh2j_e,sh2j_8_eje.wav,sh2j_8_eje.wav,,TRUE,FALSE,,,,,,,,,,,,,,f,0.3284,space,0.5631,,,,,,,,0,121,121,133,1,,
5c345ebad4f77a0001a91ec0,2023-06-16_11h15.42.681,phx_ver10,2022.2.5,Win32,165.0437366,,,,,,,,,,,,35,testing_3,zh2sh,au,zh2sh_au,zh2sh_1_auzhau.wav,zh2sh_8_aushau.wav,,FALSE,FALSE,,,,,,,,,,,,,,j,0.0853,space,0.395,,,,,,,,0,122,122,34,1,,
5c345ebad4f77a0001a91ec0,2023-06-16_11h15.42.681,phx_ver10,2022.2.5,Win32,165.0437366,,,,,,,,,,,,82,testing_3,j2x,au,j2x_au,j2x_8_auxau.wav,j2x_8_auxau.wav,,TRUE,FALSE,,,,,,,,,,,,,,f,0.1181,space,0.3118,,,,,,,,0,123,123,81,1,,
5c345ebad4f77a0001a91ec0,2023-06-16_11h15.42.681,phx_ver10,2022.2.5,Win32,165.0437366,,,,,,,,,,,,33,testing_3,zh2sh,au,zh2sh_au,zh2sh_1_auzhau.wav,zh2sh_1_auzhau.wav,,TRUE,FALSE,,,,,,,,,,,,,,f,0.1938,space,0.3638,,,,,,,,0,124,124,32,1,,
5c345ebad4f77a0001a91ec0,2023-06-16_11h15.42.681,phx_ver10,2022.2.5,Win32,165.0437366,,,,,,,,,,,,120,testing_3,sh2x,i,sh2x_i,sh2x_8_ixi.wav,sh2x_1_ishi.wav,,FALSE,FALSE,,,,,,,,,,,,,,f,0.1575,space,0.3397,,,,,,,,0,125,125,119,1,,
5c345ebad4f77a0001a91ec0,2023-06-16_11h15.42.681,phx_ver10,2022.2.5,Win32,165.0437366,,,,,,,,,,,,47,testing_3,zh2sh,i,zh2sh_i,zh2sh_1_izhi.wav,zh2sh_8_ishi.wav,,FALSE,FALSE,,,,,,,,,,,,,,j,0.164,space,0.4383,,,,,,,,0,126,126,46,1,,
5c345ebad4f77a0001a91ec0,2023-06-16_11h15.42.681,phx_ver10,2022.2.5,Win32,165.0437366,,,,,,,,,,,,50,testing_3,zh2j,a,zh2j_a,zh2j_8_aja.wav,zh2j_8_aja.wav,,TRUE,FALSE,,,,,,,,,,,,,,f,0.2121,space,0.4304,,,,,,,,0,127,127,49,1,,
5c345ebad4f77a0001a91ec0,2023-06-16_11h15.42.681,phx_ver10,2022.2.5,Win32,165.0437366,,,,,,,,,,,,117,testing_3,sh2x,i,sh2x_i,sh2x_1_ishi.wav,sh2x_1_ishi.wav,,TRUE,FALSE,,,,,,,,,,,,,,f,0.8064,space,1.4003,,,,,,,,0,128,128,116,1,,
5c345ebad4f77a0001a91ec0,2023-06-16_11h15.42.681,phx_ver10,2022.2.5,Win32,165.0437366,,,,,,,,,,,,23,testing_2,zh2x,ei,zh2x_ei,zh2x_1_eizhei.wav,zh2x_8_eixei.wav,,FALSE,FALSE,,,,,,,,,,,,,,j,0.1887,space,0.4184,,,,,,,,0,129,129,22,1,,
5c345ebad4f77a0001a91ec0,2023-06-16_11h15.42.681,phx_ver10,2022.2.5,Win32,165.0437366,,,,,,,,,,,,1,testing_1,zh2x,a,zh2x_a,zh2x_1_azha.wav,zh2x_1_azha_copy.wav,,TRUE,TRUE,,,,,,,,,,,,,,f,0.1755,space,0.4421,,,,,,,,0,130,130,0,1,,
5c345ebad4f77a0001a91ec0,2023-06-16_11h15.42.681,phx_ver10,2022.2.5,Win32,165.0437366,,,,,,,,,,,,32,testing_3,zh2sh,ai,zh2sh_ai,zh2sh_8_aishai.wav,zh2sh_1_aizhai.wav,,FALSE,FALSE,,,,,,,,,,,,,,j,0.3234,space,0.5648,,,,,,,,0,131,131,31,1,,
5c345ebad4f77a0001a91ec0,2023-06-16_11h15.42.681,phx_ver10,2022.2.5,Win32,165.0437366,,,,,,,,,,,,126,testing_3,sh2j,ai,sh2j_ai,sh2j_8_aijai.wav,sh2j_8_aijai.wav,,TRUE,FALSE,,,,,,,,,,,,,,f,0.1824,space,0.3911,,,,,,,,0,132,132,125,1,,
5c345ebad4f77a0001a91ec0,2023-06-16_11h15.42.681,phx_ver10,2022.2.5,Win32,165.0437366,,,,,,,,,,,,4,testing_1,zh2x,a,zh2x_a,zh2x_8_axa.wav,zh2x_1_azha.wav,,FALSE,TRUE,,,,,,,,,,,,,,j,0.1094,space,0.346,,,,,,,,0,133,133,3,1,,
5c345ebad4f77a0001a91ec0,2023-06-16_11h15.42.681,phx_ver10,2022.2.5,Win32,165.0437366,,,,,,,,,,,,121,testing_3,sh2j,a,sh2j_a,sh2j_1_asha.wav,sh2j_1_asha.wav,,TRUE,FALSE,,,,,,,,,,,,,,f,0.5091,space,0.7516,,,,,,,,0,134,134,120,1,,
5c345ebad4f77a0001a91ec0,2023-06-16_11h15.42.681,phx_ver10,2022.2.5,Win32,165.0437366,,,,,,,,,,,,81,testing_3,j2x,au,j2x_au,j2x_1_aujau.wav,j2x_1_aujau.wav,,TRUE,FALSE,,,,,,,,,,,,,,f,0.1704,space,0.3587,,,,,,,,0,135,135,80,1,,
5c345ebad4f77a0001a91ec0,2023-06-16_11h15.42.681,phx_ver10,2022.2.5,Win32,165.0437366,,,,,,,,,,,,55,testing_3,zh2j,ai,zh2j_ai,zh2j_1_aizhai.wav,zh2j_8_aijai.wav,,FALSE,FALSE,,,,,,,,,,,,,,f,0.1157,space,0.3284,,,,,,,,0,136,136,54,1,,
5c345ebad4f77a0001a91ec0,2023-06-16_11h15.42.681,phx_ver10,2022.2.5,Win32,165.0437366,,,,,,,,,,,,115,testing_3,sh2x,ei,sh2x_ei,sh2x_1_eishei.wav,sh2x_8_eixei.wav,,FALSE,FALSE,,,,,,,,,,,,,,j,0.2066,space,0.5951,,,,,,,,0,137,137,114,1,,
5c345ebad4f77a0001a91ec0,2023-06-16_11h15.42.681,phx_ver10,2022.2.5,Win32,165.0437366,,,,,,,,,,,,124,testing_3,sh2j,a,sh2j_a,sh2j_8_aja.wav,sh2j_1_asha.wav,,FALSE,FALSE,,,,,,,,,,,,,,j,0.1519,space,0.3715,,,,,,,,0,138,138,123,1,,
5c345ebad4f77a0001a91ec0,2023-06-16_11h15.42.681,phx_ver10,2022.2.5,Win32,165.0437366,,,,,,,,,,,,83,testing_3,j2x,au,j2x_au,j2x_1_aujau.wav,j2x_8_auxau.wav,,FALSE,FALSE,,,,,,,,,,,,,,j,0.2445,space,0.4601,,,,,,,,0,139,139,82,1,,
5c345ebad4f77a0001a91ec0,2023-06-16_11h15.42.681,phx_ver10,2022.2.5,Win32,165.0437366,,,,,,,,,,,,26,testing_3,zh2sh,a,zh2sh_a,zh2sh_8_asha.wav,zh2sh_8_asha.wav,,TRUE,FALSE,,,,,,,,,,,,,,f,0.0664,space,0.315,,,,,,,,0,140,140,25,1,,
5c345ebad4f77a0001a91ec0,2023-06-16_11h15.42.681,phx_ver10,2022.2.5,Win32,165.0437366,,,,,,,,,,,,34,testing_3,zh2sh,au,zh2sh_au,zh2sh_8_aushau.wav,zh2sh_8_aushau.wav,,TRUE,FALSE,,,,,,,,,,,,,,f,0.0974,space,0.2485,,,,,,,,0,141,141,33,1,,
5c345ebad4f77a0001a91ec0,2023-06-16_11h15.42.681,phx_ver10,2022.2.5,Win32,165.0437366,,,,,,,,,,,,11,testing_1,zh2x,i,zh2x_i,zh2x_1_izhi.wav,zh2x_8_ixi.wav,,FALSE,TRUE,,,,,,,,,,,,,,j,0.2548,space,0.4973,,,,,,,,0,142,142,10,1,,
5c345ebad4f77a0001a91ec0,2023-06-16_11h15.42.681,phx_ver10,2022.2.5,Win32,165.0437366,,,,,,,,,,,,44,testing_3,zh2sh,ei,zh2sh_ei,zh2sh_8_eishei.wav,zh2sh_1_eizhei.wav,,FALSE,FALSE,,,,,,,,,,,,,,j,0.2247,space,0.4852,,,,,,,,0,143,143,43,1,,
5c345ebad4f77a0001a91ec0,2023-06-16_11h15.42.681,phx_ver10,2022.2.5,Win32,165.0437366,,,,,,,,,,,,,,,,,,,,,,,,,,,,,,,,,,,,,,,,,,,,,,,,,,,space,2.2601
