participant,date,expName,psychopyVersion,OS,frameRate,space_1.keys,space_1.rt,space_2.keys,space_2.rt,space_train.keys,space_train.rt,training.thisRepN,training.thisTrialN,training.thisN,training.thisIndex,training.ran,token_id,task,continuum,vowel,series,sound_1,sound_2,img,same,trained,FJ_attn.keys,FJ_attn.rt,space_attn.keys,space_attn.rt,if_attn_test.thisRepN,if_attn_test.thisTrialN,if_attn_test.thisN,if_attn_test.thisIndex,if_attn_test.ran,space_trans_1.keys,space_trans_1.rt,space_trans_11.keys,space_trans_11.rt,FJ_test.keys,FJ_test.rt,space_test.keys,space_test.rt,testing_pre.thisRepN,testing_pre.thisTrialN,testing_pre.thisN,testing_pre.thisIndex,testing_pre.ran,space_trans_2.keys,space_trans_2.rt,testing_all.thisRepN,testing_all.thisTrialN,testing_all.thisN,testing_all.thisIndex,testing_all.ran,space_ending.keys,space_ending.rt
5c364ce2ba92810001db13e8,2023-06-16_09h58.41.668,phx_ver10,2022.2.5,Win32,60.04202942,,,,,,,,,,,,,,,,,,,,,,,,,,,,,,,,,,,,,,,,,,,,,,,,,,,,
5c364ce2ba92810001db13e8,2023-06-16_09h58.41.668,phx_ver10,2022.2.5,Win32,60.04202942,space,1.8243,,,,,,,,,,,,,,,,,,,,,,,,,,,,,,,,,,,,,,,,,,,,,,,,,,
5c364ce2ba92810001db13e8,2023-06-16_09h58.41.668,phx_ver10,2022.2.5,Win32,60.04202942,,,space,1.2003,,,,,,,,,,,,,,,,,,,,,,,,,,,,,,,,,,,,,,,,,,,,,,,,
5c364ce2ba92810001db13e8,2023-06-16_09h58.41.668,phx_ver10,2022.2.5,Win32,60.04202942,,,,,space,15.6055,0,0,0,7,1,8,training,zh2x,a,zh2x_a,zh2x_4_azha.wav,,azha.jpg,,,,,,,,,,,,,,,,,,,,,,,,,,,,,,,,,
5c364ce2ba92810001db13e8,2023-06-16_09h58.41.668,phx_ver10,2022.2.5,Win32,60.04202942,,,,,space,2.0208,0,1,1,12,1,13,training,zh2x,a,zh2x_a,zh2x_7_axa.wav,,axa.jpg,,,,,,,,,,,,,,,,,,,,,,,,,,,,,,,,,
5c364ce2ba92810001db13e8,2023-06-16_09h58.41.668,phx_ver10,2022.2.5,Win32,60.04202942,,,,,space,1.488,0,2,2,23,1,24,training,zh2x,e,zh2x_e,zh2x_4_ezhe.wav,,ezhe.jpg,,,,,,,,,,,,,,,,,,,,,,,,,,,,,,,,,
5c364ce2ba92810001db13e8,2023-06-16_09h58.41.668,phx_ver10,2022.2.5,Win32,60.04202942,,,,,space,1.4799,0,3,3,47,1,48,training,zh2x,i,zh2x_i,zh2x_8_ixi.wav,,ixi.jpg,,,,,,,,,,,,,,,,,,,,,,,,,,,,,,,,,
5c364ce2ba92810001db13e8,2023-06-16_09h58.41.668,phx_ver10,2022.2.5,Win32,60.04202942,,,,,space,0.8698,0,4,4,5,1,6,training,zh2x,a,zh2x_a,zh2x_3_azha.wav,,azha.jpg,,,,,,,,,,,,,,,,,,,,,,,,,,,,,,,,,
5c364ce2ba92810001db13e8,2023-06-16_09h58.41.668,phx_ver10,2022.2.5,Win32,60.04202942,,,,,space,0.9204,0,5,5,40,1,41,training,zh2x,i,zh2x_i,zh2x_5_ixi.wav,,ixi.jpg,,,,,,,,,,,,,,,,,,,,,,,,,,,,,,,,,
5c364ce2ba92810001db13e8,2023-06-16_09h58.41.668,phx_ver10,2022.2.5,Win32,60.04202942,,,,,,,,,,,,,attn_test,,,,zh2x_1_azha.wav,zh2x_8_exe.wav,azha.jpg,LEFT,,f,1.246,space,2.6139,0,0,0,0,1,,,,,,,,,,,,,,,,,,,,,,
5c364ce2ba92810001db13e8,2023-06-16_09h58.41.668,phx_ver10,2022.2.5,Win32,60.04202942,,,,,space,1.3175,0,6,6,17,1,18,training,zh2x,e,zh2x_e,zh2x_2_ezhe.wav,,ezhe.jpg,,,,,,,,,,,,,,,,,,,,,,,,,,,,,,,,,
5c364ce2ba92810001db13e8,2023-06-16_09h58.41.668,phx_ver10,2022.2.5,Win32,60.04202942,,,,,space,0.669,0,7,7,35,1,36,training,zh2x,i,zh2x_i,zh2x_2_izhi.wav,,izhi.jpg,,,,,,,,,,,,,,,,,,,,,,,,,,,,,,,,,
5c364ce2ba92810001db13e8,2023-06-16_09h58.41.668,phx_ver10,2022.2.5,Win32,60.04202942,,,,,space,0.5259,0,8,8,16,1,17,training,zh2x,e,zh2x_e,zh2x_1_ezhe.wav,,ezhe.jpg,,,,,,,,,,,,,,,,,,,,,,,,,,,,,,,,,
5c364ce2ba92810001db13e8,2023-06-16_09h58.41.668,phx_ver10,2022.2.5,Win32,60.04202942,,,,,space,0.2177,0,9,9,25,1,26,training,zh2x,e,zh2x_e,zh2x_6_exe.wav,,exe.jpg,,,,,,,,,,,,,,,,,,,,,,,,,,,,,,,,,
5c364ce2ba92810001db13e8,2023-06-16_09h58.41.668,phx_ver10,2022.2.5,Win32,60.04202942,,,,,space,0.2026,0,10,10,41,1,42,training,zh2x,i,zh2x_i,zh2x_6_ixi.wav,,ixi.jpg,,,,,,,,,,,,,,,,,,,,,,,,,,,,,,,,,
5c364ce2ba92810001db13e8,2023-06-16_09h58.41.668,phx_ver10,2022.2.5,Win32,60.04202942,,,,,space,0.3222,0,11,11,8,1,9,training,zh2x,a,zh2x_a,zh2x_5_axa.wav,,axa.jpg,,,,,,,,,,,,,,,,,,,,,,,,,,,,,,,,,
5c364ce2ba92810001db13e8,2023-06-16_09h58.41.668,phx_ver10,2022.2.5,Win32,60.04202942,,,,,,,,,,,,,attn_test,,,,zh2x_8_exe.wav,zh2x_1_ezhe.wav,exe.jpg,LEFT,,j,1.101,space,2.2519,0,0,0,0,1,,,,,,,,,,,,,,,,,,,,,,
5c364ce2ba92810001db13e8,2023-06-16_09h58.41.668,phx_ver10,2022.2.5,Win32,60.04202942,,,,,space,1.0336,0,12,12,0,1,1,training,zh2x,a,zh2x_a,zh2x_1_azha.wav,,azha.jpg,,,,,,,,,,,,,,,,,,,,,,,,,,,,,,,,,
5c364ce2ba92810001db13e8,2023-06-16_09h58.41.668,phx_ver10,2022.2.5,Win32,60.04202942,,,,,space,0.5845,0,13,13,28,1,29,training,zh2x,e,zh2x_e,zh2x_7_exe.wav,,exe.jpg,,,,,,,,,,,,,,,,,,,,,,,,,,,,,,,,,
5c364ce2ba92810001db13e8,2023-06-16_09h58.41.668,phx_ver10,2022.2.5,Win32,60.04202942,,,,,space,0.485,0,14,14,39,1,40,training,zh2x,i,zh2x_i,zh2x_4_izhi.wav,,izhi.jpg,,,,,,,,,,,,,,,,,,,,,,,,,,,,,,,,,
5c364ce2ba92810001db13e8,2023-06-16_09h58.41.668,phx_ver10,2022.2.5,Win32,60.04202942,,,,,space,0.2191,0,15,15,20,1,21,training,zh2x,e,zh2x_e,zh2x_2_ezhe.wav,,ezhe.jpg,,,,,,,,,,,,,,,,,,,,,,,,,,,,,,,,,
5c364ce2ba92810001db13e8,2023-06-16_09h58.41.668,phx_ver10,2022.2.5,Win32,60.04202942,,,,,space,0.0346,0,16,16,18,1,19,training,zh2x,e,zh2x_e,zh2x_2_ezhe.wav,,ezhe.jpg,,,,,,,,,,,,,,,,,,,,,,,,,,,,,,,,,
5c364ce2ba92810001db13e8,2023-06-16_09h58.41.668,phx_ver10,2022.2.5,Win32,60.04202942,,,,,space,0.0514,0,17,17,44,1,45,training,zh2x,i,zh2x_i,zh2x_7_ixi.wav,,ixi.jpg,,,,,,,,,,,,,,,,,,,,,,,,,,,,,,,,,
5c364ce2ba92810001db13e8,2023-06-16_09h58.41.668,phx_ver10,2022.2.5,Win32,60.04202942,,,,,,,,,,,,,attn_test,,,,zh2x_8_axa.wav,zh2x_1_ezhe.wav,ezhe.jpg,RIGHT,,j,0.0011,space,0.9466,0,0,0,0,1,,,,,,,,,,,,,,,,,,,,,,
5c364ce2ba92810001db13e8,2023-06-16_09h58.41.668,phx_ver10,2022.2.5,Win32,60.04202942,,,,,space,1.4764,0,18,18,33,1,34,training,zh2x,i,zh2x_i,zh2x_2_izhi.wav,,izhi.jpg,,,,,,,,,,,,,,,,,,,,,,,,,,,,,,,,,
5c364ce2ba92810001db13e8,2023-06-16_09h58.41.668,phx_ver10,2022.2.5,Win32,60.04202942,,,,,space,0.535,0,19,19,46,1,47,training,zh2x,i,zh2x_i,zh2x_7_ixi.wav,,ixi.jpg,,,,,,,,,,,,,,,,,,,,,,,,,,,,,,,,,
5c364ce2ba92810001db13e8,2023-06-16_09h58.41.668,phx_ver10,2022.2.5,Win32,60.04202942,,,,,space,0.3184,0,20,20,24,1,25,training,zh2x,e,zh2x_e,zh2x_5_exe.wav,,exe.jpg,,,,,,,,,,,,,,,,,,,,,,,,,,,,,,,,,
5c364ce2ba92810001db13e8,2023-06-16_09h58.41.668,phx_ver10,2022.2.5,Win32,60.04202942,,,,,space,0.1243,0,21,21,14,1,15,training,zh2x,a,zh2x_a,zh2x_7_axa.wav,,axa.jpg,,,,,,,,,,,,,,,,,,,,,,,,,,,,,,,,,
5c364ce2ba92810001db13e8,2023-06-16_09h58.41.668,phx_ver10,2022.2.5,Win32,60.04202942,,,,,space,0.0357,0,22,22,6,1,7,training,zh2x,a,zh2x_a,zh2x_3_azha.wav,,azha.jpg,,,,,,,,,,,,,,,,,,,,,,,,,,,,,,,,,
5c364ce2ba92810001db13e8,2023-06-16_09h58.41.668,phx_ver10,2022.2.5,Win32,60.04202942,,,,,space,0.0691,0,23,23,1,1,2,training,zh2x,a,zh2x_a,zh2x_2_azha.wav,,azha.jpg,,,,,,,,,,,,,,,,,,,,,,,,,,,,,,,,,
5c364ce2ba92810001db13e8,2023-06-16_09h58.41.668,phx_ver10,2022.2.5,Win32,60.04202942,,,,,,,,,,,,,attn_test,,,,zh2x_8_exe.wav,zh2x_8_axa.wav,exe.jpg,LEFT,,f,0.0354,space,0.6845,0,0,0,0,1,,,,,,,,,,,,,,,,,,,,,,
5c364ce2ba92810001db13e8,2023-06-16_09h58.41.668,phx_ver10,2022.2.5,Win32,60.04202942,,,,,space,0.5671,0,24,24,27,1,28,training,zh2x,e,zh2x_e,zh2x_7_exe.wav,,exe.jpg,,,,,,,,,,,,,,,,,,,,,,,,,,,,,,,,,
5c364ce2ba92810001db13e8,2023-06-16_09h58.41.668,phx_ver10,2022.2.5,Win32,60.04202942,,,,,space,1.3848,0,25,25,29,1,30,training,zh2x,e,zh2x_e,zh2x_7_exe.wav,,exe.jpg,,,,,,,,,,,,,,,,,,,,,,,,,,,,,,,,,
5c364ce2ba92810001db13e8,2023-06-16_09h58.41.668,phx_ver10,2022.2.5,Win32,60.04202942,,,,,space,0.4804,0,26,26,45,1,46,training,zh2x,i,zh2x_i,zh2x_7_ixi.wav,,ixi.jpg,,,,,,,,,,,,,,,,,,,,,,,,,,,,,,,,,
5c364ce2ba92810001db13e8,2023-06-16_09h58.41.668,phx_ver10,2022.2.5,Win32,60.04202942,,,,,space,0.2849,0,27,27,22,1,23,training,zh2x,e,zh2x_e,zh2x_3_ezhe.wav,,ezhe.jpg,,,,,,,,,,,,,,,,,,,,,,,,,,,,,,,,,
5c364ce2ba92810001db13e8,2023-06-16_09h58.41.668,phx_ver10,2022.2.5,Win32,60.04202942,,,,,space,0.185,0,28,28,38,1,39,training,zh2x,i,zh2x_i,zh2x_3_izhi.wav,,izhi.jpg,,,,,,,,,,,,,,,,,,,,,,,,,,,,,,,,,
5c364ce2ba92810001db13e8,2023-06-16_09h58.41.668,phx_ver10,2022.2.5,Win32,60.04202942,,,,,space,0.0182,0,29,29,36,1,37,training,zh2x,i,zh2x_i,zh2x_2_izhi.wav,,izhi.jpg,,,,,,,,,,,,,,,,,,,,,,,,,,,,,,,,,
5c364ce2ba92810001db13e8,2023-06-16_09h58.41.668,phx_ver10,2022.2.5,Win32,60.04202942,,,,,,,,,,,,,attn_test,,,,zh2x_8_exe.wav,zh2x_8_ixi.wav,ixi.jpg,RIGHT,,j,0.2502,space,0.7684,0,0,0,0,1,,,,,,,,,,,,,,,,,,,,,,
5c364ce2ba92810001db13e8,2023-06-16_09h58.41.668,phx_ver10,2022.2.5,Win32,60.04202942,,,,,space,0.5922,0,30,30,19,1,20,training,zh2x,e,zh2x_e,zh2x_2_ezhe.wav,,ezhe.jpg,,,,,,,,,,,,,,,,,,,,,,,,,,,,,,,,,
5c364ce2ba92810001db13e8,2023-06-16_09h58.41.668,phx_ver10,2022.2.5,Win32,60.04202942,,,,,space,0.1518,0,31,31,9,1,10,training,zh2x,a,zh2x_a,zh2x_6_axa.wav,,axa.jpg,,,,,,,,,,,,,,,,,,,,,,,,,,,,,,,,,
5c364ce2ba92810001db13e8,2023-06-16_09h58.41.668,phx_ver10,2022.2.5,Win32,60.04202942,,,,,space,0.2328,0,32,32,11,1,12,training,zh2x,a,zh2x_a,zh2x_7_axa.wav,,axa.jpg,,,,,,,,,,,,,,,,,,,,,,,,,,,,,,,,,
5c364ce2ba92810001db13e8,2023-06-16_09h58.41.668,phx_ver10,2022.2.5,Win32,60.04202942,,,,,space,0.0499,0,33,33,13,1,14,training,zh2x,a,zh2x_a,zh2x_7_axa.wav,,axa.jpg,,,,,,,,,,,,,,,,,,,,,,,,,,,,,,,,,
5c364ce2ba92810001db13e8,2023-06-16_09h58.41.668,phx_ver10,2022.2.5,Win32,60.04202942,,,,,space,0.0353,0,34,34,34,1,35,training,zh2x,i,zh2x_i,zh2x_2_izhi.wav,,izhi.jpg,,,,,,,,,,,,,,,,,,,,,,,,,,,,,,,,,
5c364ce2ba92810001db13e8,2023-06-16_09h58.41.668,phx_ver10,2022.2.5,Win32,60.04202942,,,,,space,0.085,0,35,35,21,1,22,training,zh2x,e,zh2x_e,zh2x_3_ezhe.wav,,ezhe.jpg,,,,,,,,,,,,,,,,,,,,,,,,,,,,,,,,,
5c364ce2ba92810001db13e8,2023-06-16_09h58.41.668,phx_ver10,2022.2.5,Win32,60.04202942,,,,,,,,,,,,,attn_test,,,,zh2x_1_ezhe.wav,zh2x_1_izhi.wav,izhi.jpg,RIGHT,,j,0.4688,space,0.8529,0,0,0,0,1,,,,,,,,,,,,,,,,,,,,,,
5c364ce2ba92810001db13e8,2023-06-16_09h58.41.668,phx_ver10,2022.2.5,Win32,60.04202942,,,,,space,0.8027,0,36,36,42,1,43,training,zh2x,i,zh2x_i,zh2x_6_ixi.wav,,ixi.jpg,,,,,,,,,,,,,,,,,,,,,,,,,,,,,,,,,
5c364ce2ba92810001db13e8,2023-06-16_09h58.41.668,phx_ver10,2022.2.5,Win32,60.04202942,,,,,space,0.167,0,37,37,30,1,31,training,zh2x,e,zh2x_e,zh2x_7_exe.wav,,exe.jpg,,,,,,,,,,,,,,,,,,,,,,,,,,,,,,,,,
5c364ce2ba92810001db13e8,2023-06-16_09h58.41.668,phx_ver10,2022.2.5,Win32,60.04202942,,,,,space,0.02,0,38,38,15,1,16,training,zh2x,a,zh2x_a,zh2x_8_axa.wav,,axa.jpg,,,,,,,,,,,,,,,,,,,,,,,,,,,,,,,,,
5c364ce2ba92810001db13e8,2023-06-16_09h58.41.668,phx_ver10,2022.2.5,Win32,60.04202942,,,,,space,0.0674,0,39,39,37,1,38,training,zh2x,i,zh2x_i,zh2x_3_izhi.wav,,izhi.jpg,,,,,,,,,,,,,,,,,,,,,,,,,,,,,,,,,
5c364ce2ba92810001db13e8,2023-06-16_09h58.41.668,phx_ver10,2022.2.5,Win32,60.04202942,,,,,space,0.132,0,40,40,2,1,3,training,zh2x,a,zh2x_a,zh2x_2_azha.wav,,azha.jpg,,,,,,,,,,,,,,,,,,,,,,,,,,,,,,,,,
5c364ce2ba92810001db13e8,2023-06-16_09h58.41.668,phx_ver10,2022.2.5,Win32,60.04202942,,,,,space,0.1277,0,41,41,26,1,27,training,zh2x,e,zh2x_e,zh2x_6_exe.wav,,exe.jpg,,,,,,,,,,,,,,,,,,,,,,,,,,,,,,,,,
5c364ce2ba92810001db13e8,2023-06-16_09h58.41.668,phx_ver10,2022.2.5,Win32,60.04202942,,,,,,,,,,,,,attn_test,,,,zh2x_8_ixi.wav,zh2x_8_exe.wav,ixi.jpg,LEFT,,f,1.0017,space,1.5184,0,0,0,0,1,,,,,,,,,,,,,,,,,,,,,,
5c364ce2ba92810001db13e8,2023-06-16_09h58.41.668,phx_ver10,2022.2.5,Win32,60.04202942,,,,,space,0.5364,0,42,42,4,1,5,training,zh2x,a,zh2x_a,zh2x_2_azha.wav,,azha.jpg,,,,,,,,,,,,,,,,,,,,,,,,,,,,,,,,,
5c364ce2ba92810001db13e8,2023-06-16_09h58.41.668,phx_ver10,2022.2.5,Win32,60.04202942,,,,,space,0.2839,0,43,43,10,1,11,training,zh2x,a,zh2x_a,zh2x_6_axa.wav,,axa.jpg,,,,,,,,,,,,,,,,,,,,,,,,,,,,,,,,,
5c364ce2ba92810001db13e8,2023-06-16_09h58.41.668,phx_ver10,2022.2.5,Win32,60.04202942,,,,,space,0.4659,0,44,44,43,1,44,training,zh2x,i,zh2x_i,zh2x_7_ixi.wav,,ixi.jpg,,,,,,,,,,,,,,,,,,,,,,,,,,,,,,,,,
5c364ce2ba92810001db13e8,2023-06-16_09h58.41.668,phx_ver10,2022.2.5,Win32,60.04202942,,,,,space,0.4354,0,45,45,3,1,4,training,zh2x,a,zh2x_a,zh2x_2_azha.wav,,azha.jpg,,,,,,,,,,,,,,,,,,,,,,,,,,,,,,,,,
5c364ce2ba92810001db13e8,2023-06-16_09h58.41.668,phx_ver10,2022.2.5,Win32,60.04202942,,,,,space,1.0203,0,46,46,32,1,33,training,zh2x,i,zh2x_i,zh2x_1_izhi.wav,,izhi.jpg,,,,,,,,,,,,,,,,,,,,,,,,,,,,,,,,,
5c364ce2ba92810001db13e8,2023-06-16_09h58.41.668,phx_ver10,2022.2.5,Win32,60.04202942,,,,,space,0.5183,0,47,47,31,1,32,training,zh2x,e,zh2x_e,zh2x_8_exe.wav,,exe.jpg,,,,,,,,,,,,,,,,,,,,,,,,,,,,,,,,,
5c364ce2ba92810001db13e8,2023-06-16_09h58.41.668,phx_ver10,2022.2.5,Win32,60.04202942,,,,,,,,,,,,,attn_test,,,,zh2x_8_axa.wav,zh2x_8_ixi.wav,ixi.jpg,RIGHT,,j,0.2355,space,0.7492,,,,,,,,,,,,,,,,,,,,,,,,,,,
5c364ce2ba92810001db13e8,2023-06-16_09h58.41.668,phx_ver10,2022.2.5,Win32,60.04202942,,,,,,,,,,,,,,,,,,,,,,,,,,,,,,,space,1.0041,,,,,,,,,,,,,,,,,,,,
5c364ce2ba92810001db13e8,2023-06-16_09h58.41.668,phx_ver10,2022.2.5,Win32,60.04202942,,,,,,,,,,,,,,,,,,,,,,,,,,,,,,,,,space,5.4679,,,,,,,,,,,,,,,,,,
5c364ce2ba92810001db13e8,2023-06-16_09h58.41.668,phx_ver10,2022.2.5,Win32,60.04202942,,,,,,,,,,,,4,testing_pre,,,,eihei.wav,eihei.wav,,TRUE,,,,,,,,,,,,,,,f,0.3352,space,1.0691,0,0,0,3,1,,,,,,,,,
5c364ce2ba92810001db13e8,2023-06-16_09h58.41.668,phx_ver10,2022.2.5,Win32,60.04202942,,,,,,,,,,,,3,testing_pre,,,,afa.wav,aha.wav,,FALSE,,,,,,,,,,,,,,,j,0.4588,space,0.97,0,1,1,2,1,,,,,,,,,
5c364ce2ba92810001db13e8,2023-06-16_09h58.41.668,phx_ver10,2022.2.5,Win32,60.04202942,,,,,,,,,,,,5,testing_pre,,,,ihi.wav,ifi.wav,,FALSE,,,,,,,,,,,,,,,f,0.5692,space,1.2392,0,2,2,4,1,,,,,,,,,
5c364ce2ba92810001db13e8,2023-06-16_09h58.41.668,phx_ver10,2022.2.5,Win32,60.04202942,,,,,,,,,,,,2,testing_pre,,,,auhau.wav,aufau.wav,,FALSE,,,,,,,,,,,,,,,j,0.4845,space,0.8352,0,3,3,1,1,,,,,,,,,
5c364ce2ba92810001db13e8,2023-06-16_09h58.41.668,phx_ver10,2022.2.5,Win32,60.04202942,,,,,,,,,,,,1,testing_pre,,,,ifi.wav,ifi.wav,,TRUE,,,,,,,,,,,,,,,f,0.1603,space,0.5845,0,4,4,0,1,,,,,,,,,
5c364ce2ba92810001db13e8,2023-06-16_09h58.41.668,phx_ver10,2022.2.5,Win32,60.04202942,,,,,,,,,,,,,,,,,,,,,,,,,,,,,,,,,,,,,,,,,,,,space,0.9277,,,,,,,
5c364ce2ba92810001db13e8,2023-06-16_09h58.41.668,phx_ver10,2022.2.5,Win32,60.04202942,,,,,,,,,,,,52,testing_3,zh2j,a,zh2j_a,zh2j_8_aja.wav,zh2j_1_azha.wav,,FALSE,FALSE,,,,,,,,,,,,,,f,0.6669,space,1.1006,,,,,,,,0,0,0,51,1,,
5c364ce2ba92810001db13e8,2023-06-16_09h58.41.668,phx_ver10,2022.2.5,Win32,60.04202942,,,,,,,,,,,,101,testing_3,sh2x,ai,sh2x_ai,sh2x_1_aishai.wav,sh2x_1_aishai.wav,,TRUE,FALSE,,,,,,,,,,,,,,f,0.2029,space,0.5339,,,,,,,,0,1,1,100,1,,
5c364ce2ba92810001db13e8,2023-06-16_09h58.41.668,phx_ver10,2022.2.5,Win32,60.04202942,,,,,,,,,,,,11,testing_1,zh2x,i,zh2x_i,zh2x_1_izhi.wav,zh2x_8_ixi.wav,,FALSE,TRUE,,,,,,,,,,,,,,j,0.3846,space,0.6349,,,,,,,,0,2,2,10,1,,
5c364ce2ba92810001db13e8,2023-06-16_09h58.41.668,phx_ver10,2022.2.5,Win32,60.04202942,,,,,,,,,,,,51,testing_3,zh2j,a,zh2j_a,zh2j_1_azha.wav,zh2j_8_aja.wav,,FALSE,FALSE,,,,,,,,,,,,,,f,0.0689,space,0.4679,,,,,,,,0,3,3,50,1,,
5c364ce2ba92810001db13e8,2023-06-16_09h58.41.668,phx_ver10,2022.2.5,Win32,60.04202942,,,,,,,,,,,,35,testing_3,zh2sh,au,zh2sh_au,zh2sh_1_auzhau.wav,zh2sh_8_aushau.wav,,FALSE,FALSE,,,,,,,,,,,,,,j,0.2851,space,0.6014,,,,,,,,0,4,4,34,1,,
5c364ce2ba92810001db13e8,2023-06-16_09h58.41.668,phx_ver10,2022.2.5,Win32,60.04202942,,,,,,,,,,,,12,testing_1,zh2x,i,zh2x_i,zh2x_8_ixi.wav,zh2x_1_izhi.wav,,FALSE,TRUE,,,,,,,,,,,,,,j,0.7172,space,1.0342,,,,,,,,0,5,5,11,1,,
5c364ce2ba92810001db13e8,2023-06-16_09h58.41.668,phx_ver10,2022.2.5,Win32,60.04202942,,,,,,,,,,,,26,testing_3,zh2sh,a,zh2sh_a,zh2sh_8_asha.wav,zh2sh_8_asha.wav,,TRUE,FALSE,,,,,,,,,,,,,,f,0.8207,space,1.2036,,,,,,,,0,6,6,25,1,,
5c364ce2ba92810001db13e8,2023-06-16_09h58.41.668,phx_ver10,2022.2.5,Win32,60.04202942,,,,,,,,,,,,34,testing_3,zh2sh,au,zh2sh_au,zh2sh_8_aushau.wav,zh2sh_8_aushau.wav,,TRUE,FALSE,,,,,,,,,,,,,,f,0.4692,space,0.8034,,,,,,,,0,7,7,33,1,,
5c364ce2ba92810001db13e8,2023-06-16_09h58.41.668,phx_ver10,2022.2.5,Win32,60.04202942,,,,,,,,,,,,84,testing_3,j2x,au,j2x_au,j2x_8_auxau.wav,j2x_1_aujau.wav,,FALSE,FALSE,,,,,,,,,,,,,,j,0.1866,space,0.5538,,,,,,,,0,8,8,83,1,,
5c364ce2ba92810001db13e8,2023-06-16_09h58.41.668,phx_ver10,2022.2.5,Win32,60.04202942,,,,,,,,,,,,99,testing_3,sh2x,a,sh2x_a,sh2x_1_asha.wav,sh2x_8_axa.wav,,FALSE,FALSE,,,,,,,,,,,,,,j,0.6203,space,0.8347,,,,,,,,0,9,9,98,1,,
5c364ce2ba92810001db13e8,2023-06-16_09h58.41.668,phx_ver10,2022.2.5,Win32,60.04202942,,,,,,,,,,,,73,testing_3,j2x,a,j2x_a,j2x_1_aja.wav,j2x_1_aja.wav,,TRUE,FALSE,,,,,,,,,,,,,,f,0.1851,space,0.6194,,,,,,,,0,10,10,72,1,,
5c364ce2ba92810001db13e8,2023-06-16_09h58.41.668,phx_ver10,2022.2.5,Win32,60.04202942,,,,,,,,,,,,45,testing_3,zh2sh,i,zh2sh_i,zh2sh_1_izhi.wav,zh2sh_1_izhi.wav,,TRUE,FALSE,,,,,,,,,,,,,,f,0.7369,space,1.3379,,,,,,,,0,11,11,44,1,,
5c364ce2ba92810001db13e8,2023-06-16_09h58.41.668,phx_ver10,2022.2.5,Win32,60.04202942,,,,,,,,,,,,67,testing_3,zh2j,ei,zh2j_ei,zh2j_1_eizhei.wav,zh2j_8_eijei.wav,,FALSE,FALSE,,,,,,,,,,,,,,f,0.3842,space,0.7523,,,,,,,,0,12,12,66,1,,
5c364ce2ba92810001db13e8,2023-06-16_09h58.41.668,phx_ver10,2022.2.5,Win32,60.04202942,,,,,,,,,,,,60,testing_3,zh2j,au,zh2j_au,zh2j_8_aujau.wav,zh2j_1_auzhau.wav,,FALSE,FALSE,,,,,,,,,,,,,,f,0.0175,space,0.3369,,,,,,,,0,13,13,59,1,,
5c364ce2ba92810001db13e8,2023-06-16_09h58.41.668,phx_ver10,2022.2.5,Win32,60.04202942,,,,,,,,,,,,132,testing_3,sh2j,au,sh2j_au,sh2j_8_aujau.wav,sh2j_1_aushau.wav,,FALSE,FALSE,,,,,,,,,,,,,,j,0.017,space,0.3012,,,,,,,,0,14,14,131,1,,
5c364ce2ba92810001db13e8,2023-06-16_09h58.41.668,phx_ver10,2022.2.5,Win32,60.04202942,,,,,,,,,,,,123,testing_3,sh2j,a,sh2j_a,sh2j_1_asha.wav,sh2j_8_aja.wav,,FALSE,FALSE,,,,,,,,,,,,,,j,1.6351,space,2.1832,,,,,,,,0,15,15,122,1,,
5c364ce2ba92810001db13e8,2023-06-16_09h58.41.668,phx_ver10,2022.2.5,Win32,60.04202942,,,,,,,,,,,,71,testing_3,zh2j,i,zh2j_i,zh2j_1_izhi.wav,zh2j_8_iji.wav,,FALSE,FALSE,,,,,,,,,,,,,,f,0.3844,space,0.7012,,,,,,,,0,16,16,70,1,,
5c364ce2ba92810001db13e8,2023-06-16_09h58.41.668,phx_ver10,2022.2.5,Win32,60.04202942,,,,,,,,,,,,16,testing_2,zh2x,ai,zh2x_ai,zh2x_8_aixai.wav,zh2x_1_aizhai.wav,,FALSE,FALSE,,,,,,,,,,,,,,f,0.2188,space,0.5534,,,,,,,,0,17,17,15,1,,
5c364ce2ba92810001db13e8,2023-06-16_09h58.41.668,phx_ver10,2022.2.5,Win32,60.04202942,,,,,,,,,,,,90,testing_3,j2x,ei,j2x_ei,j2x_8_eixei.wav,j2x_8_eixei.wav,,TRUE,FALSE,,,,,,,,,,,,,,f,0.8158,space,1.1652,,,,,,,,0,18,18,89,1,,
5c364ce2ba92810001db13e8,2023-06-16_09h58.41.668,phx_ver10,2022.2.5,Win32,60.04202942,,,,,,,,,,,,108,testing_3,sh2x,au,sh2x_au,sh2x_8_auxau.wav,sh2x_1_aushau.wav,,FALSE,FALSE,,,,,,,,,,,,,,j,0.1347,space,0.456,,,,,,,,0,19,19,107,1,,
5c364ce2ba92810001db13e8,2023-06-16_09h58.41.668,phx_ver10,2022.2.5,Win32,60.04202942,,,,,,,,,,,,136,testing_3,sh2j,e,sh2j_e,sh2j_8_eje.wav,sh2j_1_eshe.wav,,FALSE,FALSE,,,,,,,,,,,,,,j,0.8858,space,1.0669,,,,,,,,0,20,20,135,1,,
5c364ce2ba92810001db13e8,2023-06-16_09h58.41.668,phx_ver10,2022.2.5,Win32,60.04202942,,,,,,,,,,,,116,testing_3,sh2x,ei,sh2x_ei,sh2x_8_eixei.wav,sh2x_1_eishei.wav,,FALSE,FALSE,,,,,,,,,,,,,,f,0.4531,space,0.8224,,,,,,,,0,21,21,115,1,,
5c364ce2ba92810001db13e8,2023-06-16_09h58.41.668,phx_ver10,2022.2.5,Win32,60.04202942,,,,,,,,,,,,9,testing_1,zh2x,i,zh2x_i,zh2x_1_izhi.wav,zh2x_1_izhi_copy.wav,,TRUE,TRUE,,,,,,,,,,,,,,f,0.4672,space,0.8181,,,,,,,,0,22,22,8,1,,
5c364ce2ba92810001db13e8,2023-06-16_09h58.41.668,phx_ver10,2022.2.5,Win32,60.04202942,,,,,,,,,,,,124,testing_3,sh2j,a,sh2j_a,sh2j_8_aja.wav,sh2j_1_asha.wav,,FALSE,FALSE,,,,,,,,,,,,,,j,0.2197,space,0.5384,,,,,,,,0,23,23,123,1,,
5c364ce2ba92810001db13e8,2023-06-16_09h58.41.668,phx_ver10,2022.2.5,Win32,60.04202942,,,,,,,,,,,,53,testing_3,zh2j,ai,zh2j_ai,zh2j_1_aizhai.wav,zh2j_1_aizhai.wav,,TRUE,FALSE,,,,,,,,,,,,,,f,0.5835,space,0.9369,,,,,,,,0,24,24,52,1,,
5c364ce2ba92810001db13e8,2023-06-16_09h58.41.668,phx_ver10,2022.2.5,Win32,60.04202942,,,,,,,,,,,,47,testing_3,zh2sh,i,zh2sh_i,zh2sh_1_izhi.wav,zh2sh_8_ishi.wav,,FALSE,FALSE,,,,,,,,,,,,,,j,0.2502,space,0.5514,,,,,,,,0,25,25,46,1,,
5c364ce2ba92810001db13e8,2023-06-16_09h58.41.668,phx_ver10,2022.2.5,Win32,60.04202942,,,,,,,,,,,,134,testing_3,sh2j,e,sh2j_e,sh2j_8_eje.wav,sh2j_8_eje.wav,,TRUE,FALSE,,,,,,,,,,,,,,f,0.2589,space,0.5899,,,,,,,,0,26,26,133,1,,
5c364ce2ba92810001db13e8,2023-06-16_09h58.41.668,phx_ver10,2022.2.5,Win32,60.04202942,,,,,,,,,,,,143,testing_3,sh2j,i,sh2j_i,sh2j_1_ishi.wav,sh2j_8_iji.wav,,FALSE,FALSE,,,,,,,,,,,,,,j,0.352,space,0.6692,,,,,,,,0,27,27,142,1,,
5c364ce2ba92810001db13e8,2023-06-16_09h58.41.668,phx_ver10,2022.2.5,Win32,60.04202942,,,,,,,,,,,,19,testing_2,zh2x,au,zh2x_au,zh2x_1_auzhau.wav,zh2x_8_auxau.wav,,FALSE,FALSE,,,,,,,,,,,,,,j,0.6195,space,0.9402,,,,,,,,0,28,28,18,1,,
5c364ce2ba92810001db13e8,2023-06-16_09h58.41.668,phx_ver10,2022.2.5,Win32,60.04202942,,,,,,,,,,,,100,testing_3,sh2x,a,sh2x_a,sh2x_8_axa.wav,sh2x_1_asha.wav,,FALSE,FALSE,,,,,,,,,,,,,,j,1.4513,space,1.7519,,,,,,,,0,29,29,99,1,,
5c364ce2ba92810001db13e8,2023-06-16_09h58.41.668,phx_ver10,2022.2.5,Win32,60.04202942,,,,,,,,,,,,25,testing_3,zh2sh,a,zh2sh_a,zh2sh_1_azha.wav,zh2sh_1_azha.wav,,TRUE,FALSE,,,,,,,,,,,,,,f,0.4842,space,0.767,,,,,,,,0,30,30,24,1,,
5c364ce2ba92810001db13e8,2023-06-16_09h58.41.668,phx_ver10,2022.2.5,Win32,60.04202942,,,,,,,,,,,,115,testing_3,sh2x,ei,sh2x_ei,sh2x_1_eishei.wav,sh2x_8_eixei.wav,,FALSE,FALSE,,,,,,,,,,,,,,j,0.2184,space,0.4258,,,,,,,,0,31,31,114,1,,
5c364ce2ba92810001db13e8,2023-06-16_09h58.41.668,phx_ver10,2022.2.5,Win32,60.04202942,,,,,,,,,,,,107,testing_3,sh2x,au,sh2x_au,sh2x_1_aushau.wav,sh2x_8_auxau.wav,,FALSE,FALSE,,,,,,,,,,,,,,f,0.5507,space,0.907,,,,,,,,0,32,32,106,1,,
5c364ce2ba92810001db13e8,2023-06-16_09h58.41.668,phx_ver10,2022.2.5,Win32,60.04202942,,,,,,,,,,,,120,testing_3,sh2x,i,sh2x_i,sh2x_8_ixi.wav,sh2x_1_ishi.wav,,FALSE,FALSE,,,,,,,,,,,,,,j,0.4286,space,0.6362,,,,,,,,0,33,33,119,1,,
5c364ce2ba92810001db13e8,2023-06-16_09h58.41.668,phx_ver10,2022.2.5,Win32,60.04202942,,,,,,,,,,,,129,testing_3,sh2j,au,sh2j_au,sh2j_1_aushau.wav,sh2j_1_aushau.wav,,TRUE,FALSE,,,,,,,,,,,,,,f,0.3518,space,0.7207,,,,,,,,0,34,34,128,1,,
5c364ce2ba92810001db13e8,2023-06-16_09h58.41.668,phx_ver10,2022.2.5,Win32,60.04202942,,,,,,,,,,,,111,testing_3,sh2x,e,sh2x_e,sh2x_1_eshe.wav,sh2x_8_exe.wav,,FALSE,FALSE,,,,,,,,,,,,,,f,0.6328,space,0.938,,,,,,,,0,35,35,110,1,,
5c364ce2ba92810001db13e8,2023-06-16_09h58.41.668,phx_ver10,2022.2.5,Win32,60.04202942,,,,,,,,,,,,46,testing_3,zh2sh,i,zh2sh_i,zh2sh_8_ishi.wav,zh2sh_8_ishi.wav,,TRUE,FALSE,,,,,,,,,,,,,,f,0.0397,space,0.3101,,,,,,,,0,36,36,45,1,,
5c364ce2ba92810001db13e8,2023-06-16_09h58.41.668,phx_ver10,2022.2.5,Win32,60.04202942,,,,,,,,,,,,142,testing_3,sh2j,i,sh2j_i,sh2j_8_iji.wav,sh2j_8_iji.wav,,TRUE,FALSE,,,,,,,,,,,,,,f,0.0012,space,0.3734,,,,,,,,0,37,37,141,1,,
5c364ce2ba92810001db13e8,2023-06-16_09h58.41.668,phx_ver10,2022.2.5,Win32,60.04202942,,,,,,,,,,,,24,testing_2,zh2x,ei,zh2x_ei,zh2x_8_eixei.wav,zh2x_1_eizhei.wav,,FALSE,FALSE,,,,,,,,,,,,,,f,0.8516,space,1.2273,,,,,,,,0,38,38,23,1,,
5c364ce2ba92810001db13e8,2023-06-16_09h58.41.668,phx_ver10,2022.2.5,Win32,60.04202942,,,,,,,,,,,,48,testing_3,zh2sh,i,zh2sh_i,zh2sh_8_ishi.wav,zh2sh_1_izhi.wav,,FALSE,FALSE,,,,,,,,,,,,,,j,0.0859,space,0.4016,,,,,,,,0,39,39,47,1,,
5c364ce2ba92810001db13e8,2023-06-16_09h58.41.668,phx_ver10,2022.2.5,Win32,60.04202942,,,,,,,,,,,,21,testing_2,zh2x,ei,zh2x_ei,zh2x_1_eizhei.wav,zh2x_1_eizhei.wav,,TRUE,FALSE,,,,,,,,,,,,,,f,0.0831,space,0.3506,,,,,,,,0,40,40,20,1,,
5c364ce2ba92810001db13e8,2023-06-16_09h58.41.668,phx_ver10,2022.2.5,Win32,60.04202942,,,,,,,,,,,,63,testing_3,zh2j,e,zh2j_e,zh2j_1_ezhe.wav,zh2j_8_eje.wav,,FALSE,FALSE,,,,,,,,,,,,,,f,0.4064,space,0.7565,,,,,,,,0,41,41,62,1,,
5c364ce2ba92810001db13e8,2023-06-16_09h58.41.668,phx_ver10,2022.2.5,Win32,60.04202942,,,,,,,,,,,,18,testing_2,zh2x,au,zh2x_au,zh2x_8_auxau.wav,zh2x_8_auxau.wav,,TRUE,FALSE,,,,,,,,,,,,,,f,0.0281,space,0.3863,,,,,,,,0,42,42,17,1,,
5c364ce2ba92810001db13e8,2023-06-16_09h58.41.668,phx_ver10,2022.2.5,Win32,60.04202942,,,,,,,,,,,,27,testing_3,zh2sh,a,zh2sh_a,zh2sh_1_azha.wav,zh2sh_8_asha.wav,,FALSE,FALSE,,,,,,,,,,,,,,j,0.0917,space,0.334,,,,,,,,0,43,43,26,1,,
5c364ce2ba92810001db13e8,2023-06-16_09h58.41.668,phx_ver10,2022.2.5,Win32,60.04202942,,,,,,,,,,,,87,testing_3,j2x,e,j2x_e,j2x_1_eje.wav,j2x_8_exe.wav,,FALSE,FALSE,,,,,,,,,,,,,,f,0.3399,space,0.6703,,,,,,,,0,44,44,86,1,,
5c364ce2ba92810001db13e8,2023-06-16_09h58.41.668,phx_ver10,2022.2.5,Win32,60.04202942,,,,,,,,,,,,49,testing_3,zh2j,a,zh2j_a,zh2j_1_azha.wav,zh2j_1_azha.wav,,TRUE,FALSE,,,,,,,,,,,,,,f,0.3205,space,0.7013,,,,,,,,0,45,45,48,1,,
5c364ce2ba92810001db13e8,2023-06-16_09h58.41.668,phx_ver10,2022.2.5,Win32,60.04202942,,,,,,,,,,,,28,testing_3,zh2sh,a,zh2sh_a,zh2sh_8_asha.wav,zh2sh_1_azha.wav,,FALSE,FALSE,,,,,,,,,,,,,,j,0.2329,space,0.57,,,,,,,,0,46,46,27,1,,
5c364ce2ba92810001db13e8,2023-06-16_09h58.41.668,phx_ver10,2022.2.5,Win32,60.04202942,,,,,,,,,,,,78,testing_3,j2x,ai,j2x_ai,j2x_8_aixai.wav,j2x_8_aixai.wav,,TRUE,FALSE,,,,,,,,,,,,,,f,0.218,space,0.568,,,,,,,,0,47,47,77,1,,
5c364ce2ba92810001db13e8,2023-06-16_09h58.41.668,phx_ver10,2022.2.5,Win32,60.04202942,,,,,,,,,,,,6,testing_1,zh2x,e,zh2x_e,zh2x_8_exe.wav,zh2x_8_exe_copy.wav,,TRUE,TRUE,,,,,,,,,,,,,,f,0.4183,space,0.8076,,,,,,,,0,48,48,5,1,,
5c364ce2ba92810001db13e8,2023-06-16_09h58.41.668,phx_ver10,2022.2.5,Win32,60.04202942,,,,,,,,,,,,43,testing_3,zh2sh,ei,zh2sh_ei,zh2sh_1_eizhei.wav,zh2sh_8_eishei.wav,,FALSE,FALSE,,,,,,,,,,,,,,j,0.3501,space,0.751,,,,,,,,0,49,49,42,1,,
5c364ce2ba92810001db13e8,2023-06-16_09h58.41.668,phx_ver10,2022.2.5,Win32,60.04202942,,,,,,,,,,,,94,testing_3,j2x,i,j2x_i,j2x_8_ixi.wav,j2x_8_ixi.wav,,TRUE,FALSE,,,,,,,,,,,,,,f,0.0666,space,0.4422,,,,,,,,0,50,50,93,1,,
5c364ce2ba92810001db13e8,2023-06-16_09h58.41.668,phx_ver10,2022.2.5,Win32,60.04202942,,,,,,,,,,,,3,testing_1,zh2x,a,zh2x_a,zh2x_1_azha.wav,zh2x_8_axa.wav,,FALSE,TRUE,,,,,,,,,,,,,,j,0.2554,space,0.4861,,,,,,,,0,51,51,2,1,,
5c364ce2ba92810001db13e8,2023-06-16_09h58.41.668,phx_ver10,2022.2.5,Win32,60.04202942,,,,,,,,,,,,98,testing_3,sh2x,a,sh2x_a,sh2x_8_axa.wav,sh2x_8_axa.wav,,TRUE,FALSE,,,,,,,,,,,,,,f,0.4883,space,0.8341,,,,,,,,0,52,52,97,1,,
5c364ce2ba92810001db13e8,2023-06-16_09h58.41.668,phx_ver10,2022.2.5,Win32,60.04202942,,,,,,,,,,,,112,testing_3,sh2x,e,sh2x_e,sh2x_8_exe.wav,sh2x_1_eshe.wav,,FALSE,FALSE,,,,,,,,,,,,,,j,0.6012,space,0.8345,,,,,,,,0,53,53,111,1,,
5c364ce2ba92810001db13e8,2023-06-16_09h58.41.668,phx_ver10,2022.2.5,Win32,60.04202942,,,,,,,,,,,,122,testing_3,sh2j,a,sh2j_a,sh2j_8_aja.wav,sh2j_8_aja.wav,,TRUE,FALSE,,,,,,,,,,,,,,f,0.5518,space,0.852,,,,,,,,0,54,54,121,1,,
5c364ce2ba92810001db13e8,2023-06-16_09h58.41.668,phx_ver10,2022.2.5,Win32,60.04202942,,,,,,,,,,,,135,testing_3,sh2j,e,sh2j_e,sh2j_1_eshe.wav,sh2j_8_eje.wav,,FALSE,FALSE,,,,,,,,,,,,,,j,0.4593,space,0.8183,,,,,,,,0,55,55,134,1,,
5c364ce2ba92810001db13e8,2023-06-16_09h58.41.668,phx_ver10,2022.2.5,Win32,60.04202942,,,,,,,,,,,,117,testing_3,sh2x,i,sh2x_i,sh2x_1_ishi.wav,sh2x_1_ishi.wav,,TRUE,FALSE,,,,,,,,,,,,,,f,0.0513,space,0.3891,,,,,,,,0,56,56,116,1,,
5c364ce2ba92810001db13e8,2023-06-16_09h58.41.668,phx_ver10,2022.2.5,Win32,60.04202942,,,,,,,,,,,,92,testing_3,j2x,ei,j2x_ei,j2x_8_eixei.wav,j2x_1_eijei.wav,,FALSE,FALSE,,,,,,,,,,,,,,j,0.2411,space,0.5705,,,,,,,,0,57,57,91,1,,
5c364ce2ba92810001db13e8,2023-06-16_09h58.41.668,phx_ver10,2022.2.5,Win32,60.04202942,,,,,,,,,,,,91,testing_3,j2x,ei,j2x_ei,j2x_1_eijei.wav,j2x_8_eixei.wav,,FALSE,FALSE,,,,,,,,,,,,,,j,0.0715,space,0.3684,,,,,,,,0,58,58,90,1,,
5c364ce2ba92810001db13e8,2023-06-16_09h58.41.668,phx_ver10,2022.2.5,Win32,60.04202942,,,,,,,,,,,,77,testing_3,j2x,ai,j2x_ai,j2x_1_aijai.wav,j2x_1_aijai.wav,,TRUE,FALSE,,,,,,,,,,,,,,f,0.0049,space,0.3045,,,,,,,,0,59,59,76,1,,
5c364ce2ba92810001db13e8,2023-06-16_09h58.41.668,phx_ver10,2022.2.5,Win32,60.04202942,,,,,,,,,,,,44,testing_3,zh2sh,ei,zh2sh_ei,zh2sh_8_eishei.wav,zh2sh_1_eizhei.wav,,FALSE,FALSE,,,,,,,,,,,,,,j,0.7012,space,1.0295,,,,,,,,0,60,60,43,1,,
5c364ce2ba92810001db13e8,2023-06-16_09h58.41.668,phx_ver10,2022.2.5,Win32,60.04202942,,,,,,,,,,,,119,testing_3,sh2x,i,sh2x_i,sh2x_1_ishi.wav,sh2x_8_ixi.wav,,FALSE,FALSE,,,,,,,,,,,,,,j,0.1361,space,0.5849,,,,,,,,0,61,61,118,1,,
5c364ce2ba92810001db13e8,2023-06-16_09h58.41.668,phx_ver10,2022.2.5,Win32,60.04202942,,,,,,,,,,,,13,testing_2,zh2x,ai,zh2x_ai,zh2x_1_aizhai.wav,zh2x_1_aizhai.wav,,TRUE,FALSE,,,,,,,,,,,,,,f,0.0347,space,0.4028,,,,,,,,0,62,62,12,1,,
5c364ce2ba92810001db13e8,2023-06-16_09h58.41.668,phx_ver10,2022.2.5,Win32,60.04202942,,,,,,,,,,,,68,testing_3,zh2j,ei,zh2j_ei,zh2j_8_eijei.wav,zh2j_1_eizhei.wav,,FALSE,FALSE,,,,,,,,,,,,,,f,0.1835,space,0.4835,,,,,,,,0,63,63,67,1,,
5c364ce2ba92810001db13e8,2023-06-16_09h58.41.668,phx_ver10,2022.2.5,Win32,60.04202942,,,,,,,,,,,,86,testing_3,j2x,e,j2x_e,j2x_8_exe.wav,j2x_8_exe.wav,,TRUE,FALSE,,,,,,,,,,,,,,f,0.684,space,0.968,,,,,,,,0,64,64,85,1,,
5c364ce2ba92810001db13e8,2023-06-16_09h58.41.668,phx_ver10,2022.2.5,Win32,60.04202942,,,,,,,,,,,,30,testing_3,zh2sh,ai,zh2sh_ai,zh2sh_8_aishai.wav,zh2sh_8_aishai.wav,,TRUE,FALSE,,,,,,,,,,,,,,f,0.3904,space,0.7194,,,,,,,,0,65,65,29,1,,
5c364ce2ba92810001db13e8,2023-06-16_09h58.41.668,phx_ver10,2022.2.5,Win32,60.04202942,,,,,,,,,,,,128,testing_3,sh2j,ai,sh2j_ai,sh2j_8_aijai.wav,sh2j_1_aishai.wav,,FALSE,FALSE,,,,,,,,,,,,,,j,2.8518,space,3.3669,,,,,,,,0,66,66,127,1,,
5c364ce2ba92810001db13e8,2023-06-16_09h58.41.668,phx_ver10,2022.2.5,Win32,60.04202942,,,,,,,,,,,,56,testing_3,zh2j,ai,zh2j_ai,zh2j_8_aijai.wav,zh2j_1_aizhai.wav,,FALSE,FALSE,,,,,,,,,,,,,,f,0.355,space,0.7555,,,,,,,,0,67,67,55,1,,
5c364ce2ba92810001db13e8,2023-06-16_09h58.41.668,phx_ver10,2022.2.5,Win32,60.04202942,,,,,,,,,,,,37,testing_3,zh2sh,e,zh2sh_e,zh2sh_1_ezhe.wav,zh2sh_1_ezhe.wav,,TRUE,FALSE,,,,,,,,,,,,,,f,0.018,space,0.453,,,,,,,,0,68,68,36,1,,
5c364ce2ba92810001db13e8,2023-06-16_09h58.41.668,phx_ver10,2022.2.5,Win32,60.04202942,,,,,,,,,,,,103,testing_3,sh2x,ai,sh2x_ai,sh2x_1_aishai.wav,sh2x_8_aixai.wav,,FALSE,FALSE,,,,,,,,,,,,,,j,0.0518,space,0.4364,,,,,,,,0,69,69,102,1,,
5c364ce2ba92810001db13e8,2023-06-16_09h58.41.668,phx_ver10,2022.2.5,Win32,60.04202942,,,,,,,,,,,,140,testing_3,sh2j,ei,sh2j_ei,sh2j_8_eijei.wav,sh2j_1_eishei.wav,,FALSE,FALSE,,,,,,,,,,,,,,j,0.1531,space,0.584,,,,,,,,0,70,70,139,1,,
5c364ce2ba92810001db13e8,2023-06-16_09h58.41.668,phx_ver10,2022.2.5,Win32,60.04202942,,,,,,,,,,,,15,testing_2,zh2x,ai,zh2x_ai,zh2x_1_aizhai.wav,zh2x_8_aixai.wav,,FALSE,FALSE,,,,,,,,,,,,,,j,0.3438,space,0.5934,,,,,,,,0,71,71,14,1,,
5c364ce2ba92810001db13e8,2023-06-16_09h58.41.668,phx_ver10,2022.2.5,Win32,60.04202942,,,,,,,,,,,,59,testing_3,zh2j,au,zh2j_au,zh2j_1_auzhau.wav,zh2j_8_aujau.wav,,FALSE,FALSE,,,,,,,,,,,,,,f,0.2506,space,0.5663,,,,,,,,0,72,72,58,1,,
5c364ce2ba92810001db13e8,2023-06-16_09h58.41.668,phx_ver10,2022.2.5,Win32,60.04202942,,,,,,,,,,,,40,testing_3,zh2sh,e,zh2sh_e,zh2sh_8_eshe.wav,zh2sh_1_ezhe.wav,,FALSE,FALSE,,,,,,,,,,,,,,f,0.151,space,0.5027,,,,,,,,0,73,73,39,1,,
5c364ce2ba92810001db13e8,2023-06-16_09h58.41.668,phx_ver10,2022.2.5,Win32,60.04202942,,,,,,,,,,,,144,testing_3,sh2j,i,sh2j_i,sh2j_8_iji.wav,sh2j_1_ishi.wav,,FALSE,FALSE,,,,,,,,,,,,,,j,0.4536,space,0.786,,,,,,,,0,74,74,143,1,,
5c364ce2ba92810001db13e8,2023-06-16_09h58.41.668,phx_ver10,2022.2.5,Win32,60.04202942,,,,,,,,,,,,2,testing_1,zh2x,a,zh2x_a,zh2x_8_axa.wav,zh2x_8_axa_copy.wav,,TRUE,TRUE,,,,,,,,,,,,,,f,0.2009,space,0.5512,,,,,,,,0,75,75,1,1,,
5c364ce2ba92810001db13e8,2023-06-16_09h58.41.668,phx_ver10,2022.2.5,Win32,60.04202942,,,,,,,,,,,,105,testing_3,sh2x,au,sh2x_au,sh2x_1_aushau.wav,sh2x_1_aushau.wav,,TRUE,FALSE,,,,,,,,,,,,,,f,0.1018,space,0.4519,,,,,,,,0,76,76,104,1,,
5c364ce2ba92810001db13e8,2023-06-16_09h58.41.668,phx_ver10,2022.2.5,Win32,60.04202942,,,,,,,,,,,,17,testing_2,zh2x,au,zh2x_au,zh2x_1_auzhau.wav,zh2x_1_auzhau.wav,,TRUE,FALSE,,,,,,,,,,,,,,f,0.2342,space,0.5679,,,,,,,,0,77,77,16,1,,
5c364ce2ba92810001db13e8,2023-06-16_09h58.41.668,phx_ver10,2022.2.5,Win32,60.04202942,,,,,,,,,,,,10,testing_1,zh2x,i,zh2x_i,zh2x_8_ixi.wav,zh2x_8_ixi_copy.wav,,TRUE,TRUE,,,,,,,,,,,,,,f,0.0329,space,0.3506,,,,,,,,0,78,78,9,1,,
5c364ce2ba92810001db13e8,2023-06-16_09h58.41.668,phx_ver10,2022.2.5,Win32,60.04202942,,,,,,,,,,,,133,testing_3,sh2j,e,sh2j_e,sh2j_1_eshe.wav,sh2j_1_eshe.wav,,TRUE,FALSE,,,,,,,,,,,,,,f,0.0674,space,0.4673,,,,,,,,0,79,79,132,1,,
5c364ce2ba92810001db13e8,2023-06-16_09h58.41.668,phx_ver10,2022.2.5,Win32,60.04202942,,,,,,,,,,,,55,testing_3,zh2j,ai,zh2j_ai,zh2j_1_aizhai.wav,zh2j_8_aijai.wav,,FALSE,FALSE,,,,,,,,,,,,,,f,0.3521,space,0.7022,,,,,,,,0,80,80,54,1,,
5c364ce2ba92810001db13e8,2023-06-16_09h58.41.668,phx_ver10,2022.2.5,Win32,60.04202942,,,,,,,,,,,,113,testing_3,sh2x,ei,sh2x_ei,sh2x_1_eishei.wav,sh2x_1_eishei.wav,,TRUE,FALSE,,,,,,,,,,,,,,f,0.0703,space,0.5022,,,,,,,,0,81,81,112,1,,
5c364ce2ba92810001db13e8,2023-06-16_09h58.41.668,phx_ver10,2022.2.5,Win32,60.04202942,,,,,,,,,,,,110,testing_3,sh2x,e,sh2x_e,sh2x_8_exe.wav,sh2x_8_exe.wav,,TRUE,FALSE,,,,,,,,,,,,,,f,0.0012,space,0.384,,,,,,,,0,82,82,109,1,,
5c364ce2ba92810001db13e8,2023-06-16_09h58.41.668,phx_ver10,2022.2.5,Win32,60.04202942,,,,,,,,,,,,22,testing_2,zh2x,ei,zh2x_ei,zh2x_8_eixei.wav,zh2x_8_eixei.wav,,TRUE,FALSE,,,,,,,,,,,,,,f,0.0197,space,0.4402,,,,,,,,0,83,83,21,1,,
5c364ce2ba92810001db13e8,2023-06-16_09h58.41.668,phx_ver10,2022.2.5,Win32,60.04202942,,,,,,,,,,,,118,testing_3,sh2x,i,sh2x_i,sh2x_8_ixi.wav,sh2x_8_ixi.wav,,TRUE,FALSE,,,,,,,,,,,,,,f,0.0011,space,0.452,,,,,,,,0,84,84,117,1,,
5c364ce2ba92810001db13e8,2023-06-16_09h58.41.668,phx_ver10,2022.2.5,Win32,60.04202942,,,,,,,,,,,,89,testing_3,j2x,ei,j2x_ei,j2x_1_eijei.wav,j2x_1_eijei.wav,,TRUE,FALSE,,,,,,,,,,,,,,f,0.1347,space,0.4815,,,,,,,,0,85,85,88,1,,
5c364ce2ba92810001db13e8,2023-06-16_09h58.41.668,phx_ver10,2022.2.5,Win32,60.04202942,,,,,,,,,,,,139,testing_3,sh2j,ei,sh2j_ei,sh2j_1_eishei.wav,sh2j_8_eijei.wav,,FALSE,FALSE,,,,,,,,,,,,,,j,0.1462,space,0.6689,,,,,,,,0,86,86,138,1,,
5c364ce2ba92810001db13e8,2023-06-16_09h58.41.668,phx_ver10,2022.2.5,Win32,60.04202942,,,,,,,,,,,,14,testing_2,zh2x,ai,zh2x_ai,zh2x_8_aixai.wav,zh2x_8_aixai.wav,,TRUE,FALSE,,,,,,,,,,,,,,f,0.203,space,0.5656,,,,,,,,0,87,87,13,1,,
5c364ce2ba92810001db13e8,2023-06-16_09h58.41.668,phx_ver10,2022.2.5,Win32,60.04202942,,,,,,,,,,,,38,testing_3,zh2sh,e,zh2sh_e,zh2sh_8_eshe.wav,zh2sh_8_eshe.wav,,TRUE,FALSE,,,,,,,,,,,,,,f,0.2075,space,0.6353,,,,,,,,0,88,88,37,1,,
5c364ce2ba92810001db13e8,2023-06-16_09h58.41.668,phx_ver10,2022.2.5,Win32,60.04202942,,,,,,,,,,,,106,testing_3,sh2x,au,sh2x_au,sh2x_8_auxau.wav,sh2x_8_auxau.wav,,TRUE,FALSE,,,,,,,,,,,,,,f,0.0015,space,0.3384,,,,,,,,0,89,89,105,1,,
5c364ce2ba92810001db13e8,2023-06-16_09h58.41.668,phx_ver10,2022.2.5,Win32,60.04202942,,,,,,,,,,,,138,testing_3,sh2j,ei,sh2j_ei,sh2j_8_eijei.wav,sh2j_8_eijei.wav,,TRUE,FALSE,,,,,,,,,,,,,,f,0.0784,space,0.4559,,,,,,,,0,90,90,137,1,,
5c364ce2ba92810001db13e8,2023-06-16_09h58.41.668,phx_ver10,2022.2.5,Win32,60.04202942,,,,,,,,,,,,79,testing_3,j2x,ai,j2x_ai,j2x_1_aijai.wav,j2x_8_aixai.wav,,FALSE,FALSE,,,,,,,,,,,,,,j,0.0014,space,0.3701,,,,,,,,0,91,91,78,1,,
5c364ce2ba92810001db13e8,2023-06-16_09h58.41.668,phx_ver10,2022.2.5,Win32,60.04202942,,,,,,,,,,,,81,testing_3,j2x,au,j2x_au,j2x_1_aujau.wav,j2x_1_aujau.wav,,TRUE,FALSE,,,,,,,,,,,,,,f,0.1605,space,0.5192,,,,,,,,0,92,92,80,1,,
5c364ce2ba92810001db13e8,2023-06-16_09h58.41.668,phx_ver10,2022.2.5,Win32,60.04202942,,,,,,,,,,,,127,testing_3,sh2j,ai,sh2j_ai,sh2j_1_aishai.wav,sh2j_8_aijai.wav,,FALSE,FALSE,,,,,,,,,,,,,,j,0.3693,space,0.8001,,,,,,,,0,93,93,126,1,,
5c364ce2ba92810001db13e8,2023-06-16_09h58.41.668,phx_ver10,2022.2.5,Win32,60.04202942,,,,,,,,,,,,109,testing_3,sh2x,e,sh2x_e,sh2x_1_eshe.wav,sh2x_1_eshe.wav,,TRUE,FALSE,,,,,,,,,,,,,,f,0.0416,space,0.5847,,,,,,,,0,94,94,108,1,,
5c364ce2ba92810001db13e8,2023-06-16_09h58.41.668,phx_ver10,2022.2.5,Win32,60.04202942,,,,,,,,,,,,54,testing_3,zh2j,ai,zh2j_ai,zh2j_8_aijai.wav,zh2j_8_aijai.wav,,TRUE,FALSE,,,,,,,,,,,,,,f,0.053,space,0.4682,,,,,,,,0,95,95,53,1,,
5c364ce2ba92810001db13e8,2023-06-16_09h58.41.668,phx_ver10,2022.2.5,Win32,60.04202942,,,,,,,,,,,,39,testing_3,zh2sh,e,zh2sh_e,zh2sh_1_ezhe.wav,zh2sh_8_eshe.wav,,FALSE,FALSE,,,,,,,,,,,,,,j,0.151,space,0.5672,,,,,,,,0,96,96,38,1,,
5c364ce2ba92810001db13e8,2023-06-16_09h58.41.668,phx_ver10,2022.2.5,Win32,60.04202942,,,,,,,,,,,,88,testing_3,j2x,e,j2x_e,j2x_8_exe.wav,j2x_1_eje.wav,,FALSE,FALSE,,,,,,,,,,,,,,j,0.1517,space,0.4383,,,,,,,,0,97,97,87,1,,
5c364ce2ba92810001db13e8,2023-06-16_09h58.41.668,phx_ver10,2022.2.5,Win32,60.04202942,,,,,,,,,,,,95,testing_3,j2x,i,j2x_i,j2x_1_iji.wav,j2x_8_ixi.wav,,FALSE,FALSE,,,,,,,,,,,,,,j,1.2357,space,1.7053,,,,,,,,0,98,98,94,1,,
5c364ce2ba92810001db13e8,2023-06-16_09h58.41.668,phx_ver10,2022.2.5,Win32,60.04202942,,,,,,,,,,,,1,testing_1,zh2x,a,zh2x_a,zh2x_1_azha.wav,zh2x_1_azha_copy.wav,,TRUE,TRUE,,,,,,,,,,,,,,f,0.3841,space,0.8241,,,,,,,,0,99,99,0,1,,
5c364ce2ba92810001db13e8,2023-06-16_09h58.41.668,phx_ver10,2022.2.5,Win32,60.04202942,,,,,,,,,,,,83,testing_3,j2x,au,j2x_au,j2x_1_aujau.wav,j2x_8_auxau.wav,,FALSE,FALSE,,,,,,,,,,,,,,j,0.0178,space,0.4029,,,,,,,,0,100,100,82,1,,
5c364ce2ba92810001db13e8,2023-06-16_09h58.41.668,phx_ver10,2022.2.5,Win32,60.04202942,,,,,,,,,,,,31,testing_3,zh2sh,ai,zh2sh_ai,zh2sh_1_aizhai.wav,zh2sh_8_aishai.wav,,FALSE,FALSE,,,,,,,,,,,,,,j,0.1684,space,0.4222,,,,,,,,0,101,101,30,1,,
5c364ce2ba92810001db13e8,2023-06-16_09h58.41.668,phx_ver10,2022.2.5,Win32,60.04202942,,,,,,,,,,,,66,testing_3,zh2j,ei,zh2j_ei,zh2j_8_eijei.wav,zh2j_8_eijei.wav,,TRUE,FALSE,,,,,,,,,,,,,,f,0.4538,space,0.8375,,,,,,,,0,102,102,65,1,,
5c364ce2ba92810001db13e8,2023-06-16_09h58.41.668,phx_ver10,2022.2.5,Win32,60.04202942,,,,,,,,,,,,72,testing_3,zh2j,i,zh2j_i,zh2j_8_iji.wav,zh2j_1_izhi.wav,,FALSE,FALSE,,,,,,,,,,,,,,j,0.1198,space,0.4917,,,,,,,,0,103,103,71,1,,
5c364ce2ba92810001db13e8,2023-06-16_09h58.41.668,phx_ver10,2022.2.5,Win32,60.04202942,,,,,,,,,,,,137,testing_3,sh2j,ei,sh2j_ei,sh2j_1_eishei.wav,sh2j_1_eishei.wav,,TRUE,FALSE,,,,,,,,,,,,,,f,0.2349,space,0.5674,,,,,,,,0,104,104,136,1,,
5c364ce2ba92810001db13e8,2023-06-16_09h58.41.668,phx_ver10,2022.2.5,Win32,60.04202942,,,,,,,,,,,,104,testing_3,sh2x,ai,sh2x_ai,sh2x_8_aixai.wav,sh2x_1_aishai.wav,,FALSE,FALSE,,,,,,,,,,,,,,j,0.6908,space,0.9366,,,,,,,,0,105,105,103,1,,
5c364ce2ba92810001db13e8,2023-06-16_09h58.41.668,phx_ver10,2022.2.5,Win32,60.04202942,,,,,,,,,,,,42,testing_3,zh2sh,ei,zh2sh_ei,zh2sh_8_eishei.wav,zh2sh_8_eishei.wav,,TRUE,FALSE,,,,,,,,,,,,,,f,0.0051,space,0.3678,,,,,,,,0,106,106,41,1,,
5c364ce2ba92810001db13e8,2023-06-16_09h58.41.668,phx_ver10,2022.2.5,Win32,60.04202942,,,,,,,,,,,,76,testing_3,j2x,a,j2x_a,j2x_8_axa.wav,j2x_1_aja.wav,,FALSE,FALSE,,,,,,,,,,,,,,j,0.2612,space,0.6207,,,,,,,,0,107,107,75,1,,
5c364ce2ba92810001db13e8,2023-06-16_09h58.41.668,phx_ver10,2022.2.5,Win32,60.04202942,,,,,,,,,,,,62,testing_3,zh2j,e,zh2j_e,zh2j_8_eje.wav,zh2j_8_eje.wav,,TRUE,FALSE,,,,,,,,,,,,,,f,0.3061,space,0.7857,,,,,,,,0,108,108,61,1,,
5c364ce2ba92810001db13e8,2023-06-16_09h58.41.668,phx_ver10,2022.2.5,Win32,60.04202942,,,,,,,,,,,,69,testing_3,zh2j,i,zh2j_i,zh2j_1_izhi.wav,zh2j_1_izhi.wav,,TRUE,FALSE,,,,,,,,,,,,,,f,0.3618,space,0.7191,,,,,,,,0,109,109,68,1,,
5c364ce2ba92810001db13e8,2023-06-16_09h58.41.668,phx_ver10,2022.2.5,Win32,60.04202942,,,,,,,,,,,,7,testing_1,zh2x,e,zh2x_e,zh2x_1_ezhe.wav,zh2x_8_exe.wav,,FALSE,TRUE,,,,,,,,,,,,,,j,0.106,space,0.456,,,,,,,,0,110,110,6,1,,
5c364ce2ba92810001db13e8,2023-06-16_09h58.41.668,phx_ver10,2022.2.5,Win32,60.04202942,,,,,,,,,,,,8,testing_1,zh2x,e,zh2x_e,zh2x_8_exe.wav,zh2x_1_ezhe.wav,,FALSE,TRUE,,,,,,,,,,,,,,j,0.9508,space,1.3331,,,,,,,,0,111,111,7,1,,
5c364ce2ba92810001db13e8,2023-06-16_09h58.41.668,phx_ver10,2022.2.5,Win32,60.04202942,,,,,,,,,,,,96,testing_3,j2x,i,j2x_i,j2x_8_ixi.wav,j2x_1_iji.wav,,FALSE,FALSE,,,,,,,,,,,,,,j,0.3195,space,0.6688,,,,,,,,0,112,112,95,1,,
5c364ce2ba92810001db13e8,2023-06-16_09h58.41.668,phx_ver10,2022.2.5,Win32,60.04202942,,,,,,,,,,,,82,testing_3,j2x,au,j2x_au,j2x_8_auxau.wav,j2x_8_auxau.wav,,TRUE,FALSE,,,,,,,,,,,,,,f,0.1453,space,0.5749,,,,,,,,0,113,113,81,1,,
5c364ce2ba92810001db13e8,2023-06-16_09h58.41.668,phx_ver10,2022.2.5,Win32,60.04202942,,,,,,,,,,,,4,testing_1,zh2x,a,zh2x_a,zh2x_8_axa.wav,zh2x_1_azha.wav,,FALSE,TRUE,,,,,,,,,,,,,,j,0.5187,space,0.902,,,,,,,,0,114,114,3,1,,
5c364ce2ba92810001db13e8,2023-06-16_09h58.41.668,phx_ver10,2022.2.5,Win32,60.04202942,,,,,,,,,,,,29,testing_3,zh2sh,ai,zh2sh_ai,zh2sh_1_aizhai.wav,zh2sh_1_aizhai.wav,,TRUE,FALSE,,,,,,,,,,,,,,f,0.5365,space,0.8772,,,,,,,,0,115,115,28,1,,
5c364ce2ba92810001db13e8,2023-06-16_09h58.41.668,phx_ver10,2022.2.5,Win32,60.04202942,,,,,,,,,,,,32,testing_3,zh2sh,ai,zh2sh_ai,zh2sh_8_aishai.wav,zh2sh_1_aizhai.wav,,FALSE,FALSE,,,,,,,,,,,,,,j,0.1509,space,0.5355,,,,,,,,0,116,116,31,1,,
5c364ce2ba92810001db13e8,2023-06-16_09h58.41.668,phx_ver10,2022.2.5,Win32,60.04202942,,,,,,,,,,,,74,testing_3,j2x,a,j2x_a,j2x_8_axa.wav,j2x_8_axa.wav,,TRUE,FALSE,,,,,,,,,,,,,,f,0.1943,space,0.5502,,,,,,,,0,117,117,73,1,,
5c364ce2ba92810001db13e8,2023-06-16_09h58.41.668,phx_ver10,2022.2.5,Win32,60.04202942,,,,,,,,,,,,41,testing_3,zh2sh,ei,zh2sh_ei,zh2sh_1_eizhei.wav,zh2sh_1_eizhei.wav,,TRUE,FALSE,,,,,,,,,,,,,,f,0.1176,space,0.4514,,,,,,,,0,118,118,40,1,,
5c364ce2ba92810001db13e8,2023-06-16_09h58.41.668,phx_ver10,2022.2.5,Win32,60.04202942,,,,,,,,,,,,20,testing_2,zh2x,au,zh2x_au,zh2x_8_auxau.wav,zh2x_1_auzhau.wav,,FALSE,FALSE,,,,,,,,,,,,,,j,0.5184,space,0.8524,,,,,,,,0,119,119,19,1,,
5c364ce2ba92810001db13e8,2023-06-16_09h58.41.668,phx_ver10,2022.2.5,Win32,60.04202942,,,,,,,,,,,,130,testing_3,sh2j,au,sh2j_au,sh2j_8_aujau.wav,sh2j_8_aujau.wav,,TRUE,FALSE,,,,,,,,,,,,,,f,0.1343,space,0.5508,,,,,,,,0,120,120,129,1,,
5c364ce2ba92810001db13e8,2023-06-16_09h58.41.668,phx_ver10,2022.2.5,Win32,60.04202942,,,,,,,,,,,,61,testing_3,zh2j,e,zh2j_e,zh2j_1_ezhe.wav,zh2j_1_ezhe.wav,,TRUE,FALSE,,,,,,,,,,,,,,f,0.4676,space,0.8173,,,,,,,,0,121,121,60,1,,
5c364ce2ba92810001db13e8,2023-06-16_09h58.41.668,phx_ver10,2022.2.5,Win32,60.04202942,,,,,,,,,,,,64,testing_3,zh2j,e,zh2j_e,zh2j_8_eje.wav,zh2j_1_ezhe.wav,,FALSE,FALSE,,,,,,,,,,,,,,f,0.0335,space,0.5684,,,,,,,,0,122,122,63,1,,
5c364ce2ba92810001db13e8,2023-06-16_09h58.41.668,phx_ver10,2022.2.5,Win32,60.04202942,,,,,,,,,,,,65,testing_3,zh2j,ei,zh2j_ei,zh2j_1_eizhei.wav,zh2j_1_eizhei.wav,,TRUE,FALSE,,,,,,,,,,,,,,f,0.0664,space,0.785,,,,,,,,0,123,123,64,1,,
5c364ce2ba92810001db13e8,2023-06-16_09h58.41.668,phx_ver10,2022.2.5,Win32,60.04202942,,,,,,,,,,,,80,testing_3,j2x,ai,j2x_ai,j2x_8_aixai.wav,j2x_1_aijai.wav,,FALSE,FALSE,,,,,,,,,,,,,,j,0.0513,space,0.4684,,,,,,,,0,124,124,79,1,,
5c364ce2ba92810001db13e8,2023-06-16_09h58.41.668,phx_ver10,2022.2.5,Win32,60.04202942,,,,,,,,,,,,141,testing_3,sh2j,i,sh2j_i,sh2j_1_ishi.wav,sh2j_1_ishi.wav,,TRUE,FALSE,,,,,,,,,,,,,,f,0.0197,space,0.403,,,,,,,,0,125,125,140,1,,
5c364ce2ba92810001db13e8,2023-06-16_09h58.41.668,phx_ver10,2022.2.5,Win32,60.04202942,,,,,,,,,,,,58,testing_3,zh2j,au,zh2j_au,zh2j_8_aujau.wav,zh2j_8_aujau.wav,,TRUE,FALSE,,,,,,,,,,,,,,f,0.0706,space,0.4513,,,,,,,,0,126,126,57,1,,
5c364ce2ba92810001db13e8,2023-06-16_09h58.41.668,phx_ver10,2022.2.5,Win32,60.04202942,,,,,,,,,,,,97,testing_3,sh2x,a,sh2x_a,sh2x_1_asha.wav,sh2x_1_asha.wav,,TRUE,FALSE,,,,,,,,,,,,,,f,0.15,space,0.522,,,,,,,,0,127,127,96,1,,
5c364ce2ba92810001db13e8,2023-06-16_09h58.41.668,phx_ver10,2022.2.5,Win32,60.04202942,,,,,,,,,,,,102,testing_3,sh2x,ai,sh2x_ai,sh2x_8_aixai.wav,sh2x_8_aixai.wav,,TRUE,FALSE,,,,,,,,,,,,,,f,0.6188,space,0.9172,,,,,,,,0,128,128,101,1,,
5c364ce2ba92810001db13e8,2023-06-16_09h58.41.668,phx_ver10,2022.2.5,Win32,60.04202942,,,,,,,,,,,,5,testing_1,zh2x,e,zh2x_e,zh2x_1_ezhe.wav,zh2x_1_ezhe_copy.wav,,TRUE,TRUE,,,,,,,,,,,,,,f,0.0842,space,0.5013,,,,,,,,0,129,129,4,1,,
5c364ce2ba92810001db13e8,2023-06-16_09h58.41.668,phx_ver10,2022.2.5,Win32,60.04202942,,,,,,,,,,,,36,testing_3,zh2sh,au,zh2sh_au,zh2sh_8_aushau.wav,zh2sh_1_auzhau.wav,,FALSE,FALSE,,,,,,,,,,,,,,j,0.1995,space,0.569,,,,,,,,0,130,130,35,1,,
5c364ce2ba92810001db13e8,2023-06-16_09h58.41.668,phx_ver10,2022.2.5,Win32,60.04202942,,,,,,,,,,,,23,testing_2,zh2x,ei,zh2x_ei,zh2x_1_eizhei.wav,zh2x_8_eixei.wav,,FALSE,FALSE,,,,,,,,,,,,,,j,0.4675,space,0.8355,,,,,,,,0,131,131,22,1,,
5c364ce2ba92810001db13e8,2023-06-16_09h58.41.668,phx_ver10,2022.2.5,Win32,60.04202942,,,,,,,,,,,,114,testing_3,sh2x,ei,sh2x_ei,sh2x_8_eixei.wav,sh2x_8_eixei.wav,,TRUE,FALSE,,,,,,,,,,,,,,f,0.1204,space,0.4673,,,,,,,,0,132,132,113,1,,
5c364ce2ba92810001db13e8,2023-06-16_09h58.41.668,phx_ver10,2022.2.5,Win32,60.04202942,,,,,,,,,,,,125,testing_3,sh2j,ai,sh2j_ai,sh2j_1_aishai.wav,sh2j_1_aishai.wav,,TRUE,FALSE,,,,,,,,,,,,,,f,0.3679,space,0.8511,,,,,,,,0,133,133,124,1,,
5c364ce2ba92810001db13e8,2023-06-16_09h58.41.668,phx_ver10,2022.2.5,Win32,60.04202942,,,,,,,,,,,,33,testing_3,zh2sh,au,zh2sh_au,zh2sh_1_auzhau.wav,zh2sh_1_auzhau.wav,,TRUE,FALSE,,,,,,,,,,,,,,f,0.3876,space,0.7688,,,,,,,,0,134,134,32,1,,
5c364ce2ba92810001db13e8,2023-06-16_09h58.41.668,phx_ver10,2022.2.5,Win32,60.04202942,,,,,,,,,,,,121,testing_3,sh2j,a,sh2j_a,sh2j_1_asha.wav,sh2j_1_asha.wav,,TRUE,FALSE,,,,,,,,,,,,,,f,0.0348,space,0.4843,,,,,,,,0,135,135,120,1,,
5c364ce2ba92810001db13e8,2023-06-16_09h58.41.668,phx_ver10,2022.2.5,Win32,60.04202942,,,,,,,,,,,,85,testing_3,j2x,e,j2x_e,j2x_1_eje.wav,j2x_1_eje.wav,,TRUE,FALSE,,,,,,,,,,,,,,f,0.153,space,0.569,,,,,,,,0,136,136,84,1,,
5c364ce2ba92810001db13e8,2023-06-16_09h58.41.668,phx_ver10,2022.2.5,Win32,60.04202942,,,,,,,,,,,,131,testing_3,sh2j,au,sh2j_au,sh2j_1_aushau.wav,sh2j_8_aujau.wav,,FALSE,FALSE,,,,,,,,,,,,,,j,0.0691,space,0.3348,,,,,,,,0,137,137,130,1,,
5c364ce2ba92810001db13e8,2023-06-16_09h58.41.668,phx_ver10,2022.2.5,Win32,60.04202942,,,,,,,,,,,,70,testing_3,zh2j,i,zh2j_i,zh2j_8_iji.wav,zh2j_8_iji.wav,,TRUE,FALSE,,,,,,,,,,,,,,f,0.4691,space,0.835,,,,,,,,0,138,138,69,1,,
5c364ce2ba92810001db13e8,2023-06-16_09h58.41.668,phx_ver10,2022.2.5,Win32,60.04202942,,,,,,,,,,,,50,testing_3,zh2j,a,zh2j_a,zh2j_8_aja.wav,zh2j_8_aja.wav,,TRUE,FALSE,,,,,,,,,,,,,,f,0.0015,space,0.501,,,,,,,,0,139,139,49,1,,
5c364ce2ba92810001db13e8,2023-06-16_09h58.41.668,phx_ver10,2022.2.5,Win32,60.04202942,,,,,,,,,,,,57,testing_3,zh2j,au,zh2j_au,zh2j_1_auzhau.wav,zh2j_1_auzhau.wav,,TRUE,FALSE,,,,,,,,,,,,,,f,0.0177,space,0.3852,,,,,,,,0,140,140,56,1,,
5c364ce2ba92810001db13e8,2023-06-16_09h58.41.668,phx_ver10,2022.2.5,Win32,60.04202942,,,,,,,,,,,,126,testing_3,sh2j,ai,sh2j_ai,sh2j_8_aijai.wav,sh2j_8_aijai.wav,,TRUE,FALSE,,,,,,,,,,,,,,f,0.7374,space,1.0038,,,,,,,,0,141,141,125,1,,
5c364ce2ba92810001db13e8,2023-06-16_09h58.41.668,phx_ver10,2022.2.5,Win32,60.04202942,,,,,,,,,,,,75,testing_3,j2x,a,j2x_a,j2x_1_aja.wav,j2x_8_axa.wav,,FALSE,FALSE,,,,,,,,,,,,,,j,0.1088,space,0.2872,,,,,,,,0,142,142,74,1,,
5c364ce2ba92810001db13e8,2023-06-16_09h58.41.668,phx_ver10,2022.2.5,Win32,60.04202942,,,,,,,,,,,,93,testing_3,j2x,i,j2x_i,j2x_1_iji.wav,j2x_1_iji.wav,,TRUE,FALSE,,,,,,,,,,,,,,f,0.4697,space,0.8024,,,,,,,,0,143,143,92,1,,
5c364ce2ba92810001db13e8,2023-06-16_09h58.41.668,phx_ver10,2022.2.5,Win32,60.04202942,,,,,,,,,,,,,,,,,,,,,,,,,,,,,,,,,,,,,,,,,,,,,,,,,,,space,2.8568
