participant,date,expName,psychopyVersion,OS,frameRate,space_1.keys,space_1.rt,space_2.keys,space_2.rt,space_train.keys,space_train.rt,training.thisRepN,training.thisTrialN,training.thisN,training.thisIndex,training.ran,token_id,task,continuum,vowel,series,sound_1,sound_2,img,same,trained,FJ_attn.keys,FJ_attn.rt,space_attn.keys,space_attn.rt,if_attn_test.thisRepN,if_attn_test.thisTrialN,if_attn_test.thisN,if_attn_test.thisIndex,if_attn_test.ran,space_trans_1.keys,space_trans_1.rt,space_trans_11.keys,space_trans_11.rt,FJ_test.keys,FJ_test.rt,space_test.keys,space_test.rt,testing_pre.thisRepN,testing_pre.thisTrialN,testing_pre.thisN,testing_pre.thisIndex,testing_pre.ran,space_trans_2.keys,space_trans_2.rt,testing_all.thisRepN,testing_all.thisTrialN,testing_all.thisN,testing_all.thisIndex,testing_all.ran,space_ending.keys,space_ending.rt
5c79cc22f5b67c0012d5b9ed,2023-06-16_18h38.25.564,phx_ver10,2022.2.5,MacIntel,60.0024001,,,,,,,,,,,,,,,,,,,,,,,,,,,,,,,,,,,,,,,,,,,,,,,,,,,,
5c79cc22f5b67c0012d5b9ed,2023-06-16_18h38.25.564,phx_ver10,2022.2.5,MacIntel,60.0024001,space,13.3131,,,,,,,,,,,,,,,,,,,,,,,,,,,,,,,,,,,,,,,,,,,,,,,,,,
5c79cc22f5b67c0012d5b9ed,2023-06-16_18h38.25.564,phx_ver10,2022.2.5,MacIntel,60.0024001,,,space,2.9345,,,,,,,,,,,,,,,,,,,,,,,,,,,,,,,,,,,,,,,,,,,,,,,,
5c79cc22f5b67c0012d5b9ed,2023-06-16_18h38.25.564,phx_ver10,2022.2.5,MacIntel,60.0024001,,,,,space,3.4332,0,0,0,7,1,8,training,zh2x,a,zh2x_a,zh2x_4_azha.wav,,azha.jpg,,,,,,,,,,,,,,,,,,,,,,,,,,,,,,,,,
5c79cc22f5b67c0012d5b9ed,2023-06-16_18h38.25.564,phx_ver10,2022.2.5,MacIntel,60.0024001,,,,,space,2.3116,0,1,1,8,1,9,training,zh2x,a,zh2x_a,zh2x_5_axa.wav,,axa.jpg,,,,,,,,,,,,,,,,,,,,,,,,,,,,,,,,,
5c79cc22f5b67c0012d5b9ed,2023-06-16_18h38.25.564,phx_ver10,2022.2.5,MacIntel,60.0024001,,,,,space,3.7366,0,2,2,17,1,18,training,zh2x,e,zh2x_e,zh2x_2_ezhe.wav,,ezhe.jpg,,,,,,,,,,,,,,,,,,,,,,,,,,,,,,,,,
5c79cc22f5b67c0012d5b9ed,2023-06-16_18h38.25.564,phx_ver10,2022.2.5,MacIntel,60.0024001,,,,,space,2.5522,0,3,3,47,1,48,training,zh2x,i,zh2x_i,zh2x_8_ixi.wav,,ixi.jpg,,,,,,,,,,,,,,,,,,,,,,,,,,,,,,,,,
5c79cc22f5b67c0012d5b9ed,2023-06-16_18h38.25.564,phx_ver10,2022.2.5,MacIntel,60.0024001,,,,,space,2.4988,0,4,4,5,1,6,training,zh2x,a,zh2x_a,zh2x_3_azha.wav,,azha.jpg,,,,,,,,,,,,,,,,,,,,,,,,,,,,,,,,,
5c79cc22f5b67c0012d5b9ed,2023-06-16_18h38.25.564,phx_ver10,2022.2.5,MacIntel,60.0024001,,,,,space,2.4397,0,5,5,18,1,19,training,zh2x,e,zh2x_e,zh2x_2_ezhe.wav,,ezhe.jpg,,,,,,,,,,,,,,,,,,,,,,,,,,,,,,,,,
5c79cc22f5b67c0012d5b9ed,2023-06-16_18h38.25.564,phx_ver10,2022.2.5,MacIntel,60.0024001,,,,,,,,,,,,,attn_test,,,,zh2x_1_azha.wav,zh2x_1_ezhe.wav,azha.jpg,LEFT,,f,2.0579,space,3.759,0,0,0,0,1,,,,,,,,,,,,,,,,,,,,,,
5c79cc22f5b67c0012d5b9ed,2023-06-16_18h38.25.564,phx_ver10,2022.2.5,MacIntel,60.0024001,,,,,space,1.6047,0,6,6,28,1,29,training,zh2x,e,zh2x_e,zh2x_7_exe.wav,,exe.jpg,,,,,,,,,,,,,,,,,,,,,,,,,,,,,,,,,
5c79cc22f5b67c0012d5b9ed,2023-06-16_18h38.25.564,phx_ver10,2022.2.5,MacIntel,60.0024001,,,,,space,1.4571,0,7,7,27,1,28,training,zh2x,e,zh2x_e,zh2x_7_exe.wav,,exe.jpg,,,,,,,,,,,,,,,,,,,,,,,,,,,,,,,,,
5c79cc22f5b67c0012d5b9ed,2023-06-16_18h38.25.564,phx_ver10,2022.2.5,MacIntel,60.0024001,,,,,space,1.6361,0,8,8,9,1,10,training,zh2x,a,zh2x_a,zh2x_6_axa.wav,,axa.jpg,,,,,,,,,,,,,,,,,,,,,,,,,,,,,,,,,
5c79cc22f5b67c0012d5b9ed,2023-06-16_18h38.25.564,phx_ver10,2022.2.5,MacIntel,60.0024001,,,,,space,0.9843,0,9,9,26,1,27,training,zh2x,e,zh2x_e,zh2x_6_exe.wav,,exe.jpg,,,,,,,,,,,,,,,,,,,,,,,,,,,,,,,,,
5c79cc22f5b67c0012d5b9ed,2023-06-16_18h38.25.564,phx_ver10,2022.2.5,MacIntel,60.0024001,,,,,space,1.9559,0,10,10,2,1,3,training,zh2x,a,zh2x_a,zh2x_2_azha.wav,,azha.jpg,,,,,,,,,,,,,,,,,,,,,,,,,,,,,,,,,
5c79cc22f5b67c0012d5b9ed,2023-06-16_18h38.25.564,phx_ver10,2022.2.5,MacIntel,60.0024001,,,,,space,2.4497,0,11,11,33,1,34,training,zh2x,i,zh2x_i,zh2x_2_izhi.wav,,izhi.jpg,,,,,,,,,,,,,,,,,,,,,,,,,,,,,,,,,
5c79cc22f5b67c0012d5b9ed,2023-06-16_18h38.25.564,phx_ver10,2022.2.5,MacIntel,60.0024001,,,,,,,,,,,,,attn_test,,,,zh2x_1_izhi.wav,zh2x_8_exe.wav,exe.jpg,RIGHT,,j,0.1324,space,0.8325,0,0,0,0,1,,,,,,,,,,,,,,,,,,,,,,
5c79cc22f5b67c0012d5b9ed,2023-06-16_18h38.25.564,phx_ver10,2022.2.5,MacIntel,60.0024001,,,,,space,4.5848,0,12,12,11,1,12,training,zh2x,a,zh2x_a,zh2x_7_axa.wav,,axa.jpg,,,,,,,,,,,,,,,,,,,,,,,,,,,,,,,,,
5c79cc22f5b67c0012d5b9ed,2023-06-16_18h38.25.564,phx_ver10,2022.2.5,MacIntel,60.0024001,,,,,space,1.9818,0,13,13,36,1,37,training,zh2x,i,zh2x_i,zh2x_2_izhi.wav,,izhi.jpg,,,,,,,,,,,,,,,,,,,,,,,,,,,,,,,,,
5c79cc22f5b67c0012d5b9ed,2023-06-16_18h38.25.564,phx_ver10,2022.2.5,MacIntel,60.0024001,,,,,space,1.6177,0,14,14,0,1,1,training,zh2x,a,zh2x_a,zh2x_1_azha.wav,,azha.jpg,,,,,,,,,,,,,,,,,,,,,,,,,,,,,,,,,
5c79cc22f5b67c0012d5b9ed,2023-06-16_18h38.25.564,phx_ver10,2022.2.5,MacIntel,60.0024001,,,,,space,1.7064,0,15,15,19,1,20,training,zh2x,e,zh2x_e,zh2x_2_ezhe.wav,,ezhe.jpg,,,,,,,,,,,,,,,,,,,,,,,,,,,,,,,,,
5c79cc22f5b67c0012d5b9ed,2023-06-16_18h38.25.564,phx_ver10,2022.2.5,MacIntel,60.0024001,,,,,space,1.0543,0,16,16,12,1,13,training,zh2x,a,zh2x_a,zh2x_7_axa.wav,,axa.jpg,,,,,,,,,,,,,,,,,,,,,,,,,,,,,,,,,
5c79cc22f5b67c0012d5b9ed,2023-06-16_18h38.25.564,phx_ver10,2022.2.5,MacIntel,60.0024001,,,,,space,1.1407,0,17,17,23,1,24,training,zh2x,e,zh2x_e,zh2x_4_ezhe.wav,,ezhe.jpg,,,,,,,,,,,,,,,,,,,,,,,,,,,,,,,,,
5c79cc22f5b67c0012d5b9ed,2023-06-16_18h38.25.564,phx_ver10,2022.2.5,MacIntel,60.0024001,,,,,,,,,,,,,attn_test,,,,zh2x_1_ezhe.wav,zh2x_8_axa.wav,axa.jpg,RIGHT,,j,0.0202,space,0.7106,0,0,0,0,1,,,,,,,,,,,,,,,,,,,,,,
5c79cc22f5b67c0012d5b9ed,2023-06-16_18h38.25.564,phx_ver10,2022.2.5,MacIntel,60.0024001,,,,,space,1.2521,0,18,18,41,1,42,training,zh2x,i,zh2x_i,zh2x_6_ixi.wav,,ixi.jpg,,,,,,,,,,,,,,,,,,,,,,,,,,,,,,,,,
5c79cc22f5b67c0012d5b9ed,2023-06-16_18h38.25.564,phx_ver10,2022.2.5,MacIntel,60.0024001,,,,,space,3.1899,0,19,19,44,1,45,training,zh2x,i,zh2x_i,zh2x_7_ixi.wav,,ixi.jpg,,,,,,,,,,,,,,,,,,,,,,,,,,,,,,,,,
5c79cc22f5b67c0012d5b9ed,2023-06-16_18h38.25.564,phx_ver10,2022.2.5,MacIntel,60.0024001,,,,,space,3.3249,0,20,20,40,1,41,training,zh2x,i,zh2x_i,zh2x_5_ixi.wav,,ixi.jpg,,,,,,,,,,,,,,,,,,,,,,,,,,,,,,,,,
5c79cc22f5b67c0012d5b9ed,2023-06-16_18h38.25.564,phx_ver10,2022.2.5,MacIntel,60.0024001,,,,,space,1.1026,0,21,21,21,1,22,training,zh2x,e,zh2x_e,zh2x_3_ezhe.wav,,ezhe.jpg,,,,,,,,,,,,,,,,,,,,,,,,,,,,,,,,,
5c79cc22f5b67c0012d5b9ed,2023-06-16_18h38.25.564,phx_ver10,2022.2.5,MacIntel,60.0024001,,,,,space,0.6192,0,22,22,38,1,39,training,zh2x,i,zh2x_i,zh2x_3_izhi.wav,,izhi.jpg,,,,,,,,,,,,,,,,,,,,,,,,,,,,,,,,,
5c79cc22f5b67c0012d5b9ed,2023-06-16_18h38.25.564,phx_ver10,2022.2.5,MacIntel,60.0024001,,,,,space,0.3733,0,23,23,16,1,17,training,zh2x,e,zh2x_e,zh2x_1_ezhe.wav,,ezhe.jpg,,,,,,,,,,,,,,,,,,,,,,,,,,,,,,,,,
5c79cc22f5b67c0012d5b9ed,2023-06-16_18h38.25.564,phx_ver10,2022.2.5,MacIntel,60.0024001,,,,,,,,,,,,,attn_test,,,,zh2x_1_azha.wav,zh2x_1_ezhe.wav,ezhe.jpg,RIGHT,,j,2.1673,space,2.534,0,0,0,0,1,,,,,,,,,,,,,,,,,,,,,,
5c79cc22f5b67c0012d5b9ed,2023-06-16_18h38.25.564,phx_ver10,2022.2.5,MacIntel,60.0024001,,,,,space,0.9355,0,24,24,37,1,38,training,zh2x,i,zh2x_i,zh2x_3_izhi.wav,,izhi.jpg,,,,,,,,,,,,,,,,,,,,,,,,,,,,,,,,,
5c79cc22f5b67c0012d5b9ed,2023-06-16_18h38.25.564,phx_ver10,2022.2.5,MacIntel,60.0024001,,,,,space,1.4154,0,25,25,43,1,44,training,zh2x,i,zh2x_i,zh2x_7_ixi.wav,,ixi.jpg,,,,,,,,,,,,,,,,,,,,,,,,,,,,,,,,,
5c79cc22f5b67c0012d5b9ed,2023-06-16_18h38.25.564,phx_ver10,2022.2.5,MacIntel,60.0024001,,,,,space,0.5826,0,26,26,29,1,30,training,zh2x,e,zh2x_e,zh2x_7_exe.wav,,exe.jpg,,,,,,,,,,,,,,,,,,,,,,,,,,,,,,,,,
5c79cc22f5b67c0012d5b9ed,2023-06-16_18h38.25.564,phx_ver10,2022.2.5,MacIntel,60.0024001,,,,,space,0.8358,0,27,27,14,1,15,training,zh2x,a,zh2x_a,zh2x_7_axa.wav,,axa.jpg,,,,,,,,,,,,,,,,,,,,,,,,,,,,,,,,,
5c79cc22f5b67c0012d5b9ed,2023-06-16_18h38.25.564,phx_ver10,2022.2.5,MacIntel,60.0024001,,,,,space,0.4842,0,28,28,30,1,31,training,zh2x,e,zh2x_e,zh2x_7_exe.wav,,exe.jpg,,,,,,,,,,,,,,,,,,,,,,,,,,,,,,,,,
5c79cc22f5b67c0012d5b9ed,2023-06-16_18h38.25.564,phx_ver10,2022.2.5,MacIntel,60.0024001,,,,,space,0.6484,0,29,29,4,1,5,training,zh2x,a,zh2x_a,zh2x_2_azha.wav,,azha.jpg,,,,,,,,,,,,,,,,,,,,,,,,,,,,,,,,,
5c79cc22f5b67c0012d5b9ed,2023-06-16_18h38.25.564,phx_ver10,2022.2.5,MacIntel,60.0024001,,,,,,,,,,,,,attn_test,,,,zh2x_1_azha.wav,zh2x_8_axa.wav,azha.jpg,LEFT,,f,8.1762,space,9.5007,0,0,0,0,1,,,,,,,,,,,,,,,,,,,,,,
5c79cc22f5b67c0012d5b9ed,2023-06-16_18h38.25.564,phx_ver10,2022.2.5,MacIntel,60.0024001,,,,,space,1.7342,0,30,30,1,1,2,training,zh2x,a,zh2x_a,zh2x_2_azha.wav,,azha.jpg,,,,,,,,,,,,,,,,,,,,,,,,,,,,,,,,,
5c79cc22f5b67c0012d5b9ed,2023-06-16_18h38.25.564,phx_ver10,2022.2.5,MacIntel,60.0024001,,,,,space,0.8204,0,31,31,15,1,16,training,zh2x,a,zh2x_a,zh2x_8_axa.wav,,axa.jpg,,,,,,,,,,,,,,,,,,,,,,,,,,,,,,,,,
5c79cc22f5b67c0012d5b9ed,2023-06-16_18h38.25.564,phx_ver10,2022.2.5,MacIntel,60.0024001,,,,,space,0.7993,0,32,32,45,1,46,training,zh2x,i,zh2x_i,zh2x_7_ixi.wav,,ixi.jpg,,,,,,,,,,,,,,,,,,,,,,,,,,,,,,,,,
5c79cc22f5b67c0012d5b9ed,2023-06-16_18h38.25.564,phx_ver10,2022.2.5,MacIntel,60.0024001,,,,,space,1.0029,0,33,33,3,1,4,training,zh2x,a,zh2x_a,zh2x_2_azha.wav,,azha.jpg,,,,,,,,,,,,,,,,,,,,,,,,,,,,,,,,,
5c79cc22f5b67c0012d5b9ed,2023-06-16_18h38.25.564,phx_ver10,2022.2.5,MacIntel,60.0024001,,,,,space,0.9167,0,34,34,10,1,11,training,zh2x,a,zh2x_a,zh2x_6_axa.wav,,axa.jpg,,,,,,,,,,,,,,,,,,,,,,,,,,,,,,,,,
5c79cc22f5b67c0012d5b9ed,2023-06-16_18h38.25.564,phx_ver10,2022.2.5,MacIntel,60.0024001,,,,,space,1.2173,0,35,35,20,1,21,training,zh2x,e,zh2x_e,zh2x_2_ezhe.wav,,ezhe.jpg,,,,,,,,,,,,,,,,,,,,,,,,,,,,,,,,,
5c79cc22f5b67c0012d5b9ed,2023-06-16_18h38.25.564,phx_ver10,2022.2.5,MacIntel,60.0024001,,,,,,,,,,,,,attn_test,,,,zh2x_1_ezhe.wav,zh2x_8_ixi.wav,ezhe.jpg,LEFT,,f,0.4488,space,0.8335,0,0,0,0,1,,,,,,,,,,,,,,,,,,,,,,
5c79cc22f5b67c0012d5b9ed,2023-06-16_18h38.25.564,phx_ver10,2022.2.5,MacIntel,60.0024001,,,,,space,2.2503,0,36,36,25,1,26,training,zh2x,e,zh2x_e,zh2x_6_exe.wav,,exe.jpg,,,,,,,,,,,,,,,,,,,,,,,,,,,,,,,,,
5c79cc22f5b67c0012d5b9ed,2023-06-16_18h38.25.564,phx_ver10,2022.2.5,MacIntel,60.0024001,,,,,space,1.1754,0,37,37,6,1,7,training,zh2x,a,zh2x_a,zh2x_3_azha.wav,,azha.jpg,,,,,,,,,,,,,,,,,,,,,,,,,,,,,,,,,
5c79cc22f5b67c0012d5b9ed,2023-06-16_18h38.25.564,phx_ver10,2022.2.5,MacIntel,60.0024001,,,,,space,1.6359,0,38,38,42,1,43,training,zh2x,i,zh2x_i,zh2x_6_ixi.wav,,ixi.jpg,,,,,,,,,,,,,,,,,,,,,,,,,,,,,,,,,
5c79cc22f5b67c0012d5b9ed,2023-06-16_18h38.25.564,phx_ver10,2022.2.5,MacIntel,60.0024001,,,,,space,1.0664,0,39,39,22,1,23,training,zh2x,e,zh2x_e,zh2x_3_ezhe.wav,,ezhe.jpg,,,,,,,,,,,,,,,,,,,,,,,,,,,,,,,,,
5c79cc22f5b67c0012d5b9ed,2023-06-16_18h38.25.564,phx_ver10,2022.2.5,MacIntel,60.0024001,,,,,space,1.1897,0,40,40,34,1,35,training,zh2x,i,zh2x_i,zh2x_2_izhi.wav,,izhi.jpg,,,,,,,,,,,,,,,,,,,,,,,,,,,,,,,,,
5c79cc22f5b67c0012d5b9ed,2023-06-16_18h38.25.564,phx_ver10,2022.2.5,MacIntel,60.0024001,,,,,space,0.6331,0,41,41,32,1,33,training,zh2x,i,zh2x_i,zh2x_1_izhi.wav,,izhi.jpg,,,,,,,,,,,,,,,,,,,,,,,,,,,,,,,,,
5c79cc22f5b67c0012d5b9ed,2023-06-16_18h38.25.564,phx_ver10,2022.2.5,MacIntel,60.0024001,,,,,,,,,,,,,attn_test,,,,zh2x_1_izhi.wav,zh2x_8_exe.wav,izhi.jpg,LEFT,,f,0.1551,space,0.4573,0,0,0,0,1,,,,,,,,,,,,,,,,,,,,,,
5c79cc22f5b67c0012d5b9ed,2023-06-16_18h38.25.564,phx_ver10,2022.2.5,MacIntel,60.0024001,,,,,space,2.3656,0,42,42,35,1,36,training,zh2x,i,zh2x_i,zh2x_2_izhi.wav,,izhi.jpg,,,,,,,,,,,,,,,,,,,,,,,,,,,,,,,,,
5c79cc22f5b67c0012d5b9ed,2023-06-16_18h38.25.564,phx_ver10,2022.2.5,MacIntel,60.0024001,,,,,space,0.6349,0,43,43,39,1,40,training,zh2x,i,zh2x_i,zh2x_4_izhi.wav,,izhi.jpg,,,,,,,,,,,,,,,,,,,,,,,,,,,,,,,,,
5c79cc22f5b67c0012d5b9ed,2023-06-16_18h38.25.564,phx_ver10,2022.2.5,MacIntel,60.0024001,,,,,space,1.7159,0,44,44,31,1,32,training,zh2x,e,zh2x_e,zh2x_8_exe.wav,,exe.jpg,,,,,,,,,,,,,,,,,,,,,,,,,,,,,,,,,
5c79cc22f5b67c0012d5b9ed,2023-06-16_18h38.25.564,phx_ver10,2022.2.5,MacIntel,60.0024001,,,,,space,0.9998,0,45,45,46,1,47,training,zh2x,i,zh2x_i,zh2x_7_ixi.wav,,ixi.jpg,,,,,,,,,,,,,,,,,,,,,,,,,,,,,,,,,
5c79cc22f5b67c0012d5b9ed,2023-06-16_18h38.25.564,phx_ver10,2022.2.5,MacIntel,60.0024001,,,,,space,0.8719,0,46,46,13,1,14,training,zh2x,a,zh2x_a,zh2x_7_axa.wav,,axa.jpg,,,,,,,,,,,,,,,,,,,,,,,,,,,,,,,,,
5c79cc22f5b67c0012d5b9ed,2023-06-16_18h38.25.564,phx_ver10,2022.2.5,MacIntel,60.0024001,,,,,space,1.0214,0,47,47,24,1,25,training,zh2x,e,zh2x_e,zh2x_5_exe.wav,,exe.jpg,,,,,,,,,,,,,,,,,,,,,,,,,,,,,,,,,
5c79cc22f5b67c0012d5b9ed,2023-06-16_18h38.25.564,phx_ver10,2022.2.5,MacIntel,60.0024001,,,,,,,,,,,,,attn_test,,,,zh2x_8_exe.wav,zh2x_8_axa.wav,axa.jpg,RIGHT,,j,0.6383,space,0.9989,,,,,,,,,,,,,,,,,,,,,,,,,,,
5c79cc22f5b67c0012d5b9ed,2023-06-16_18h38.25.564,phx_ver10,2022.2.5,MacIntel,60.0024001,,,,,,,,,,,,,,,,,,,,,,,,,,,,,,,space,3.1361,,,,,,,,,,,,,,,,,,,,
5c79cc22f5b67c0012d5b9ed,2023-06-16_18h38.25.564,phx_ver10,2022.2.5,MacIntel,60.0024001,,,,,,,,,,,,,,,,,,,,,,,,,,,,,,,,,space,15.2062,,,,,,,,,,,,,,,,,,
5c79cc22f5b67c0012d5b9ed,2023-06-16_18h38.25.564,phx_ver10,2022.2.5,MacIntel,60.0024001,,,,,,,,,,,,3,testing_pre,,,,afa.wav,aha.wav,,FALSE,,,,,,,,,,,,,,,j,2.0449,space,4.3306,0,0,0,2,1,,,,,,,,,
5c79cc22f5b67c0012d5b9ed,2023-06-16_18h38.25.564,phx_ver10,2022.2.5,MacIntel,60.0024001,,,,,,,,,,,,2,testing_pre,,,,auhau.wav,aufau.wav,,FALSE,,,,,,,,,,,,,,,j,1.19,space,3.6722,0,1,1,1,1,,,,,,,,,
5c79cc22f5b67c0012d5b9ed,2023-06-16_18h38.25.564,phx_ver10,2022.2.5,MacIntel,60.0024001,,,,,,,,,,,,4,testing_pre,,,,eihei.wav,eihei.wav,,TRUE,,,,,,,,,,,,,,,f,0.7371,space,1.1546,0,2,2,3,1,,,,,,,,,
5c79cc22f5b67c0012d5b9ed,2023-06-16_18h38.25.564,phx_ver10,2022.2.5,MacIntel,60.0024001,,,,,,,,,,,,5,testing_pre,,,,ihi.wav,ifi.wav,,FALSE,,,,,,,,,,,,,,,j,2.3797,space,2.6843,0,3,3,4,1,,,,,,,,,
5c79cc22f5b67c0012d5b9ed,2023-06-16_18h38.25.564,phx_ver10,2022.2.5,MacIntel,60.0024001,,,,,,,,,,,,1,testing_pre,,,,ifi.wav,ifi.wav,,TRUE,,,,,,,,,,,,,,,f,0.3081,space,0.6217,0,4,4,0,1,,,,,,,,,
5c79cc22f5b67c0012d5b9ed,2023-06-16_18h38.25.564,phx_ver10,2022.2.5,MacIntel,60.0024001,,,,,,,,,,,,,,,,,,,,,,,,,,,,,,,,,,,,,,,,,,,,space,9.922,,,,,,,
5c79cc22f5b67c0012d5b9ed,2023-06-16_18h38.25.564,phx_ver10,2022.2.5,MacIntel,60.0024001,,,,,,,,,,,,140,testing_3,sh2j,ei,sh2j_ei,sh2j_8_eijei.wav,sh2j_1_eishei.wav,,FALSE,FALSE,,,,,,,,,,,,,,j,0.6542,space,1.251,,,,,,,,0,0,0,139,1,,
5c79cc22f5b67c0012d5b9ed,2023-06-16_18h38.25.564,phx_ver10,2022.2.5,MacIntel,60.0024001,,,,,,,,,,,,65,testing_3,zh2j,ei,zh2j_ei,zh2j_1_eizhei.wav,zh2j_1_eizhei.wav,,TRUE,FALSE,,,,,,,,,,,,,,f,0.3538,space,0.8026,,,,,,,,0,1,1,64,1,,
5c79cc22f5b67c0012d5b9ed,2023-06-16_18h38.25.564,phx_ver10,2022.2.5,MacIntel,60.0024001,,,,,,,,,,,,8,testing_1,zh2x,e,zh2x_e,zh2x_8_exe.wav,zh2x_1_ezhe.wav,,FALSE,TRUE,,,,,,,,,,,,,,f,0.0865,space,0.6039,,,,,,,,0,2,2,7,1,,
5c79cc22f5b67c0012d5b9ed,2023-06-16_18h38.25.564,phx_ver10,2022.2.5,MacIntel,60.0024001,,,,,,,,,,,,75,testing_3,j2x,a,j2x_a,j2x_1_aja.wav,j2x_8_axa.wav,,FALSE,FALSE,,,,,,,,,,,,,,j,1.8015,space,2.3002,,,,,,,,0,3,3,74,1,,
5c79cc22f5b67c0012d5b9ed,2023-06-16_18h38.25.564,phx_ver10,2022.2.5,MacIntel,60.0024001,,,,,,,,,,,,19,testing_2,zh2x,au,zh2x_au,zh2x_1_auzhau.wav,zh2x_8_auxau.wav,,FALSE,FALSE,,,,,,,,,,,,,,j,0.5684,space,0.8962,,,,,,,,0,4,4,18,1,,
5c79cc22f5b67c0012d5b9ed,2023-06-16_18h38.25.564,phx_ver10,2022.2.5,MacIntel,60.0024001,,,,,,,,,,,,114,testing_3,sh2x,ei,sh2x_ei,sh2x_8_eixei.wav,sh2x_8_eixei.wav,,TRUE,FALSE,,,,,,,,,,,,,,f,1.0051,space,1.2896,,,,,,,,0,5,5,113,1,,
5c79cc22f5b67c0012d5b9ed,2023-06-16_18h38.25.564,phx_ver10,2022.2.5,MacIntel,60.0024001,,,,,,,,,,,,87,testing_3,j2x,e,j2x_e,j2x_1_eje.wav,j2x_8_exe.wav,,FALSE,FALSE,,,,,,,,,,,,,,j,1.6526,space,2.0184,,,,,,,,0,6,6,86,1,,
5c79cc22f5b67c0012d5b9ed,2023-06-16_18h38.25.564,phx_ver10,2022.2.5,MacIntel,60.0024001,,,,,,,,,,,,10,testing_1,zh2x,i,zh2x_i,zh2x_8_ixi.wav,zh2x_8_ixi_copy.wav,,TRUE,TRUE,,,,,,,,,,,,,,f,0.5076,space,2.0332,,,,,,,,0,7,7,9,1,,
5c79cc22f5b67c0012d5b9ed,2023-06-16_18h38.25.564,phx_ver10,2022.2.5,MacIntel,60.0024001,,,,,,,,,,,,47,testing_3,zh2sh,i,zh2sh_i,zh2sh_1_izhi.wav,zh2sh_8_ishi.wav,,FALSE,FALSE,,,,,,,,,,,,,,j,0.1693,space,0.5169,,,,,,,,0,8,8,46,1,,
5c79cc22f5b67c0012d5b9ed,2023-06-16_18h38.25.564,phx_ver10,2022.2.5,MacIntel,60.0024001,,,,,,,,,,,,122,testing_3,sh2j,a,sh2j_a,sh2j_8_aja.wav,sh2j_8_aja.wav,,TRUE,FALSE,,,,,,,,,,,,,,f,0.3425,space,0.6397,,,,,,,,0,9,9,121,1,,
5c79cc22f5b67c0012d5b9ed,2023-06-16_18h38.25.564,phx_ver10,2022.2.5,MacIntel,60.0024001,,,,,,,,,,,,44,testing_3,zh2sh,ei,zh2sh_ei,zh2sh_8_eishei.wav,zh2sh_1_eizhei.wav,,FALSE,FALSE,,,,,,,,,,,,,,j,1.2334,space,1.7734,,,,,,,,0,10,10,43,1,,
5c79cc22f5b67c0012d5b9ed,2023-06-16_18h38.25.564,phx_ver10,2022.2.5,MacIntel,60.0024001,,,,,,,,,,,,92,testing_3,j2x,ei,j2x_ei,j2x_8_eixei.wav,j2x_1_eijei.wav,,FALSE,FALSE,,,,,,,,,,,,,,j,0.9696,space,1.287,,,,,,,,0,11,11,91,1,,
5c79cc22f5b67c0012d5b9ed,2023-06-16_18h38.25.564,phx_ver10,2022.2.5,MacIntel,60.0024001,,,,,,,,,,,,54,testing_3,zh2j,ai,zh2j_ai,zh2j_8_aijai.wav,zh2j_8_aijai.wav,,TRUE,FALSE,,,,,,,,,,,,,,f,0.3177,space,0.6522,,,,,,,,0,12,12,53,1,,
5c79cc22f5b67c0012d5b9ed,2023-06-16_18h38.25.564,phx_ver10,2022.2.5,MacIntel,60.0024001,,,,,,,,,,,,73,testing_3,j2x,a,j2x_a,j2x_1_aja.wav,j2x_1_aja.wav,,TRUE,FALSE,,,,,,,,,,,,,,f,0.2543,space,0.555,,,,,,,,0,13,13,72,1,,
5c79cc22f5b67c0012d5b9ed,2023-06-16_18h38.25.564,phx_ver10,2022.2.5,MacIntel,60.0024001,,,,,,,,,,,,135,testing_3,sh2j,e,sh2j_e,sh2j_1_eshe.wav,sh2j_8_eje.wav,,FALSE,FALSE,,,,,,,,,,,,,,j,1.8016,space,2.0477,,,,,,,,0,14,14,134,1,,
5c79cc22f5b67c0012d5b9ed,2023-06-16_18h38.25.564,phx_ver10,2022.2.5,MacIntel,60.0024001,,,,,,,,,,,,131,testing_3,sh2j,au,sh2j_au,sh2j_1_aushau.wav,sh2j_8_aujau.wav,,FALSE,FALSE,,,,,,,,,,,,,,f,0.934,space,1.1856,,,,,,,,0,15,15,130,1,,
5c79cc22f5b67c0012d5b9ed,2023-06-16_18h38.25.564,phx_ver10,2022.2.5,MacIntel,60.0024001,,,,,,,,,,,,68,testing_3,zh2j,ei,zh2j_ei,zh2j_8_eijei.wav,zh2j_1_eizhei.wav,,FALSE,FALSE,,,,,,,,,,,,,,f,0.1708,space,0.5177,,,,,,,,0,16,16,67,1,,
5c79cc22f5b67c0012d5b9ed,2023-06-16_18h38.25.564,phx_ver10,2022.2.5,MacIntel,60.0024001,,,,,,,,,,,,32,testing_3,zh2sh,ai,zh2sh_ai,zh2sh_8_aishai.wav,zh2sh_1_aizhai.wav,,FALSE,FALSE,,,,,,,,,,,,,,j,0.6536,space,0.7595,,,,,,,,0,17,17,31,1,,
5c79cc22f5b67c0012d5b9ed,2023-06-16_18h38.25.564,phx_ver10,2022.2.5,MacIntel,60.0024001,,,,,,,,,,,,85,testing_3,j2x,e,j2x_e,j2x_1_eje.wav,j2x_1_eje.wav,,TRUE,FALSE,,,,,,,,,,,,,,f,0.0669,space,0.4274,,,,,,,,0,18,18,84,1,,
5c79cc22f5b67c0012d5b9ed,2023-06-16_18h38.25.564,phx_ver10,2022.2.5,MacIntel,60.0024001,,,,,,,,,,,,136,testing_3,sh2j,e,sh2j_e,sh2j_8_eje.wav,sh2j_1_eshe.wav,,FALSE,FALSE,,,,,,,,,,,,,,j,0.1531,space,0.3375,,,,,,,,0,19,19,135,1,,
5c79cc22f5b67c0012d5b9ed,2023-06-16_18h38.25.564,phx_ver10,2022.2.5,MacIntel,60.0024001,,,,,,,,,,,,29,testing_3,zh2sh,ai,zh2sh_ai,zh2sh_1_aizhai.wav,zh2sh_1_aizhai.wav,,TRUE,FALSE,,,,,,,,,,,,,,f,0.3669,space,0.7712,,,,,,,,0,20,20,28,1,,
5c79cc22f5b67c0012d5b9ed,2023-06-16_18h38.25.564,phx_ver10,2022.2.5,MacIntel,60.0024001,,,,,,,,,,,,35,testing_3,zh2sh,au,zh2sh_au,zh2sh_1_auzhau.wav,zh2sh_8_aushau.wav,,FALSE,FALSE,,,,,,,,,,,,,,j,0.9853,space,1.1459,,,,,,,,0,21,21,34,1,,
5c79cc22f5b67c0012d5b9ed,2023-06-16_18h38.25.564,phx_ver10,2022.2.5,MacIntel,60.0024001,,,,,,,,,,,,63,testing_3,zh2j,e,zh2j_e,zh2j_1_ezhe.wav,zh2j_8_eje.wav,,FALSE,FALSE,,,,,,,,,,,,,,f,1.8865,space,2.0344,,,,,,,,0,22,22,62,1,,
5c79cc22f5b67c0012d5b9ed,2023-06-16_18h38.25.564,phx_ver10,2022.2.5,MacIntel,60.0024001,,,,,,,,,,,,89,testing_3,j2x,ei,j2x_ei,j2x_1_eijei.wav,j2x_1_eijei.wav,,TRUE,FALSE,,,,,,,,,,,,,,f,2.4599,space,2.816,,,,,,,,0,23,23,88,1,,
5c79cc22f5b67c0012d5b9ed,2023-06-16_18h38.25.564,phx_ver10,2022.2.5,MacIntel,60.0024001,,,,,,,,,,,,67,testing_3,zh2j,ei,zh2j_ei,zh2j_1_eizhei.wav,zh2j_8_eijei.wav,,FALSE,FALSE,,,,,,,,,,,,,,f,6.7231,space,9.9445,,,,,,,,0,24,24,66,1,,
5c79cc22f5b67c0012d5b9ed,2023-06-16_18h38.25.564,phx_ver10,2022.2.5,MacIntel,60.0024001,,,,,,,,,,,,18,testing_2,zh2x,au,zh2x_au,zh2x_8_auxau.wav,zh2x_8_auxau.wav,,TRUE,FALSE,,,,,,,,,,,,,,f,0.5346,space,0.8332,,,,,,,,0,25,25,17,1,,
5c79cc22f5b67c0012d5b9ed,2023-06-16_18h38.25.564,phx_ver10,2022.2.5,MacIntel,60.0024001,,,,,,,,,,,,76,testing_3,j2x,a,j2x_a,j2x_8_axa.wav,j2x_1_aja.wav,,FALSE,FALSE,,,,,,,,,,,,,,j,4.388,space,4.7221,,,,,,,,0,26,26,75,1,,
5c79cc22f5b67c0012d5b9ed,2023-06-16_18h38.25.564,phx_ver10,2022.2.5,MacIntel,60.0024001,,,,,,,,,,,,33,testing_3,zh2sh,au,zh2sh_au,zh2sh_1_auzhau.wav,zh2sh_1_auzhau.wav,,TRUE,FALSE,,,,,,,,,,,,,,f,1.3182,space,3.8048,,,,,,,,0,27,27,32,1,,
5c79cc22f5b67c0012d5b9ed,2023-06-16_18h38.25.564,phx_ver10,2022.2.5,MacIntel,60.0024001,,,,,,,,,,,,30,testing_3,zh2sh,ai,zh2sh_ai,zh2sh_8_aishai.wav,zh2sh_8_aishai.wav,,TRUE,FALSE,,,,,,,,,,,,,,f,2.3607,space,2.9369,,,,,,,,0,28,28,29,1,,
5c79cc22f5b67c0012d5b9ed,2023-06-16_18h38.25.564,phx_ver10,2022.2.5,MacIntel,60.0024001,,,,,,,,,,,,36,testing_3,zh2sh,au,zh2sh_au,zh2sh_8_aushau.wav,zh2sh_1_auzhau.wav,,FALSE,FALSE,,,,,,,,,,,,,,j,1.605,space,2.2345,,,,,,,,0,29,29,35,1,,
5c79cc22f5b67c0012d5b9ed,2023-06-16_18h38.25.564,phx_ver10,2022.2.5,MacIntel,60.0024001,,,,,,,,,,,,100,testing_3,sh2x,a,sh2x_a,sh2x_8_axa.wav,sh2x_1_asha.wav,,FALSE,FALSE,,,,,,,,,,,,,,f,3.6991,space,8.7885,,,,,,,,0,30,30,99,1,,
5c79cc22f5b67c0012d5b9ed,2023-06-16_18h38.25.564,phx_ver10,2022.2.5,MacIntel,60.0024001,,,,,,,,,,,,58,testing_3,zh2j,au,zh2j_au,zh2j_8_aujau.wav,zh2j_8_aujau.wav,,TRUE,FALSE,,,,,,,,,,,,,,f,0.5252,space,0.8554,,,,,,,,0,31,31,57,1,,
5c79cc22f5b67c0012d5b9ed,2023-06-16_18h38.25.564,phx_ver10,2022.2.5,MacIntel,60.0024001,,,,,,,,,,,,27,testing_3,zh2sh,a,zh2sh_a,zh2sh_1_azha.wav,zh2sh_8_asha.wav,,FALSE,FALSE,,,,,,,,,,,,,,j,0.1404,space,0.4099,,,,,,,,0,32,32,26,1,,
5c79cc22f5b67c0012d5b9ed,2023-06-16_18h38.25.564,phx_ver10,2022.2.5,MacIntel,60.0024001,,,,,,,,,,,,74,testing_3,j2x,a,j2x_a,j2x_8_axa.wav,j2x_8_axa.wav,,TRUE,FALSE,,,,,,,,,,,,,,f,0.2574,space,0.5359,,,,,,,,0,33,33,73,1,,
5c79cc22f5b67c0012d5b9ed,2023-06-16_18h38.25.564,phx_ver10,2022.2.5,MacIntel,60.0024001,,,,,,,,,,,,71,testing_3,zh2j,i,zh2j_i,zh2j_1_izhi.wav,zh2j_8_iji.wav,,FALSE,FALSE,,,,,,,,,,,,,,f,0.4208,space,0.7561,,,,,,,,0,34,34,70,1,,
5c79cc22f5b67c0012d5b9ed,2023-06-16_18h38.25.564,phx_ver10,2022.2.5,MacIntel,60.0024001,,,,,,,,,,,,66,testing_3,zh2j,ei,zh2j_ei,zh2j_8_eijei.wav,zh2j_8_eijei.wav,,TRUE,FALSE,,,,,,,,,,,,,,f,0.1375,space,0.4536,,,,,,,,0,35,35,65,1,,
5c79cc22f5b67c0012d5b9ed,2023-06-16_18h38.25.564,phx_ver10,2022.2.5,MacIntel,60.0024001,,,,,,,,,,,,121,testing_3,sh2j,a,sh2j_a,sh2j_1_asha.wav,sh2j_1_asha.wav,,TRUE,FALSE,,,,,,,,,,,,,,f,0.0176,space,0.3042,,,,,,,,0,36,36,120,1,,
5c79cc22f5b67c0012d5b9ed,2023-06-16_18h38.25.564,phx_ver10,2022.2.5,MacIntel,60.0024001,,,,,,,,,,,,34,testing_3,zh2sh,au,zh2sh_au,zh2sh_8_aushau.wav,zh2sh_8_aushau.wav,,TRUE,FALSE,,,,,,,,,,,,,,f,0.5721,space,0.8617,,,,,,,,0,37,37,33,1,,
5c79cc22f5b67c0012d5b9ed,2023-06-16_18h38.25.564,phx_ver10,2022.2.5,MacIntel,60.0024001,,,,,,,,,,,,21,testing_2,zh2x,ei,zh2x_ei,zh2x_1_eizhei.wav,zh2x_1_eizhei.wav,,TRUE,FALSE,,,,,,,,,,,,,,f,0.3874,space,0.74,,,,,,,,0,38,38,20,1,,
5c79cc22f5b67c0012d5b9ed,2023-06-16_18h38.25.564,phx_ver10,2022.2.5,MacIntel,60.0024001,,,,,,,,,,,,80,testing_3,j2x,ai,j2x_ai,j2x_8_aixai.wav,j2x_1_aijai.wav,,FALSE,FALSE,,,,,,,,,,,,,,j,0.3374,space,0.7152,,,,,,,,0,39,39,79,1,,
5c79cc22f5b67c0012d5b9ed,2023-06-16_18h38.25.564,phx_ver10,2022.2.5,MacIntel,60.0024001,,,,,,,,,,,,69,testing_3,zh2j,i,zh2j_i,zh2j_1_izhi.wav,zh2j_1_izhi.wav,,TRUE,FALSE,,,,,,,,,,,,,,f,0.0517,space,0.9009,,,,,,,,0,40,40,68,1,,
5c79cc22f5b67c0012d5b9ed,2023-06-16_18h38.25.564,phx_ver10,2022.2.5,MacIntel,60.0024001,,,,,,,,,,,,112,testing_3,sh2x,e,sh2x_e,sh2x_8_exe.wav,sh2x_1_eshe.wav,,FALSE,FALSE,,,,,,,,,,,,,,f,0.4747,space,0.7705,,,,,,,,0,41,41,111,1,,
5c79cc22f5b67c0012d5b9ed,2023-06-16_18h38.25.564,phx_ver10,2022.2.5,MacIntel,60.0024001,,,,,,,,,,,,55,testing_3,zh2j,ai,zh2j_ai,zh2j_1_aizhai.wav,zh2j_8_aijai.wav,,FALSE,FALSE,,,,,,,,,,,,,,f,0.0522,space,0.386,,,,,,,,0,42,42,54,1,,
5c79cc22f5b67c0012d5b9ed,2023-06-16_18h38.25.564,phx_ver10,2022.2.5,MacIntel,60.0024001,,,,,,,,,,,,77,testing_3,j2x,ai,j2x_ai,j2x_1_aijai.wav,j2x_1_aijai.wav,,TRUE,FALSE,,,,,,,,,,,,,,f,0.1222,space,0.5012,,,,,,,,0,43,43,76,1,,
5c79cc22f5b67c0012d5b9ed,2023-06-16_18h38.25.564,phx_ver10,2022.2.5,MacIntel,60.0024001,,,,,,,,,,,,17,testing_2,zh2x,au,zh2x_au,zh2x_1_auzhau.wav,zh2x_1_auzhau.wav,,TRUE,FALSE,,,,,,,,,,,,,,f,0.2526,space,0.6236,,,,,,,,0,44,44,16,1,,
5c79cc22f5b67c0012d5b9ed,2023-06-16_18h38.25.564,phx_ver10,2022.2.5,MacIntel,60.0024001,,,,,,,,,,,,126,testing_3,sh2j,ai,sh2j_ai,sh2j_8_aijai.wav,sh2j_8_aijai.wav,,TRUE,FALSE,,,,,,,,,,,,,,f,0.6371,space,0.9368,,,,,,,,0,45,45,125,1,,
5c79cc22f5b67c0012d5b9ed,2023-06-16_18h38.25.564,phx_ver10,2022.2.5,MacIntel,60.0024001,,,,,,,,,,,,119,testing_3,sh2x,i,sh2x_i,sh2x_1_ishi.wav,sh2x_8_ixi.wav,,FALSE,FALSE,,,,,,,,,,,,,,j,2.9205,space,3.2116,,,,,,,,0,46,46,118,1,,
5c79cc22f5b67c0012d5b9ed,2023-06-16_18h38.25.564,phx_ver10,2022.2.5,MacIntel,60.0024001,,,,,,,,,,,,59,testing_3,zh2j,au,zh2j_au,zh2j_1_auzhau.wav,zh2j_8_aujau.wav,,FALSE,FALSE,,,,,,,,,,,,,,f,1.1581,space,1.4669,,,,,,,,0,47,47,58,1,,
5c79cc22f5b67c0012d5b9ed,2023-06-16_18h38.25.564,phx_ver10,2022.2.5,MacIntel,60.0024001,,,,,,,,,,,,125,testing_3,sh2j,ai,sh2j_ai,sh2j_1_aishai.wav,sh2j_1_aishai.wav,,TRUE,FALSE,,,,,,,,,,,,,,f,19.4369,space,19.7728,,,,,,,,0,48,48,124,1,,
5c79cc22f5b67c0012d5b9ed,2023-06-16_18h38.25.564,phx_ver10,2022.2.5,MacIntel,60.0024001,,,,,,,,,,,,70,testing_3,zh2j,i,zh2j_i,zh2j_8_iji.wav,zh2j_8_iji.wav,,TRUE,FALSE,,,,,,,,,,,,,,f,1.9703,space,2.3015,,,,,,,,0,49,49,69,1,,
5c79cc22f5b67c0012d5b9ed,2023-06-16_18h38.25.564,phx_ver10,2022.2.5,MacIntel,60.0024001,,,,,,,,,,,,137,testing_3,sh2j,ei,sh2j_ei,sh2j_1_eishei.wav,sh2j_1_eishei.wav,,TRUE,FALSE,,,,,,,,,,,,,,f,4.7544,space,5.0027,,,,,,,,0,50,50,136,1,,
5c79cc22f5b67c0012d5b9ed,2023-06-16_18h38.25.564,phx_ver10,2022.2.5,MacIntel,60.0024001,,,,,,,,,,,,42,testing_3,zh2sh,ei,zh2sh_ei,zh2sh_8_eishei.wav,zh2sh_8_eishei.wav,,TRUE,FALSE,,,,,,,,,,,,,,f,0.1516,space,0.4513,,,,,,,,0,51,51,41,1,,
5c79cc22f5b67c0012d5b9ed,2023-06-16_18h38.25.564,phx_ver10,2022.2.5,MacIntel,60.0024001,,,,,,,,,,,,45,testing_3,zh2sh,i,zh2sh_i,zh2sh_1_izhi.wav,zh2sh_1_izhi.wav,,TRUE,FALSE,,,,,,,,,,,,,,f,0.4367,space,0.6221,,,,,,,,0,52,52,44,1,,
5c79cc22f5b67c0012d5b9ed,2023-06-16_18h38.25.564,phx_ver10,2022.2.5,MacIntel,60.0024001,,,,,,,,,,,,39,testing_3,zh2sh,e,zh2sh_e,zh2sh_1_ezhe.wav,zh2sh_8_eshe.wav,,FALSE,FALSE,,,,,,,,,,,,,,f,0.1054,space,0.3598,,,,,,,,0,53,53,38,1,,
5c79cc22f5b67c0012d5b9ed,2023-06-16_18h38.25.564,phx_ver10,2022.2.5,MacIntel,60.0024001,,,,,,,,,,,,24,testing_2,zh2x,ei,zh2x_ei,zh2x_8_eixei.wav,zh2x_1_eizhei.wav,,FALSE,FALSE,,,,,,,,,,,,,,j,1.6655,space,1.9733,,,,,,,,0,54,54,23,1,,
5c79cc22f5b67c0012d5b9ed,2023-06-16_18h38.25.564,phx_ver10,2022.2.5,MacIntel,60.0024001,,,,,,,,,,,,56,testing_3,zh2j,ai,zh2j_ai,zh2j_8_aijai.wav,zh2j_1_aizhai.wav,,FALSE,FALSE,,,,,,,,,,,,,,f,0.9461,space,1.9038,,,,,,,,0,55,55,55,1,,
5c79cc22f5b67c0012d5b9ed,2023-06-16_18h38.25.564,phx_ver10,2022.2.5,MacIntel,60.0024001,,,,,,,,,,,,141,testing_3,sh2j,i,sh2j_i,sh2j_1_ishi.wav,sh2j_1_ishi.wav,,TRUE,FALSE,,,,,,,,,,,,,,f,0.1748,space,0.5246,,,,,,,,0,56,56,140,1,,
5c79cc22f5b67c0012d5b9ed,2023-06-16_18h38.25.564,phx_ver10,2022.2.5,MacIntel,60.0024001,,,,,,,,,,,,37,testing_3,zh2sh,e,zh2sh_e,zh2sh_1_ezhe.wav,zh2sh_1_ezhe.wav,,TRUE,FALSE,,,,,,,,,,,,,,f,0.3172,space,0.4979,,,,,,,,0,57,57,36,1,,
5c79cc22f5b67c0012d5b9ed,2023-06-16_18h38.25.564,phx_ver10,2022.2.5,MacIntel,60.0024001,,,,,,,,,,,,99,testing_3,sh2x,a,sh2x_a,sh2x_1_asha.wav,sh2x_8_axa.wav,,FALSE,FALSE,,,,,,,,,,,,,,f,0.1372,space,0.5011,,,,,,,,0,58,58,98,1,,
5c79cc22f5b67c0012d5b9ed,2023-06-16_18h38.25.564,phx_ver10,2022.2.5,MacIntel,60.0024001,,,,,,,,,,,,102,testing_3,sh2x,ai,sh2x_ai,sh2x_8_aixai.wav,sh2x_8_aixai.wav,,TRUE,FALSE,,,,,,,,,,,,,,f,0.3351,space,0.526,,,,,,,,0,59,59,101,1,,
5c79cc22f5b67c0012d5b9ed,2023-06-16_18h38.25.564,phx_ver10,2022.2.5,MacIntel,60.0024001,,,,,,,,,,,,133,testing_3,sh2j,e,sh2j_e,sh2j_1_eshe.wav,sh2j_1_eshe.wav,,TRUE,FALSE,,,,,,,,,,,,,,f,0.7731,space,1.1189,,,,,,,,0,60,60,132,1,,
5c79cc22f5b67c0012d5b9ed,2023-06-16_18h38.25.564,phx_ver10,2022.2.5,MacIntel,60.0024001,,,,,,,,,,,,116,testing_3,sh2x,ei,sh2x_ei,sh2x_8_eixei.wav,sh2x_1_eishei.wav,,FALSE,FALSE,,,,,,,,,,,,,,f,0.0005,space,0.4046,,,,,,,,0,61,61,115,1,,
5c79cc22f5b67c0012d5b9ed,2023-06-16_18h38.25.564,phx_ver10,2022.2.5,MacIntel,60.0024001,,,,,,,,,,,,88,testing_3,j2x,e,j2x_e,j2x_8_exe.wav,j2x_1_eje.wav,,FALSE,FALSE,,,,,,,,,,,,,,j,1.2042,space,1.4167,,,,,,,,0,62,62,87,1,,
5c79cc22f5b67c0012d5b9ed,2023-06-16_18h38.25.564,phx_ver10,2022.2.5,MacIntel,60.0024001,,,,,,,,,,,,46,testing_3,zh2sh,i,zh2sh_i,zh2sh_8_ishi.wav,zh2sh_8_ishi.wav,,TRUE,FALSE,,,,,,,,,,,,,,f,2.4714,space,2.9015,,,,,,,,0,63,63,45,1,,
5c79cc22f5b67c0012d5b9ed,2023-06-16_18h38.25.564,phx_ver10,2022.2.5,MacIntel,60.0024001,,,,,,,,,,,,50,testing_3,zh2j,a,zh2j_a,zh2j_8_aja.wav,zh2j_8_aja.wav,,TRUE,FALSE,,,,,,,,,,,,,,f,0.3661,space,0.7819,,,,,,,,0,64,64,49,1,,
5c79cc22f5b67c0012d5b9ed,2023-06-16_18h38.25.564,phx_ver10,2022.2.5,MacIntel,60.0024001,,,,,,,,,,,,13,testing_2,zh2x,ai,zh2x_ai,zh2x_1_aizhai.wav,zh2x_1_aizhai.wav,,TRUE,FALSE,,,,,,,,,,,,,,f,0.0007,space,0.4334,,,,,,,,0,65,65,12,1,,
5c79cc22f5b67c0012d5b9ed,2023-06-16_18h38.25.564,phx_ver10,2022.2.5,MacIntel,60.0024001,,,,,,,,,,,,53,testing_3,zh2j,ai,zh2j_ai,zh2j_1_aizhai.wav,zh2j_1_aizhai.wav,,TRUE,FALSE,,,,,,,,,,,,,,f,0.2093,space,0.4396,,,,,,,,0,66,66,52,1,,
5c79cc22f5b67c0012d5b9ed,2023-06-16_18h38.25.564,phx_ver10,2022.2.5,MacIntel,60.0024001,,,,,,,,,,,,11,testing_1,zh2x,i,zh2x_i,zh2x_1_izhi.wav,zh2x_8_ixi.wav,,FALSE,TRUE,,,,,,,,,,,,,,j,2.1833,space,2.8178,,,,,,,,0,67,67,10,1,,
5c79cc22f5b67c0012d5b9ed,2023-06-16_18h38.25.564,phx_ver10,2022.2.5,MacIntel,60.0024001,,,,,,,,,,,,115,testing_3,sh2x,ei,sh2x_ei,sh2x_1_eishei.wav,sh2x_8_eixei.wav,,FALSE,FALSE,,,,,,,,,,,,,,f,4.268,space,4.5676,,,,,,,,0,68,68,114,1,,
5c79cc22f5b67c0012d5b9ed,2023-06-16_18h38.25.564,phx_ver10,2022.2.5,MacIntel,60.0024001,,,,,,,,,,,,96,testing_3,j2x,i,j2x_i,j2x_8_ixi.wav,j2x_1_iji.wav,,FALSE,FALSE,,,,,,,,,,,,,,j,0.3852,space,0.6198,,,,,,,,0,69,69,95,1,,
5c79cc22f5b67c0012d5b9ed,2023-06-16_18h38.25.564,phx_ver10,2022.2.5,MacIntel,60.0024001,,,,,,,,,,,,142,testing_3,sh2j,i,sh2j_i,sh2j_8_iji.wav,sh2j_8_iji.wav,,TRUE,FALSE,,,,,,,,,,,,,,f,0.2996,space,0.4712,,,,,,,,0,70,70,141,1,,
5c79cc22f5b67c0012d5b9ed,2023-06-16_18h38.25.564,phx_ver10,2022.2.5,MacIntel,60.0024001,,,,,,,,,,,,139,testing_3,sh2j,ei,sh2j_ei,sh2j_1_eishei.wav,sh2j_8_eijei.wav,,FALSE,FALSE,,,,,,,,,,,,,,j,0.3187,space,0.6707,,,,,,,,0,71,71,138,1,,
5c79cc22f5b67c0012d5b9ed,2023-06-16_18h38.25.564,phx_ver10,2022.2.5,MacIntel,60.0024001,,,,,,,,,,,,15,testing_2,zh2x,ai,zh2x_ai,zh2x_1_aizhai.wav,zh2x_8_aixai.wav,,FALSE,FALSE,,,,,,,,,,,,,,j,0.1156,space,0.4217,,,,,,,,0,72,72,14,1,,
5c79cc22f5b67c0012d5b9ed,2023-06-16_18h38.25.564,phx_ver10,2022.2.5,MacIntel,60.0024001,,,,,,,,,,,,108,testing_3,sh2x,au,sh2x_au,sh2x_8_auxau.wav,sh2x_1_aushau.wav,,FALSE,FALSE,,,,,,,,,,,,,,f,0.1347,space,0.472,,,,,,,,0,73,73,107,1,,
5c79cc22f5b67c0012d5b9ed,2023-06-16_18h38.25.564,phx_ver10,2022.2.5,MacIntel,60.0024001,,,,,,,,,,,,107,testing_3,sh2x,au,sh2x_au,sh2x_1_aushau.wav,sh2x_8_auxau.wav,,FALSE,FALSE,,,,,,,,,,,,,,j,0.3432,space,0.53,,,,,,,,0,74,74,106,1,,
5c79cc22f5b67c0012d5b9ed,2023-06-16_18h38.25.564,phx_ver10,2022.2.5,MacIntel,60.0024001,,,,,,,,,,,,51,testing_3,zh2j,a,zh2j_a,zh2j_1_azha.wav,zh2j_8_aja.wav,,FALSE,FALSE,,,,,,,,,,,,,,f,0.1858,space,0.4315,,,,,,,,0,75,75,50,1,,
5c79cc22f5b67c0012d5b9ed,2023-06-16_18h38.25.564,phx_ver10,2022.2.5,MacIntel,60.0024001,,,,,,,,,,,,109,testing_3,sh2x,e,sh2x_e,sh2x_1_eshe.wav,sh2x_1_eshe.wav,,TRUE,FALSE,,,,,,,,,,,,,,f,0.0581,space,0.2549,,,,,,,,0,76,76,108,1,,
5c79cc22f5b67c0012d5b9ed,2023-06-16_18h38.25.564,phx_ver10,2022.2.5,MacIntel,60.0024001,,,,,,,,,,,,41,testing_3,zh2sh,ei,zh2sh_ei,zh2sh_1_eizhei.wav,zh2sh_1_eizhei.wav,,TRUE,FALSE,,,,,,,,,,,,,,f,0.1359,space,0.3508,,,,,,,,0,77,77,40,1,,
5c79cc22f5b67c0012d5b9ed,2023-06-16_18h38.25.564,phx_ver10,2022.2.5,MacIntel,60.0024001,,,,,,,,,,,,97,testing_3,sh2x,a,sh2x_a,sh2x_1_asha.wav,sh2x_1_asha.wav,,TRUE,FALSE,,,,,,,,,,,,,,f,0.1651,space,0.3504,,,,,,,,0,78,78,96,1,,
5c79cc22f5b67c0012d5b9ed,2023-06-16_18h38.25.564,phx_ver10,2022.2.5,MacIntel,60.0024001,,,,,,,,,,,,40,testing_3,zh2sh,e,zh2sh_e,zh2sh_8_eshe.wav,zh2sh_1_ezhe.wav,,FALSE,FALSE,,,,,,,,,,,,,,j,0.8467,space,0.9986,,,,,,,,0,79,79,39,1,,
5c79cc22f5b67c0012d5b9ed,2023-06-16_18h38.25.564,phx_ver10,2022.2.5,MacIntel,60.0024001,,,,,,,,,,,,84,testing_3,j2x,au,j2x_au,j2x_8_auxau.wav,j2x_1_aujau.wav,,FALSE,FALSE,,,,,,,,,,,,,,j,0.9614,space,1.2208,,,,,,,,0,80,80,83,1,,
5c79cc22f5b67c0012d5b9ed,2023-06-16_18h38.25.564,phx_ver10,2022.2.5,MacIntel,60.0024001,,,,,,,,,,,,12,testing_1,zh2x,i,zh2x_i,zh2x_8_ixi.wav,zh2x_1_izhi.wav,,FALSE,TRUE,,,,,,,,,,,,,,j,2.8671,space,3.1777,,,,,,,,0,81,81,11,1,,
5c79cc22f5b67c0012d5b9ed,2023-06-16_18h38.25.564,phx_ver10,2022.2.5,MacIntel,60.0024001,,,,,,,,,,,,111,testing_3,sh2x,e,sh2x_e,sh2x_1_eshe.wav,sh2x_8_exe.wav,,FALSE,FALSE,,,,,,,,,,,,,,f,2.4571,space,2.6791,,,,,,,,0,82,82,110,1,,
5c79cc22f5b67c0012d5b9ed,2023-06-16_18h38.25.564,phx_ver10,2022.2.5,MacIntel,60.0024001,,,,,,,,,,,,81,testing_3,j2x,au,j2x_au,j2x_1_aujau.wav,j2x_1_aujau.wav,,TRUE,FALSE,,,,,,,,,,,,,,f,1.3226,space,1.5101,,,,,,,,0,83,83,80,1,,
5c79cc22f5b67c0012d5b9ed,2023-06-16_18h38.25.564,phx_ver10,2022.2.5,MacIntel,60.0024001,,,,,,,,,,,,48,testing_3,zh2sh,i,zh2sh_i,zh2sh_8_ishi.wav,zh2sh_1_izhi.wav,,FALSE,FALSE,,,,,,,,,,,,,,j,0.2372,space,0.4495,,,,,,,,0,84,84,47,1,,
5c79cc22f5b67c0012d5b9ed,2023-06-16_18h38.25.564,phx_ver10,2022.2.5,MacIntel,60.0024001,,,,,,,,,,,,123,testing_3,sh2j,a,sh2j_a,sh2j_1_asha.wav,sh2j_8_aja.wav,,FALSE,FALSE,,,,,,,,,,,,,,j,2.8072,space,3.2729,,,,,,,,0,85,85,122,1,,
5c79cc22f5b67c0012d5b9ed,2023-06-16_18h38.25.564,phx_ver10,2022.2.5,MacIntel,60.0024001,,,,,,,,,,,,23,testing_2,zh2x,ei,zh2x_ei,zh2x_1_eizhei.wav,zh2x_8_eixei.wav,,FALSE,FALSE,,,,,,,,,,,,,,j,0.0404,space,0.3026,,,,,,,,0,86,86,22,1,,
5c79cc22f5b67c0012d5b9ed,2023-06-16_18h38.25.564,phx_ver10,2022.2.5,MacIntel,60.0024001,,,,,,,,,,,,43,testing_3,zh2sh,ei,zh2sh_ei,zh2sh_1_eizhei.wav,zh2sh_8_eishei.wav,,FALSE,FALSE,,,,,,,,,,,,,,j,0.6348,space,0.6727,,,,,,,,0,87,87,42,1,,
5c79cc22f5b67c0012d5b9ed,2023-06-16_18h38.25.564,phx_ver10,2022.2.5,MacIntel,60.0024001,,,,,,,,,,,,106,testing_3,sh2x,au,sh2x_au,sh2x_8_auxau.wav,sh2x_8_auxau.wav,,TRUE,FALSE,,,,,,,,,,,,,,f,0.0215,space,0.4375,,,,,,,,0,88,88,105,1,,
5c79cc22f5b67c0012d5b9ed,2023-06-16_18h38.25.564,phx_ver10,2022.2.5,MacIntel,60.0024001,,,,,,,,,,,,91,testing_3,j2x,ei,j2x_ei,j2x_1_eijei.wav,j2x_8_eixei.wav,,FALSE,FALSE,,,,,,,,,,,,,,j,1.6187,space,3.0561,,,,,,,,0,89,89,90,1,,
5c79cc22f5b67c0012d5b9ed,2023-06-16_18h38.25.564,phx_ver10,2022.2.5,MacIntel,60.0024001,,,,,,,,,,,,2,testing_1,zh2x,a,zh2x_a,zh2x_8_axa.wav,zh2x_8_axa_copy.wav,,TRUE,TRUE,,,,,,,,,,,,,,f,0.1377,space,0.3544,,,,,,,,0,90,90,1,1,,
5c79cc22f5b67c0012d5b9ed,2023-06-16_18h38.25.564,phx_ver10,2022.2.5,MacIntel,60.0024001,,,,,,,,,,,,129,testing_3,sh2j,au,sh2j_au,sh2j_1_aushau.wav,sh2j_1_aushau.wav,,TRUE,FALSE,,,,,,,,,,,,,,f,0.1374,space,0.4541,,,,,,,,0,91,91,128,1,,
5c79cc22f5b67c0012d5b9ed,2023-06-16_18h38.25.564,phx_ver10,2022.2.5,MacIntel,60.0024001,,,,,,,,,,,,138,testing_3,sh2j,ei,sh2j_ei,sh2j_8_eijei.wav,sh2j_8_eijei.wav,,TRUE,FALSE,,,,,,,,,,,,,,f,0.1216,space,0.3031,,,,,,,,0,92,92,137,1,,
5c79cc22f5b67c0012d5b9ed,2023-06-16_18h38.25.564,phx_ver10,2022.2.5,MacIntel,60.0024001,,,,,,,,,,,,83,testing_3,j2x,au,j2x_au,j2x_1_aujau.wav,j2x_8_auxau.wav,,FALSE,FALSE,,,,,,,,,,,,,,j,4.0372,space,4.2029,,,,,,,,0,93,93,82,1,,
5c79cc22f5b67c0012d5b9ed,2023-06-16_18h38.25.564,phx_ver10,2022.2.5,MacIntel,60.0024001,,,,,,,,,,,,78,testing_3,j2x,ai,j2x_ai,j2x_8_aixai.wav,j2x_8_aixai.wav,,TRUE,FALSE,,,,,,,,,,,,,,f,1.0822,space,1.4193,,,,,,,,0,94,94,77,1,,
5c79cc22f5b67c0012d5b9ed,2023-06-16_18h38.25.564,phx_ver10,2022.2.5,MacIntel,60.0024001,,,,,,,,,,,,93,testing_3,j2x,i,j2x_i,j2x_1_iji.wav,j2x_1_iji.wav,,TRUE,FALSE,,,,,,,,,,,,,,f,0.2503,space,0.6343,,,,,,,,0,95,95,92,1,,
5c79cc22f5b67c0012d5b9ed,2023-06-16_18h38.25.564,phx_ver10,2022.2.5,MacIntel,60.0024001,,,,,,,,,,,,3,testing_1,zh2x,a,zh2x_a,zh2x_1_azha.wav,zh2x_8_axa.wav,,FALSE,TRUE,,,,,,,,,,,,,,j,0.0375,space,0.3999,,,,,,,,0,96,96,2,1,,
5c79cc22f5b67c0012d5b9ed,2023-06-16_18h38.25.564,phx_ver10,2022.2.5,MacIntel,60.0024001,,,,,,,,,,,,26,testing_3,zh2sh,a,zh2sh_a,zh2sh_8_asha.wav,zh2sh_8_asha.wav,,TRUE,FALSE,,,,,,,,,,,,,,f,0.7952,space,1.1023,,,,,,,,0,97,97,25,1,,
5c79cc22f5b67c0012d5b9ed,2023-06-16_18h38.25.564,phx_ver10,2022.2.5,MacIntel,60.0024001,,,,,,,,,,,,72,testing_3,zh2j,i,zh2j_i,zh2j_8_iji.wav,zh2j_1_izhi.wav,,FALSE,FALSE,,,,,,,,,,,,,,f,2.3389,space,2.6368,,,,,,,,0,98,98,71,1,,
5c79cc22f5b67c0012d5b9ed,2023-06-16_18h38.25.564,phx_ver10,2022.2.5,MacIntel,60.0024001,,,,,,,,,,,,57,testing_3,zh2j,au,zh2j_au,zh2j_1_auzhau.wav,zh2j_1_auzhau.wav,,TRUE,FALSE,,,,,,,,,,,,,,f,1.8196,space,2.1995,,,,,,,,0,99,99,56,1,,
5c79cc22f5b67c0012d5b9ed,2023-06-16_18h38.25.564,phx_ver10,2022.2.5,MacIntel,60.0024001,,,,,,,,,,,,144,testing_3,sh2j,i,sh2j_i,sh2j_8_iji.wav,sh2j_1_ishi.wav,,FALSE,FALSE,,,,,,,,,,,,,,j,1.0754,space,1.4043,,,,,,,,0,100,100,143,1,,
5c79cc22f5b67c0012d5b9ed,2023-06-16_18h38.25.564,phx_ver10,2022.2.5,MacIntel,60.0024001,,,,,,,,,,,,134,testing_3,sh2j,e,sh2j_e,sh2j_8_eje.wav,sh2j_8_eje.wav,,TRUE,FALSE,,,,,,,,,,,,,,f,2.7604,space,3.0683,,,,,,,,0,101,101,133,1,,
5c79cc22f5b67c0012d5b9ed,2023-06-16_18h38.25.564,phx_ver10,2022.2.5,MacIntel,60.0024001,,,,,,,,,,,,90,testing_3,j2x,ei,j2x_ei,j2x_8_eixei.wav,j2x_8_eixei.wav,,TRUE,FALSE,,,,,,,,,,,,,,f,0.2383,space,0.4543,,,,,,,,0,102,102,89,1,,
5c79cc22f5b67c0012d5b9ed,2023-06-16_18h38.25.564,phx_ver10,2022.2.5,MacIntel,60.0024001,,,,,,,,,,,,82,testing_3,j2x,au,j2x_au,j2x_8_auxau.wav,j2x_8_auxau.wav,,TRUE,FALSE,,,,,,,,,,,,,,f,0.4383,space,0.7867,,,,,,,,0,103,103,81,1,,
5c79cc22f5b67c0012d5b9ed,2023-06-16_18h38.25.564,phx_ver10,2022.2.5,MacIntel,60.0024001,,,,,,,,,,,,128,testing_3,sh2j,ai,sh2j_ai,sh2j_8_aijai.wav,sh2j_1_aishai.wav,,FALSE,FALSE,,,,,,,,,,,,,,j,0.0061,space,0.3345,,,,,,,,0,104,104,127,1,,
5c79cc22f5b67c0012d5b9ed,2023-06-16_18h38.25.564,phx_ver10,2022.2.5,MacIntel,60.0024001,,,,,,,,,,,,60,testing_3,zh2j,au,zh2j_au,zh2j_8_aujau.wav,zh2j_1_auzhau.wav,,FALSE,FALSE,,,,,,,,,,,,,,f,0.1321,space,0.4377,,,,,,,,0,105,105,59,1,,
5c79cc22f5b67c0012d5b9ed,2023-06-16_18h38.25.564,phx_ver10,2022.2.5,MacIntel,60.0024001,,,,,,,,,,,,94,testing_3,j2x,i,j2x_i,j2x_8_ixi.wav,j2x_8_ixi.wav,,TRUE,FALSE,,,,,,,,,,,,,,f,0.141,space,0.4739,,,,,,,,0,106,106,93,1,,
5c79cc22f5b67c0012d5b9ed,2023-06-16_18h38.25.564,phx_ver10,2022.2.5,MacIntel,60.0024001,,,,,,,,,,,,79,testing_3,j2x,ai,j2x_ai,j2x_1_aijai.wav,j2x_8_aixai.wav,,FALSE,FALSE,,,,,,,,,,,,,,j,0.137,space,0.3502,,,,,,,,0,107,107,78,1,,
5c79cc22f5b67c0012d5b9ed,2023-06-16_18h38.25.564,phx_ver10,2022.2.5,MacIntel,60.0024001,,,,,,,,,,,,95,testing_3,j2x,i,j2x_i,j2x_1_iji.wav,j2x_8_ixi.wav,,FALSE,FALSE,,,,,,,,,,,,,,j,0.0869,space,0.2971,,,,,,,,0,108,108,94,1,,
5c79cc22f5b67c0012d5b9ed,2023-06-16_18h38.25.564,phx_ver10,2022.2.5,MacIntel,60.0024001,,,,,,,,,,,,14,testing_2,zh2x,ai,zh2x_ai,zh2x_8_aixai.wav,zh2x_8_aixai.wav,,TRUE,FALSE,,,,,,,,,,,,,,f,0.2145,space,0.409,,,,,,,,0,109,109,13,1,,
5c79cc22f5b67c0012d5b9ed,2023-06-16_18h38.25.564,phx_ver10,2022.2.5,MacIntel,60.0024001,,,,,,,,,,,,120,testing_3,sh2x,i,sh2x_i,sh2x_8_ixi.wav,sh2x_1_ishi.wav,,FALSE,FALSE,,,,,,,,,,,,,,f,0.1691,space,0.3703,,,,,,,,0,110,110,119,1,,
5c79cc22f5b67c0012d5b9ed,2023-06-16_18h38.25.564,phx_ver10,2022.2.5,MacIntel,60.0024001,,,,,,,,,,,,113,testing_3,sh2x,ei,sh2x_ei,sh2x_1_eishei.wav,sh2x_1_eishei.wav,,TRUE,FALSE,,,,,,,,,,,,,,f,0.1836,space,0.4518,,,,,,,,0,111,111,112,1,,
5c79cc22f5b67c0012d5b9ed,2023-06-16_18h38.25.564,phx_ver10,2022.2.5,MacIntel,60.0024001,,,,,,,,,,,,105,testing_3,sh2x,au,sh2x_au,sh2x_1_aushau.wav,sh2x_1_aushau.wav,,TRUE,FALSE,,,,,,,,,,,,,,f,0.0177,space,0.1861,,,,,,,,0,112,112,104,1,,
5c79cc22f5b67c0012d5b9ed,2023-06-16_18h38.25.564,phx_ver10,2022.2.5,MacIntel,60.0024001,,,,,,,,,,,,22,testing_2,zh2x,ei,zh2x_ei,zh2x_8_eixei.wav,zh2x_8_eixei.wav,,TRUE,FALSE,,,,,,,,,,,,,,f,0.1513,space,0.34,,,,,,,,0,113,113,21,1,,
5c79cc22f5b67c0012d5b9ed,2023-06-16_18h38.25.564,phx_ver10,2022.2.5,MacIntel,60.0024001,,,,,,,,,,,,103,testing_3,sh2x,ai,sh2x_ai,sh2x_1_aishai.wav,sh2x_8_aixai.wav,,FALSE,FALSE,,,,,,,,,,,,,,f,0.2335,space,0.5566,,,,,,,,0,114,114,102,1,,
5c79cc22f5b67c0012d5b9ed,2023-06-16_18h38.25.564,phx_ver10,2022.2.5,MacIntel,60.0024001,,,,,,,,,,,,64,testing_3,zh2j,e,zh2j_e,zh2j_8_eje.wav,zh2j_1_ezhe.wav,,FALSE,FALSE,,,,,,,,,,,,,,f,0.2693,space,0.4513,,,,,,,,0,115,115,63,1,,
5c79cc22f5b67c0012d5b9ed,2023-06-16_18h38.25.564,phx_ver10,2022.2.5,MacIntel,60.0024001,,,,,,,,,,,,118,testing_3,sh2x,i,sh2x_i,sh2x_8_ixi.wav,sh2x_8_ixi.wav,,TRUE,FALSE,,,,,,,,,,,,,,f,0.2373,space,0.435,,,,,,,,0,116,116,117,1,,
5c79cc22f5b67c0012d5b9ed,2023-06-16_18h38.25.564,phx_ver10,2022.2.5,MacIntel,60.0024001,,,,,,,,,,,,61,testing_3,zh2j,e,zh2j_e,zh2j_1_ezhe.wav,zh2j_1_ezhe.wav,,TRUE,FALSE,,,,,,,,,,,,,,f,0.0405,space,0.3902,,,,,,,,0,117,117,60,1,,
5c79cc22f5b67c0012d5b9ed,2023-06-16_18h38.25.564,phx_ver10,2022.2.5,MacIntel,60.0024001,,,,,,,,,,,,25,testing_3,zh2sh,a,zh2sh_a,zh2sh_1_azha.wav,zh2sh_1_azha.wav,,TRUE,FALSE,,,,,,,,,,,,,,f,0.1911,space,0.5234,,,,,,,,0,118,118,24,1,,
5c79cc22f5b67c0012d5b9ed,2023-06-16_18h38.25.564,phx_ver10,2022.2.5,MacIntel,60.0024001,,,,,,,,,,,,49,testing_3,zh2j,a,zh2j_a,zh2j_1_azha.wav,zh2j_1_azha.wav,,TRUE,FALSE,,,,,,,,,,,,,,f,0.2785,space,0.485,,,,,,,,0,119,119,48,1,,
5c79cc22f5b67c0012d5b9ed,2023-06-16_18h38.25.564,phx_ver10,2022.2.5,MacIntel,60.0024001,,,,,,,,,,,,98,testing_3,sh2x,a,sh2x_a,sh2x_8_axa.wav,sh2x_8_axa.wav,,TRUE,FALSE,,,,,,,,,,,,,,f,0.6627,space,0.8802,,,,,,,,0,120,120,97,1,,
5c79cc22f5b67c0012d5b9ed,2023-06-16_18h38.25.564,phx_ver10,2022.2.5,MacIntel,60.0024001,,,,,,,,,,,,6,testing_1,zh2x,e,zh2x_e,zh2x_8_exe.wav,zh2x_8_exe_copy.wav,,TRUE,TRUE,,,,,,,,,,,,,,f,0.038,space,0.392,,,,,,,,0,121,121,5,1,,
5c79cc22f5b67c0012d5b9ed,2023-06-16_18h38.25.564,phx_ver10,2022.2.5,MacIntel,60.0024001,,,,,,,,,,,,5,testing_1,zh2x,e,zh2x_e,zh2x_1_ezhe.wav,zh2x_1_ezhe_copy.wav,,TRUE,TRUE,,,,,,,,,,,,,,f,0.0197,space,0.3691,,,,,,,,0,122,122,4,1,,
5c79cc22f5b67c0012d5b9ed,2023-06-16_18h38.25.564,phx_ver10,2022.2.5,MacIntel,60.0024001,,,,,,,,,,,,9,testing_1,zh2x,i,zh2x_i,zh2x_1_izhi.wav,zh2x_1_izhi_copy.wav,,TRUE,TRUE,,,,,,,,,,,,,,f,0.171,space,0.4054,,,,,,,,0,123,123,8,1,,
5c79cc22f5b67c0012d5b9ed,2023-06-16_18h38.25.564,phx_ver10,2022.2.5,MacIntel,60.0024001,,,,,,,,,,,,132,testing_3,sh2j,au,sh2j_au,sh2j_8_aujau.wav,sh2j_1_aushau.wav,,FALSE,FALSE,,,,,,,,,,,,,,j,0.0201,space,0.4524,,,,,,,,0,124,124,131,1,,
5c79cc22f5b67c0012d5b9ed,2023-06-16_18h38.25.564,phx_ver10,2022.2.5,MacIntel,60.0024001,,,,,,,,,,,,62,testing_3,zh2j,e,zh2j_e,zh2j_8_eje.wav,zh2j_8_eje.wav,,TRUE,FALSE,,,,,,,,,,,,,,f,0.2487,space,0.5678,,,,,,,,0,125,125,61,1,,
5c79cc22f5b67c0012d5b9ed,2023-06-16_18h38.25.564,phx_ver10,2022.2.5,MacIntel,60.0024001,,,,,,,,,,,,31,testing_3,zh2sh,ai,zh2sh_ai,zh2sh_1_aizhai.wav,zh2sh_8_aishai.wav,,FALSE,FALSE,,,,,,,,,,,,,,j,0.0005,space,0.3526,,,,,,,,0,126,126,30,1,,
5c79cc22f5b67c0012d5b9ed,2023-06-16_18h38.25.564,phx_ver10,2022.2.5,MacIntel,60.0024001,,,,,,,,,,,,104,testing_3,sh2x,ai,sh2x_ai,sh2x_8_aixai.wav,sh2x_1_aishai.wav,,FALSE,FALSE,,,,,,,,,,,,,,f,0.2238,space,0.4881,,,,,,,,0,127,127,103,1,,
5c79cc22f5b67c0012d5b9ed,2023-06-16_18h38.25.564,phx_ver10,2022.2.5,MacIntel,60.0024001,,,,,,,,,,,,4,testing_1,zh2x,a,zh2x_a,zh2x_8_axa.wav,zh2x_1_azha.wav,,FALSE,TRUE,,,,,,,,,,,,,,j,0.1906,space,0.4877,,,,,,,,0,128,128,3,1,,
5c79cc22f5b67c0012d5b9ed,2023-06-16_18h38.25.564,phx_ver10,2022.2.5,MacIntel,60.0024001,,,,,,,,,,,,1,testing_1,zh2x,a,zh2x_a,zh2x_1_azha.wav,zh2x_1_azha_copy.wav,,TRUE,TRUE,,,,,,,,,,,,,,f,0.2904,space,0.472,,,,,,,,0,129,129,0,1,,
5c79cc22f5b67c0012d5b9ed,2023-06-16_18h38.25.564,phx_ver10,2022.2.5,MacIntel,60.0024001,,,,,,,,,,,,20,testing_2,zh2x,au,zh2x_au,zh2x_8_auxau.wav,zh2x_1_auzhau.wav,,FALSE,FALSE,,,,,,,,,,,,,,j,0.1528,space,0.4861,,,,,,,,0,130,130,19,1,,
5c79cc22f5b67c0012d5b9ed,2023-06-16_18h38.25.564,phx_ver10,2022.2.5,MacIntel,60.0024001,,,,,,,,,,,,28,testing_3,zh2sh,a,zh2sh_a,zh2sh_8_asha.wav,zh2sh_1_azha.wav,,FALSE,FALSE,,,,,,,,,,,,,,j,0.1204,space,0.4405,,,,,,,,0,131,131,27,1,,
5c79cc22f5b67c0012d5b9ed,2023-06-16_18h38.25.564,phx_ver10,2022.2.5,MacIntel,60.0024001,,,,,,,,,,,,130,testing_3,sh2j,au,sh2j_au,sh2j_8_aujau.wav,sh2j_8_aujau.wav,,TRUE,FALSE,,,,,,,,,,,,,,f,0.17,space,0.5191,,,,,,,,0,132,132,129,1,,
5c79cc22f5b67c0012d5b9ed,2023-06-16_18h38.25.564,phx_ver10,2022.2.5,MacIntel,60.0024001,,,,,,,,,,,,117,testing_3,sh2x,i,sh2x_i,sh2x_1_ishi.wav,sh2x_1_ishi.wav,,TRUE,FALSE,,,,,,,,,,,,,,f,0.0539,space,0.3695,,,,,,,,0,133,133,116,1,,
5c79cc22f5b67c0012d5b9ed,2023-06-16_18h38.25.564,phx_ver10,2022.2.5,MacIntel,60.0024001,,,,,,,,,,,,38,testing_3,zh2sh,e,zh2sh_e,zh2sh_8_eshe.wav,zh2sh_8_eshe.wav,,TRUE,FALSE,,,,,,,,,,,,,,f,0.2664,space,0.4509,,,,,,,,0,134,134,37,1,,
5c79cc22f5b67c0012d5b9ed,2023-06-16_18h38.25.564,phx_ver10,2022.2.5,MacIntel,60.0024001,,,,,,,,,,,,86,testing_3,j2x,e,j2x_e,j2x_8_exe.wav,j2x_8_exe.wav,,TRUE,FALSE,,,,,,,,,,,,,,f,0.5374,space,0.9703,,,,,,,,0,135,135,85,1,,
5c79cc22f5b67c0012d5b9ed,2023-06-16_18h38.25.564,phx_ver10,2022.2.5,MacIntel,60.0024001,,,,,,,,,,,,7,testing_1,zh2x,e,zh2x_e,zh2x_1_ezhe.wav,zh2x_8_exe.wav,,FALSE,TRUE,,,,,,,,,,,,,,j,0.0478,space,0.4134,,,,,,,,0,136,136,6,1,,
5c79cc22f5b67c0012d5b9ed,2023-06-16_18h38.25.564,phx_ver10,2022.2.5,MacIntel,60.0024001,,,,,,,,,,,,101,testing_3,sh2x,ai,sh2x_ai,sh2x_1_aishai.wav,sh2x_1_aishai.wav,,TRUE,FALSE,,,,,,,,,,,,,,f,0.5395,space,0.8379,,,,,,,,0,137,137,100,1,,
5c79cc22f5b67c0012d5b9ed,2023-06-16_18h38.25.564,phx_ver10,2022.2.5,MacIntel,60.0024001,,,,,,,,,,,,16,testing_2,zh2x,ai,zh2x_ai,zh2x_8_aixai.wav,zh2x_1_aizhai.wav,,FALSE,FALSE,,,,,,,,,,,,,,j,0.3357,space,0.5038,,,,,,,,0,138,138,15,1,,
5c79cc22f5b67c0012d5b9ed,2023-06-16_18h38.25.564,phx_ver10,2022.2.5,MacIntel,60.0024001,,,,,,,,,,,,52,testing_3,zh2j,a,zh2j_a,zh2j_8_aja.wav,zh2j_1_azha.wav,,FALSE,FALSE,,,,,,,,,,,,,,f,0.0167,space,0.3897,,,,,,,,0,139,139,51,1,,
5c79cc22f5b67c0012d5b9ed,2023-06-16_18h38.25.564,phx_ver10,2022.2.5,MacIntel,60.0024001,,,,,,,,,,,,124,testing_3,sh2j,a,sh2j_a,sh2j_8_aja.wav,sh2j_1_asha.wav,,FALSE,FALSE,,,,,,,,,,,,,,j,0.3139,space,0.5869,,,,,,,,0,140,140,123,1,,
5c79cc22f5b67c0012d5b9ed,2023-06-16_18h38.25.564,phx_ver10,2022.2.5,MacIntel,60.0024001,,,,,,,,,,,,143,testing_3,sh2j,i,sh2j_i,sh2j_1_ishi.wav,sh2j_8_iji.wav,,FALSE,FALSE,,,,,,,,,,,,,,j,0.3499,space,0.5176,,,,,,,,0,141,141,142,1,,
5c79cc22f5b67c0012d5b9ed,2023-06-16_18h38.25.564,phx_ver10,2022.2.5,MacIntel,60.0024001,,,,,,,,,,,,127,testing_3,sh2j,ai,sh2j_ai,sh2j_1_aishai.wav,sh2j_8_aijai.wav,,FALSE,FALSE,,,,,,,,,,,,,,j,0.1505,space,0.4806,,,,,,,,0,142,142,126,1,,
5c79cc22f5b67c0012d5b9ed,2023-06-16_18h38.25.564,phx_ver10,2022.2.5,MacIntel,60.0024001,,,,,,,,,,,,110,testing_3,sh2x,e,sh2x_e,sh2x_8_exe.wav,sh2x_8_exe.wav,,TRUE,FALSE,,,,,,,,,,,,,,f,0.0563,space,0.3904,,,,,,,,0,143,143,109,1,,
5c79cc22f5b67c0012d5b9ed,2023-06-16_18h38.25.564,phx_ver10,2022.2.5,MacIntel,60.0024001,,,,,,,,,,,,,,,,,,,,,,,,,,,,,,,,,,,,,,,,,,,,,,,,,,,space,2.7911
