participant,date,expName,psychopyVersion,OS,frameRate,space_1.keys,space_1.rt,space_2.keys,space_2.rt,space_train.keys,space_train.rt,training.thisRepN,training.thisTrialN,training.thisN,training.thisIndex,training.ran,token_id,task,continuum,vowel,series,sound_1,sound_2,img,same,trained,FJ_attn.keys,FJ_attn.rt,space_attn.keys,space_attn.rt,if_attn_test.thisRepN,if_attn_test.thisTrialN,if_attn_test.thisN,if_attn_test.thisIndex,if_attn_test.ran,space_trans_1.keys,space_trans_1.rt,space_trans_11.keys,space_trans_11.rt,FJ_test.keys,FJ_test.rt,space_test.keys,space_test.rt,testing_pre.thisRepN,testing_pre.thisTrialN,testing_pre.thisN,testing_pre.thisIndex,testing_pre.ran,space_trans_2.keys,space_trans_2.rt,testing_all.thisRepN,testing_all.thisTrialN,testing_all.thisN,testing_all.thisIndex,testing_all.ran,space_ending.keys,space_ending.rt
5c871ab7de75d4001602869d,2023-06-16_10h07.50.809,phx_ver10,2022.2.5,Win32,60.0240096,,,,,,,,,,,,,,,,,,,,,,,,,,,,,,,,,,,,,,,,,,,,,,,,,,,,
5c871ab7de75d4001602869d,2023-06-16_10h07.50.809,phx_ver10,2022.2.5,Win32,60.0240096,space,11.414,,,,,,,,,,,,,,,,,,,,,,,,,,,,,,,,,,,,,,,,,,,,,,,,,,
5c871ab7de75d4001602869d,2023-06-16_10h07.50.809,phx_ver10,2022.2.5,Win32,60.0240096,,,space,6.847,,,,,,,,,,,,,,,,,,,,,,,,,,,,,,,,,,,,,,,,,,,,,,,,
5c871ab7de75d4001602869d,2023-06-16_10h07.50.809,phx_ver10,2022.2.5,Win32,60.0240096,,,,,space,2.198,0,0,0,38,1,39,training,zh2x,i,zh2x_i,zh2x_3_izhi.wav,,izhi.jpg,,,,,,,,,,,,,,,,,,,,,,,,,,,,,,,,,
5c871ab7de75d4001602869d,2023-06-16_10h07.50.809,phx_ver10,2022.2.5,Win32,60.0240096,,,,,space,1.703,0,1,1,6,1,7,training,zh2x,a,zh2x_a,zh2x_3_azha.wav,,azha.jpg,,,,,,,,,,,,,,,,,,,,,,,,,,,,,,,,,
5c871ab7de75d4001602869d,2023-06-16_10h07.50.809,phx_ver10,2022.2.5,Win32,60.0240096,,,,,space,0.168,0,2,2,2,1,3,training,zh2x,a,zh2x_a,zh2x_2_azha.wav,,azha.jpg,,,,,,,,,,,,,,,,,,,,,,,,,,,,,,,,,
5c871ab7de75d4001602869d,2023-06-16_10h07.50.809,phx_ver10,2022.2.5,Win32,60.0240096,,,,,space,1.79,0,3,3,47,1,48,training,zh2x,i,zh2x_i,zh2x_8_ixi.wav,,ixi.jpg,,,,,,,,,,,,,,,,,,,,,,,,,,,,,,,,,
5c871ab7de75d4001602869d,2023-06-16_10h07.50.809,phx_ver10,2022.2.5,Win32,60.0240096,,,,,space,1.735,0,4,4,28,1,29,training,zh2x,e,zh2x_e,zh2x_7_exe.wav,,exe.jpg,,,,,,,,,,,,,,,,,,,,,,,,,,,,,,,,,
5c871ab7de75d4001602869d,2023-06-16_10h07.50.809,phx_ver10,2022.2.5,Win32,60.0240096,,,,,space,1.401,0,5,5,9,1,10,training,zh2x,a,zh2x_a,zh2x_6_axa.wav,,axa.jpg,,,,,,,,,,,,,,,,,,,,,,,,,,,,,,,,,
5c871ab7de75d4001602869d,2023-06-16_10h07.50.809,phx_ver10,2022.2.5,Win32,60.0240096,,,,,,,,,,,,,attn_test,,,,zh2x_8_axa.wav,zh2x_1_azha.wav,axa.jpg,LEFT,,f,10.076,space,12.099,0,0,0,0,1,,,,,,,,,,,,,,,,,,,,,,
5c871ab7de75d4001602869d,2023-06-16_10h07.50.809,phx_ver10,2022.2.5,Win32,60.0240096,,,,,space,0.941,0,6,6,37,1,38,training,zh2x,i,zh2x_i,zh2x_3_izhi.wav,,izhi.jpg,,,,,,,,,,,,,,,,,,,,,,,,,,,,,,,,,
5c871ab7de75d4001602869d,2023-06-16_10h07.50.809,phx_ver10,2022.2.5,Win32,60.0240096,,,,,space,1.955,0,7,7,40,1,41,training,zh2x,i,zh2x_i,zh2x_5_ixi.wav,,ixi.jpg,,,,,,,,,,,,,,,,,,,,,,,,,,,,,,,,,
5c871ab7de75d4001602869d,2023-06-16_10h07.50.809,phx_ver10,2022.2.5,Win32,60.0240096,,,,,space,0.703,0,8,8,32,1,33,training,zh2x,i,zh2x_i,zh2x_1_izhi.wav,,izhi.jpg,,,,,,,,,,,,,,,,,,,,,,,,,,,,,,,,,
5c871ab7de75d4001602869d,2023-06-16_10h07.50.809,phx_ver10,2022.2.5,Win32,60.0240096,,,,,space,1.001,0,9,9,12,1,13,training,zh2x,a,zh2x_a,zh2x_7_axa.wav,,axa.jpg,,,,,,,,,,,,,,,,,,,,,,,,,,,,,,,,,
5c871ab7de75d4001602869d,2023-06-16_10h07.50.809,phx_ver10,2022.2.5,Win32,60.0240096,,,,,space,1.545,0,10,10,27,1,28,training,zh2x,e,zh2x_e,zh2x_7_exe.wav,,exe.jpg,,,,,,,,,,,,,,,,,,,,,,,,,,,,,,,,,
5c871ab7de75d4001602869d,2023-06-16_10h07.50.809,phx_ver10,2022.2.5,Win32,60.0240096,,,,,space,0.751,0,11,11,39,1,40,training,zh2x,i,zh2x_i,zh2x_4_izhi.wav,,izhi.jpg,,,,,,,,,,,,,,,,,,,,,,,,,,,,,,,,,
5c871ab7de75d4001602869d,2023-06-16_10h07.50.809,phx_ver10,2022.2.5,Win32,60.0240096,,,,,,,,,,,,,attn_test,,,,zh2x_1_izhi.wav,zh2x_8_exe.wav,izhi.jpg,LEFT,,f,7.719,space,9.348,0,0,0,0,1,,,,,,,,,,,,,,,,,,,,,,
5c871ab7de75d4001602869d,2023-06-16_10h07.50.809,phx_ver10,2022.2.5,Win32,60.0240096,,,,,space,1.008,0,12,12,22,1,23,training,zh2x,e,zh2x_e,zh2x_3_ezhe.wav,,ezhe.jpg,,,,,,,,,,,,,,,,,,,,,,,,,,,,,,,,,
5c871ab7de75d4001602869d,2023-06-16_10h07.50.809,phx_ver10,2022.2.5,Win32,60.0240096,,,,,space,0.791,0,13,13,16,1,17,training,zh2x,e,zh2x_e,zh2x_1_ezhe.wav,,ezhe.jpg,,,,,,,,,,,,,,,,,,,,,,,,,,,,,,,,,
5c871ab7de75d4001602869d,2023-06-16_10h07.50.809,phx_ver10,2022.2.5,Win32,60.0240096,,,,,space,0.871,0,14,14,45,1,46,training,zh2x,i,zh2x_i,zh2x_7_ixi.wav,,ixi.jpg,,,,,,,,,,,,,,,,,,,,,,,,,,,,,,,,,
5c871ab7de75d4001602869d,2023-06-16_10h07.50.809,phx_ver10,2022.2.5,Win32,60.0240096,,,,,space,0.202,0,15,15,33,1,34,training,zh2x,i,zh2x_i,zh2x_2_izhi.wav,,izhi.jpg,,,,,,,,,,,,,,,,,,,,,,,,,,,,,,,,,
5c871ab7de75d4001602869d,2023-06-16_10h07.50.809,phx_ver10,2022.2.5,Win32,60.0240096,,,,,space,0.587,0,16,16,13,1,14,training,zh2x,a,zh2x_a,zh2x_7_axa.wav,,axa.jpg,,,,,,,,,,,,,,,,,,,,,,,,,,,,,,,,,
5c871ab7de75d4001602869d,2023-06-16_10h07.50.809,phx_ver10,2022.2.5,Win32,60.0240096,,,,,space,0.785,0,17,17,0,1,1,training,zh2x,a,zh2x_a,zh2x_1_azha.wav,,azha.jpg,,,,,,,,,,,,,,,,,,,,,,,,,,,,,,,,,
5c871ab7de75d4001602869d,2023-06-16_10h07.50.809,phx_ver10,2022.2.5,Win32,60.0240096,,,,,,,,,,,,,attn_test,,,,zh2x_1_ezhe.wav,zh2x_1_izhi.wav,ezhe.jpg,LEFT,,f,1.422,space,3.205,0,0,0,0,1,,,,,,,,,,,,,,,,,,,,,,
5c871ab7de75d4001602869d,2023-06-16_10h07.50.809,phx_ver10,2022.2.5,Win32,60.0240096,,,,,space,1.088,0,18,18,19,1,20,training,zh2x,e,zh2x_e,zh2x_2_ezhe.wav,,ezhe.jpg,,,,,,,,,,,,,,,,,,,,,,,,,,,,,,,,,
5c871ab7de75d4001602869d,2023-06-16_10h07.50.809,phx_ver10,2022.2.5,Win32,60.0240096,,,,,space,0.418,0,19,19,18,1,19,training,zh2x,e,zh2x_e,zh2x_2_ezhe.wav,,ezhe.jpg,,,,,,,,,,,,,,,,,,,,,,,,,,,,,,,,,
5c871ab7de75d4001602869d,2023-06-16_10h07.50.809,phx_ver10,2022.2.5,Win32,60.0240096,,,,,space,0.052,0,20,20,23,1,24,training,zh2x,e,zh2x_e,zh2x_4_ezhe.wav,,ezhe.jpg,,,,,,,,,,,,,,,,,,,,,,,,,,,,,,,,,
5c871ab7de75d4001602869d,2023-06-16_10h07.50.809,phx_ver10,2022.2.5,Win32,60.0240096,,,,,space,0.553,0,21,21,5,1,6,training,zh2x,a,zh2x_a,zh2x_3_azha.wav,,azha.jpg,,,,,,,,,,,,,,,,,,,,,,,,,,,,,,,,,
5c871ab7de75d4001602869d,2023-06-16_10h07.50.809,phx_ver10,2022.2.5,Win32,60.0240096,,,,,space,1.685,0,22,22,29,1,30,training,zh2x,e,zh2x_e,zh2x_7_exe.wav,,exe.jpg,,,,,,,,,,,,,,,,,,,,,,,,,,,,,,,,,
5c871ab7de75d4001602869d,2023-06-16_10h07.50.809,phx_ver10,2022.2.5,Win32,60.0240096,,,,,space,0.352,0,23,23,11,1,12,training,zh2x,a,zh2x_a,zh2x_7_axa.wav,,axa.jpg,,,,,,,,,,,,,,,,,,,,,,,,,,,,,,,,,
5c871ab7de75d4001602869d,2023-06-16_10h07.50.809,phx_ver10,2022.2.5,Win32,60.0240096,,,,,,,,,,,,,attn_test,,,,zh2x_1_izhi.wav,zh2x_8_exe.wav,exe.jpg,RIGHT,,j,1.974,space,2.67,0,0,0,0,1,,,,,,,,,,,,,,,,,,,,,,
5c871ab7de75d4001602869d,2023-06-16_10h07.50.809,phx_ver10,2022.2.5,Win32,60.0240096,,,,,space,1.053,0,24,24,25,1,26,training,zh2x,e,zh2x_e,zh2x_6_exe.wav,,exe.jpg,,,,,,,,,,,,,,,,,,,,,,,,,,,,,,,,,
5c871ab7de75d4001602869d,2023-06-16_10h07.50.809,phx_ver10,2022.2.5,Win32,60.0240096,,,,,space,0.552,0,25,25,46,1,47,training,zh2x,i,zh2x_i,zh2x_7_ixi.wav,,ixi.jpg,,,,,,,,,,,,,,,,,,,,,,,,,,,,,,,,,
5c871ab7de75d4001602869d,2023-06-16_10h07.50.809,phx_ver10,2022.2.5,Win32,60.0240096,,,,,space,0.487,0,26,26,8,1,9,training,zh2x,a,zh2x_a,zh2x_5_axa.wav,,axa.jpg,,,,,,,,,,,,,,,,,,,,,,,,,,,,,,,,,
5c871ab7de75d4001602869d,2023-06-16_10h07.50.809,phx_ver10,2022.2.5,Win32,60.0240096,,,,,space,1.388,0,27,27,10,1,11,training,zh2x,a,zh2x_a,zh2x_6_axa.wav,,axa.jpg,,,,,,,,,,,,,,,,,,,,,,,,,,,,,,,,,
5c871ab7de75d4001602869d,2023-06-16_10h07.50.809,phx_ver10,2022.2.5,Win32,60.0240096,,,,,space,0.421,0,28,28,36,1,37,training,zh2x,i,zh2x_i,zh2x_2_izhi.wav,,izhi.jpg,,,,,,,,,,,,,,,,,,,,,,,,,,,,,,,,,
5c871ab7de75d4001602869d,2023-06-16_10h07.50.809,phx_ver10,2022.2.5,Win32,60.0240096,,,,,space,0.618,0,29,29,24,1,25,training,zh2x,e,zh2x_e,zh2x_5_exe.wav,,exe.jpg,,,,,,,,,,,,,,,,,,,,,,,,,,,,,,,,,
5c871ab7de75d4001602869d,2023-06-16_10h07.50.809,phx_ver10,2022.2.5,Win32,60.0240096,,,,,,,,,,,,,attn_test,,,,zh2x_8_axa.wav,zh2x_1_ezhe.wav,axa.jpg,LEFT,,f,2.569,space,3.352,0,0,0,0,1,,,,,,,,,,,,,,,,,,,,,,
5c871ab7de75d4001602869d,2023-06-16_10h07.50.809,phx_ver10,2022.2.5,Win32,60.0240096,,,,,space,0.219,0,30,30,21,1,22,training,zh2x,e,zh2x_e,zh2x_3_ezhe.wav,,ezhe.jpg,,,,,,,,,,,,,,,,,,,,,,,,,,,,,,,,,
5c871ab7de75d4001602869d,2023-06-16_10h07.50.809,phx_ver10,2022.2.5,Win32,60.0240096,,,,,space,0.019,0,31,31,34,1,35,training,zh2x,i,zh2x_i,zh2x_2_izhi.wav,,izhi.jpg,,,,,,,,,,,,,,,,,,,,,,,,,,,,,,,,,
5c871ab7de75d4001602869d,2023-06-16_10h07.50.809,phx_ver10,2022.2.5,Win32,60.0240096,,,,,space,0.352,0,32,32,31,1,32,training,zh2x,e,zh2x_e,zh2x_8_exe.wav,,exe.jpg,,,,,,,,,,,,,,,,,,,,,,,,,,,,,,,,,
5c871ab7de75d4001602869d,2023-06-16_10h07.50.809,phx_ver10,2022.2.5,Win32,60.0240096,,,,,space,0.019,0,33,33,26,1,27,training,zh2x,e,zh2x_e,zh2x_6_exe.wav,,exe.jpg,,,,,,,,,,,,,,,,,,,,,,,,,,,,,,,,,
5c871ab7de75d4001602869d,2023-06-16_10h07.50.809,phx_ver10,2022.2.5,Win32,60.0240096,,,,,space,0.022,0,34,34,30,1,31,training,zh2x,e,zh2x_e,zh2x_7_exe.wav,,exe.jpg,,,,,,,,,,,,,,,,,,,,,,,,,,,,,,,,,
5c871ab7de75d4001602869d,2023-06-16_10h07.50.809,phx_ver10,2022.2.5,Win32,60.0240096,,,,,space,0.436,0,35,35,1,1,2,training,zh2x,a,zh2x_a,zh2x_2_azha.wav,,azha.jpg,,,,,,,,,,,,,,,,,,,,,,,,,,,,,,,,,
5c871ab7de75d4001602869d,2023-06-16_10h07.50.809,phx_ver10,2022.2.5,Win32,60.0240096,,,,,,,,,,,,,attn_test,,,,zh2x_8_axa.wav,zh2x_8_exe.wav,exe.jpg,RIGHT,,j,1.652,space,2.283,0,0,0,0,1,,,,,,,,,,,,,,,,,,,,,,
5c871ab7de75d4001602869d,2023-06-16_10h07.50.809,phx_ver10,2022.2.5,Win32,60.0240096,,,,,space,0.552,0,36,36,14,1,15,training,zh2x,a,zh2x_a,zh2x_7_axa.wav,,axa.jpg,,,,,,,,,,,,,,,,,,,,,,,,,,,,,,,,,
5c871ab7de75d4001602869d,2023-06-16_10h07.50.809,phx_ver10,2022.2.5,Win32,60.0240096,,,,,space,0.837,0,37,37,3,1,4,training,zh2x,a,zh2x_a,zh2x_2_azha.wav,,azha.jpg,,,,,,,,,,,,,,,,,,,,,,,,,,,,,,,,,
5c871ab7de75d4001602869d,2023-06-16_10h07.50.809,phx_ver10,2022.2.5,Win32,60.0240096,,,,,space,0.936,0,38,38,4,1,5,training,zh2x,a,zh2x_a,zh2x_2_azha.wav,,azha.jpg,,,,,,,,,,,,,,,,,,,,,,,,,,,,,,,,,
5c871ab7de75d4001602869d,2023-06-16_10h07.50.809,phx_ver10,2022.2.5,Win32,60.0240096,,,,,space,0.085,0,39,39,43,1,44,training,zh2x,i,zh2x_i,zh2x_7_ixi.wav,,ixi.jpg,,,,,,,,,,,,,,,,,,,,,,,,,,,,,,,,,
5c871ab7de75d4001602869d,2023-06-16_10h07.50.809,phx_ver10,2022.2.5,Win32,60.0240096,,,,,space,0.705,0,40,40,42,1,43,training,zh2x,i,zh2x_i,zh2x_6_ixi.wav,,ixi.jpg,,,,,,,,,,,,,,,,,,,,,,,,,,,,,,,,,
5c871ab7de75d4001602869d,2023-06-16_10h07.50.809,phx_ver10,2022.2.5,Win32,60.0240096,,,,,space,1.401,0,41,41,41,1,42,training,zh2x,i,zh2x_i,zh2x_6_ixi.wav,,ixi.jpg,,,,,,,,,,,,,,,,,,,,,,,,,,,,,,,,,
5c871ab7de75d4001602869d,2023-06-16_10h07.50.809,phx_ver10,2022.2.5,Win32,60.0240096,,,,,,,,,,,,,attn_test,,,,zh2x_1_azha.wav,zh2x_1_ezhe.wav,azha.jpg,LEFT,,f,5.136,space,5.686,0,0,0,0,1,,,,,,,,,,,,,,,,,,,,,,
5c871ab7de75d4001602869d,2023-06-16_10h07.50.809,phx_ver10,2022.2.5,Win32,60.0240096,,,,,space,0.467,0,42,42,7,1,8,training,zh2x,a,zh2x_a,zh2x_4_azha.wav,,azha.jpg,,,,,,,,,,,,,,,,,,,,,,,,,,,,,,,,,
5c871ab7de75d4001602869d,2023-06-16_10h07.50.809,phx_ver10,2022.2.5,Win32,60.0240096,,,,,space,0.319,0,43,43,17,1,18,training,zh2x,e,zh2x_e,zh2x_2_ezhe.wav,,ezhe.jpg,,,,,,,,,,,,,,,,,,,,,,,,,,,,,,,,,
5c871ab7de75d4001602869d,2023-06-16_10h07.50.809,phx_ver10,2022.2.5,Win32,60.0240096,,,,,space,0.167,0,44,44,35,1,36,training,zh2x,i,zh2x_i,zh2x_2_izhi.wav,,izhi.jpg,,,,,,,,,,,,,,,,,,,,,,,,,,,,,,,,,
5c871ab7de75d4001602869d,2023-06-16_10h07.50.809,phx_ver10,2022.2.5,Win32,60.0240096,,,,,space,0.353,0,45,45,44,1,45,training,zh2x,i,zh2x_i,zh2x_7_ixi.wav,,ixi.jpg,,,,,,,,,,,,,,,,,,,,,,,,,,,,,,,,,
5c871ab7de75d4001602869d,2023-06-16_10h07.50.809,phx_ver10,2022.2.5,Win32,60.0240096,,,,,space,0.318,0,46,46,15,1,16,training,zh2x,a,zh2x_a,zh2x_8_axa.wav,,axa.jpg,,,,,,,,,,,,,,,,,,,,,,,,,,,,,,,,,
5c871ab7de75d4001602869d,2023-06-16_10h07.50.809,phx_ver10,2022.2.5,Win32,60.0240096,,,,,space,0.202,0,47,47,20,1,21,training,zh2x,e,zh2x_e,zh2x_2_ezhe.wav,,ezhe.jpg,,,,,,,,,,,,,,,,,,,,,,,,,,,,,,,,,
5c871ab7de75d4001602869d,2023-06-16_10h07.50.809,phx_ver10,2022.2.5,Win32,60.0240096,,,,,,,,,,,,,attn_test,,,,zh2x_1_izhi.wav,zh2x_8_ixi.wav,ixi.jpg,RIGHT,,j,3.301,space,3.851,,,,,,,,,,,,,,,,,,,,,,,,,,,
5c871ab7de75d4001602869d,2023-06-16_10h07.50.809,phx_ver10,2022.2.5,Win32,60.0240096,,,,,,,,,,,,,,,,,,,,,,,,,,,,,,,space,4.486,,,,,,,,,,,,,,,,,,,,
5c871ab7de75d4001602869d,2023-06-16_10h07.50.809,phx_ver10,2022.2.5,Win32,60.0240096,,,,,,,,,,,,,,,,,,,,,,,,,,,,,,,,,space,8.063,,,,,,,,,,,,,,,,,,
5c871ab7de75d4001602869d,2023-06-16_10h07.50.809,phx_ver10,2022.2.5,Win32,60.0240096,,,,,,,,,,,,5,testing_pre,,,,ihi.wav,ifi.wav,,FALSE,,,,,,,,,,,,,,,j,1.215,space,2.034,0,0,0,4,1,,,,,,,,,
5c871ab7de75d4001602869d,2023-06-16_10h07.50.809,phx_ver10,2022.2.5,Win32,60.0240096,,,,,,,,,,,,3,testing_pre,,,,afa.wav,aha.wav,,FALSE,,,,,,,,,,,,,,,j,0.238,space,1.04,0,1,1,2,1,,,,,,,,,
5c871ab7de75d4001602869d,2023-06-16_10h07.50.809,phx_ver10,2022.2.5,Win32,60.0240096,,,,,,,,,,,,2,testing_pre,,,,auhau.wav,aufau.wav,,FALSE,,,,,,,,,,,,,,,j,0.485,space,1.018,0,2,2,1,1,,,,,,,,,
5c871ab7de75d4001602869d,2023-06-16_10h07.50.809,phx_ver10,2022.2.5,Win32,60.0240096,,,,,,,,,,,,1,testing_pre,,,,ifi.wav,ifi.wav,,TRUE,,,,,,,,,,,,,,,f,0.441,space,1.119,0,3,3,0,1,,,,,,,,,
5c871ab7de75d4001602869d,2023-06-16_10h07.50.809,phx_ver10,2022.2.5,Win32,60.0240096,,,,,,,,,,,,4,testing_pre,,,,eihei.wav,eihei.wav,,TRUE,,,,,,,,,,,,,,,f,0.036,space,0.569,0,4,4,3,1,,,,,,,,,
5c871ab7de75d4001602869d,2023-06-16_10h07.50.809,phx_ver10,2022.2.5,Win32,60.0240096,,,,,,,,,,,,,,,,,,,,,,,,,,,,,,,,,,,,,,,,,,,,space,1.122,,,,,,,
5c871ab7de75d4001602869d,2023-06-16_10h07.50.809,phx_ver10,2022.2.5,Win32,60.0240096,,,,,,,,,,,,72,testing_3,zh2j,i,zh2j_i,zh2j_8_iji.wav,zh2j_1_izhi.wav,,FALSE,FALSE,,,,,,,,,,,,,,f,0.191,space,0.907,,,,,,,,0,0,0,71,1,,
5c871ab7de75d4001602869d,2023-06-16_10h07.50.809,phx_ver10,2022.2.5,Win32,60.0240096,,,,,,,,,,,,33,testing_3,zh2sh,au,zh2sh_au,zh2sh_1_auzhau.wav,zh2sh_1_auzhau.wav,,TRUE,FALSE,,,,,,,,,,,,,,f,0.285,space,0.725,,,,,,,,0,1,1,32,1,,
5c871ab7de75d4001602869d,2023-06-16_10h07.50.809,phx_ver10,2022.2.5,Win32,60.0240096,,,,,,,,,,,,128,testing_3,sh2j,ai,sh2j_ai,sh2j_8_aijai.wav,sh2j_1_aishai.wav,,FALSE,FALSE,,,,,,,,,,,,,,j,0.051,space,0.569,,,,,,,,0,2,2,127,1,,
5c871ab7de75d4001602869d,2023-06-16_10h07.50.809,phx_ver10,2022.2.5,Win32,60.0240096,,,,,,,,,,,,62,testing_3,zh2j,e,zh2j_e,zh2j_8_eje.wav,zh2j_8_eje.wav,,TRUE,FALSE,,,,,,,,,,,,,,f,0.385,space,0.819,,,,,,,,0,3,3,61,1,,
5c871ab7de75d4001602869d,2023-06-16_10h07.50.809,phx_ver10,2022.2.5,Win32,60.0240096,,,,,,,,,,,,63,testing_3,zh2j,e,zh2j_e,zh2j_1_ezhe.wav,zh2j_8_eje.wav,,FALSE,FALSE,,,,,,,,,,,,,,f,0.035,space,0.472,,,,,,,,0,4,4,62,1,,
5c871ab7de75d4001602869d,2023-06-16_10h07.50.809,phx_ver10,2022.2.5,Win32,60.0240096,,,,,,,,,,,,82,testing_3,j2x,au,j2x_au,j2x_8_auxau.wav,j2x_8_auxau.wav,,TRUE,FALSE,,,,,,,,,,,,,,j,0.792,space,1.251,,,,,,,,0,5,5,81,1,,
5c871ab7de75d4001602869d,2023-06-16_10h07.50.809,phx_ver10,2022.2.5,Win32,60.0240096,,,,,,,,,,,,98,testing_3,sh2x,a,sh2x_a,sh2x_8_axa.wav,sh2x_8_axa.wav,,TRUE,FALSE,,,,,,,,,,,,,,f,0.035,space,0.519,,,,,,,,0,6,6,97,1,,
5c871ab7de75d4001602869d,2023-06-16_10h07.50.809,phx_ver10,2022.2.5,Win32,60.0240096,,,,,,,,,,,,56,testing_3,zh2j,ai,zh2j_ai,zh2j_8_aijai.wav,zh2j_1_aizhai.wav,,FALSE,FALSE,,,,,,,,,,,,,,f,0.722,space,1.235,,,,,,,,0,7,7,55,1,,
5c871ab7de75d4001602869d,2023-06-16_10h07.50.809,phx_ver10,2022.2.5,Win32,60.0240096,,,,,,,,,,,,70,testing_3,zh2j,i,zh2j_i,zh2j_8_iji.wav,zh2j_8_iji.wav,,TRUE,FALSE,,,,,,,,,,,,,,f,0.103,space,0.605,,,,,,,,0,8,8,69,1,,
5c871ab7de75d4001602869d,2023-06-16_10h07.50.809,phx_ver10,2022.2.5,Win32,60.0240096,,,,,,,,,,,,99,testing_3,sh2x,a,sh2x_a,sh2x_1_asha.wav,sh2x_8_axa.wav,,FALSE,FALSE,,,,,,,,,,,,,,f,0.003,space,0.652,,,,,,,,0,9,9,98,1,,
5c871ab7de75d4001602869d,2023-06-16_10h07.50.809,phx_ver10,2022.2.5,Win32,60.0240096,,,,,,,,,,,,78,testing_3,j2x,ai,j2x_ai,j2x_8_aixai.wav,j2x_8_aixai.wav,,TRUE,FALSE,,,,,,,,,,,,,,f,0.024,space,0.553,,,,,,,,0,10,10,77,1,,
5c871ab7de75d4001602869d,2023-06-16_10h07.50.809,phx_ver10,2022.2.5,Win32,60.0240096,,,,,,,,,,,,21,testing_2,zh2x,ei,zh2x_ei,zh2x_1_eizhei.wav,zh2x_1_eizhei.wav,,TRUE,FALSE,,,,,,,,,,,,,,f,0.223,space,0.769,,,,,,,,0,11,11,20,1,,
5c871ab7de75d4001602869d,2023-06-16_10h07.50.809,phx_ver10,2022.2.5,Win32,60.0240096,,,,,,,,,,,,136,testing_3,sh2j,e,sh2j_e,sh2j_8_eje.wav,sh2j_1_eshe.wav,,FALSE,FALSE,,,,,,,,,,,,,,j,0.436,space,1.325,,,,,,,,0,12,12,135,1,,
5c871ab7de75d4001602869d,2023-06-16_10h07.50.809,phx_ver10,2022.2.5,Win32,60.0240096,,,,,,,,,,,,121,testing_3,sh2j,a,sh2j_a,sh2j_1_asha.wav,sh2j_1_asha.wav,,TRUE,FALSE,,,,,,,,,,,,,,f,0.654,space,1.135,,,,,,,,0,13,13,120,1,,
5c871ab7de75d4001602869d,2023-06-16_10h07.50.809,phx_ver10,2022.2.5,Win32,60.0240096,,,,,,,,,,,,112,testing_3,sh2x,e,sh2x_e,sh2x_8_exe.wav,sh2x_1_eshe.wav,,FALSE,FALSE,,,,,,,,,,,,,,f,0.073,space,0.567,,,,,,,,0,14,14,111,1,,
5c871ab7de75d4001602869d,2023-06-16_10h07.50.809,phx_ver10,2022.2.5,Win32,60.0240096,,,,,,,,,,,,16,testing_2,zh2x,ai,zh2x_ai,zh2x_8_aixai.wav,zh2x_1_aizhai.wav,,FALSE,FALSE,,,,,,,,,,,,,,j,0.186,space,0.653,,,,,,,,0,15,15,15,1,,
5c871ab7de75d4001602869d,2023-06-16_10h07.50.809,phx_ver10,2022.2.5,Win32,60.0240096,,,,,,,,,,,,51,testing_3,zh2j,a,zh2j_a,zh2j_1_azha.wav,zh2j_8_aja.wav,,FALSE,FALSE,,,,,,,,,,,,,,f,0.553,space,1.019,,,,,,,,0,16,16,50,1,,
5c871ab7de75d4001602869d,2023-06-16_10h07.50.809,phx_ver10,2022.2.5,Win32,60.0240096,,,,,,,,,,,,109,testing_3,sh2x,e,sh2x_e,sh2x_1_eshe.wav,sh2x_1_eshe.wav,,TRUE,FALSE,,,,,,,,,,,,,,f,0.64,space,1.119,,,,,,,,0,17,17,108,1,,
5c871ab7de75d4001602869d,2023-06-16_10h07.50.809,phx_ver10,2022.2.5,Win32,60.0240096,,,,,,,,,,,,95,testing_3,j2x,i,j2x_i,j2x_1_iji.wav,j2x_8_ixi.wav,,FALSE,FALSE,,,,,,,,,,,,,,j,1.286,space,1.735,,,,,,,,0,18,18,94,1,,
5c871ab7de75d4001602869d,2023-06-16_10h07.50.809,phx_ver10,2022.2.5,Win32,60.0240096,,,,,,,,,,,,35,testing_3,zh2sh,au,zh2sh_au,zh2sh_1_auzhau.wav,zh2sh_8_aushau.wav,,FALSE,FALSE,,,,,,,,,,,,,,j,0.802,space,1.551,,,,,,,,0,19,19,34,1,,
5c871ab7de75d4001602869d,2023-06-16_10h07.50.809,phx_ver10,2022.2.5,Win32,60.0240096,,,,,,,,,,,,67,testing_3,zh2j,ei,zh2j_ei,zh2j_1_eizhei.wav,zh2j_8_eijei.wav,,FALSE,FALSE,,,,,,,,,,,,,,f,0.2,space,1.155,,,,,,,,0,20,20,66,1,,
5c871ab7de75d4001602869d,2023-06-16_10h07.50.809,phx_ver10,2022.2.5,Win32,60.0240096,,,,,,,,,,,,74,testing_3,j2x,a,j2x_a,j2x_8_axa.wav,j2x_8_axa.wav,,TRUE,FALSE,,,,,,,,,,,,,,f,0.82,space,1.33,,,,,,,,0,21,21,73,1,,
5c871ab7de75d4001602869d,2023-06-16_10h07.50.809,phx_ver10,2022.2.5,Win32,60.0240096,,,,,,,,,,,,71,testing_3,zh2j,i,zh2j_i,zh2j_1_izhi.wav,zh2j_8_iji.wav,,FALSE,FALSE,,,,,,,,,,,,,,f,0.502,space,1.124,,,,,,,,0,22,22,70,1,,
5c871ab7de75d4001602869d,2023-06-16_10h07.50.809,phx_ver10,2022.2.5,Win32,60.0240096,,,,,,,,,,,,24,testing_2,zh2x,ei,zh2x_ei,zh2x_8_eixei.wav,zh2x_1_eizhei.wav,,FALSE,FALSE,,,,,,,,,,,,,,j,0.201,space,0.719,,,,,,,,0,23,23,23,1,,
5c871ab7de75d4001602869d,2023-06-16_10h07.50.809,phx_ver10,2022.2.5,Win32,60.0240096,,,,,,,,,,,,100,testing_3,sh2x,a,sh2x_a,sh2x_8_axa.wav,sh2x_1_asha.wav,,FALSE,FALSE,,,,,,,,,,,,,,f,0.251,space,0.785,,,,,,,,0,24,24,99,1,,
5c871ab7de75d4001602869d,2023-06-16_10h07.50.809,phx_ver10,2022.2.5,Win32,60.0240096,,,,,,,,,,,,4,testing_1,zh2x,a,zh2x_a,zh2x_8_axa.wav,zh2x_1_azha.wav,,FALSE,TRUE,,,,,,,,,,,,,,j,0.153,space,0.986,,,,,,,,0,25,25,3,1,,
5c871ab7de75d4001602869d,2023-06-16_10h07.50.809,phx_ver10,2022.2.5,Win32,60.0240096,,,,,,,,,,,,14,testing_2,zh2x,ai,zh2x_ai,zh2x_8_aixai.wav,zh2x_8_aixai.wav,,TRUE,FALSE,,,,,,,,,,,,,,f,1.24,space,3.104,,,,,,,,0,26,26,13,1,,
5c871ab7de75d4001602869d,2023-06-16_10h07.50.809,phx_ver10,2022.2.5,Win32,60.0240096,,,,,,,,,,,,11,testing_1,zh2x,i,zh2x_i,zh2x_1_izhi.wav,zh2x_8_ixi.wav,,FALSE,TRUE,,,,,,,,,,,,,,j,0.151,space,0.655,,,,,,,,0,27,27,10,1,,
5c871ab7de75d4001602869d,2023-06-16_10h07.50.809,phx_ver10,2022.2.5,Win32,60.0240096,,,,,,,,,,,,60,testing_3,zh2j,au,zh2j_au,zh2j_8_aujau.wav,zh2j_1_auzhau.wav,,FALSE,FALSE,,,,,,,,,,,,,,f,0.236,space,0.669,,,,,,,,0,28,28,59,1,,
5c871ab7de75d4001602869d,2023-06-16_10h07.50.809,phx_ver10,2022.2.5,Win32,60.0240096,,,,,,,,,,,,137,testing_3,sh2j,ei,sh2j_ei,sh2j_1_eishei.wav,sh2j_1_eishei.wav,,TRUE,FALSE,,,,,,,,,,,,,,f,0.052,space,0.636,,,,,,,,0,29,29,136,1,,
5c871ab7de75d4001602869d,2023-06-16_10h07.50.809,phx_ver10,2022.2.5,Win32,60.0240096,,,,,,,,,,,,119,testing_3,sh2x,i,sh2x_i,sh2x_1_ishi.wav,sh2x_8_ixi.wav,,FALSE,FALSE,,,,,,,,,,,,,,j,0.707,space,1.118,,,,,,,,0,30,30,118,1,,
5c871ab7de75d4001602869d,2023-06-16_10h07.50.809,phx_ver10,2022.2.5,Win32,60.0240096,,,,,,,,,,,,114,testing_3,sh2x,ei,sh2x_ei,sh2x_8_eixei.wav,sh2x_8_eixei.wav,,TRUE,FALSE,,,,,,,,,,,,,,f,0.322,space,1.217,,,,,,,,0,31,31,113,1,,
5c871ab7de75d4001602869d,2023-06-16_10h07.50.809,phx_ver10,2022.2.5,Win32,60.0240096,,,,,,,,,,,,83,testing_3,j2x,au,j2x_au,j2x_1_aujau.wav,j2x_8_auxau.wav,,FALSE,FALSE,,,,,,,,,,,,,,j,0.37,space,0.836,,,,,,,,0,32,32,82,1,,
5c871ab7de75d4001602869d,2023-06-16_10h07.50.809,phx_ver10,2022.2.5,Win32,60.0240096,,,,,,,,,,,,80,testing_3,j2x,ai,j2x_ai,j2x_8_aixai.wav,j2x_1_aijai.wav,,FALSE,FALSE,,,,,,,,,,,,,,j,0.524,space,1.003,,,,,,,,0,33,33,79,1,,
5c871ab7de75d4001602869d,2023-06-16_10h07.50.809,phx_ver10,2022.2.5,Win32,60.0240096,,,,,,,,,,,,123,testing_3,sh2j,a,sh2j_a,sh2j_1_asha.wav,sh2j_8_aja.wav,,FALSE,FALSE,,,,,,,,,,,,,,j,0.651,space,1.106,,,,,,,,0,34,34,122,1,,
5c871ab7de75d4001602869d,2023-06-16_10h07.50.809,phx_ver10,2022.2.5,Win32,60.0240096,,,,,,,,,,,,48,testing_3,zh2sh,i,zh2sh_i,zh2sh_8_ishi.wav,zh2sh_1_izhi.wav,,FALSE,FALSE,,,,,,,,,,,,,,j,1.224,space,1.842,,,,,,,,0,35,35,47,1,,
5c871ab7de75d4001602869d,2023-06-16_10h07.50.809,phx_ver10,2022.2.5,Win32,60.0240096,,,,,,,,,,,,90,testing_3,j2x,ei,j2x_ei,j2x_8_eixei.wav,j2x_8_eixei.wav,,TRUE,FALSE,,,,,,,,,,,,,,f,0.12,space,0.617,,,,,,,,0,36,36,89,1,,
5c871ab7de75d4001602869d,2023-06-16_10h07.50.809,phx_ver10,2022.2.5,Win32,60.0240096,,,,,,,,,,,,5,testing_1,zh2x,e,zh2x_e,zh2x_1_ezhe.wav,zh2x_1_ezhe_copy.wav,,TRUE,TRUE,,,,,,,,,,,,,,f,0.171,space,0.624,,,,,,,,0,37,37,4,1,,
5c871ab7de75d4001602869d,2023-06-16_10h07.50.809,phx_ver10,2022.2.5,Win32,60.0240096,,,,,,,,,,,,17,testing_2,zh2x,au,zh2x_au,zh2x_1_auzhau.wav,zh2x_1_auzhau.wav,,TRUE,FALSE,,,,,,,,,,,,,,f,1.172,space,1.658,,,,,,,,0,38,38,16,1,,
5c871ab7de75d4001602869d,2023-06-16_10h07.50.809,phx_ver10,2022.2.5,Win32,60.0240096,,,,,,,,,,,,116,testing_3,sh2x,ei,sh2x_ei,sh2x_8_eixei.wav,sh2x_1_eishei.wav,,FALSE,FALSE,,,,,,,,,,,,,,f,0.242,space,0.804,,,,,,,,0,39,39,115,1,,
5c871ab7de75d4001602869d,2023-06-16_10h07.50.809,phx_ver10,2022.2.5,Win32,60.0240096,,,,,,,,,,,,141,testing_3,sh2j,i,sh2j_i,sh2j_1_ishi.wav,sh2j_1_ishi.wav,,TRUE,FALSE,,,,,,,,,,,,,,f,0.585,space,1.052,,,,,,,,0,40,40,140,1,,
5c871ab7de75d4001602869d,2023-06-16_10h07.50.809,phx_ver10,2022.2.5,Win32,60.0240096,,,,,,,,,,,,49,testing_3,zh2j,a,zh2j_a,zh2j_1_azha.wav,zh2j_1_azha.wav,,TRUE,FALSE,,,,,,,,,,,,,,f,0.8,space,1.25,,,,,,,,0,41,41,48,1,,
5c871ab7de75d4001602869d,2023-06-16_10h07.50.809,phx_ver10,2022.2.5,Win32,60.0240096,,,,,,,,,,,,129,testing_3,sh2j,au,sh2j_au,sh2j_1_aushau.wav,sh2j_1_aushau.wav,,TRUE,FALSE,,,,,,,,,,,,,,f,0.623,space,1.124,,,,,,,,0,42,42,128,1,,
5c871ab7de75d4001602869d,2023-06-16_10h07.50.809,phx_ver10,2022.2.5,Win32,60.0240096,,,,,,,,,,,,93,testing_3,j2x,i,j2x_i,j2x_1_iji.wav,j2x_1_iji.wav,,TRUE,FALSE,,,,,,,,,,,,,,f,0.569,space,1.102,,,,,,,,0,43,43,92,1,,
5c871ab7de75d4001602869d,2023-06-16_10h07.50.809,phx_ver10,2022.2.5,Win32,60.0240096,,,,,,,,,,,,64,testing_3,zh2j,e,zh2j_e,zh2j_8_eje.wav,zh2j_1_ezhe.wav,,FALSE,FALSE,,,,,,,,,,,,,,f,0.019,space,0.556,,,,,,,,0,44,44,63,1,,
5c871ab7de75d4001602869d,2023-06-16_10h07.50.809,phx_ver10,2022.2.5,Win32,60.0240096,,,,,,,,,,,,139,testing_3,sh2j,ei,sh2j_ei,sh2j_1_eishei.wav,sh2j_8_eijei.wav,,FALSE,FALSE,,,,,,,,,,,,,,j,0.806,space,1.303,,,,,,,,0,45,45,138,1,,
5c871ab7de75d4001602869d,2023-06-16_10h07.50.809,phx_ver10,2022.2.5,Win32,60.0240096,,,,,,,,,,,,1,testing_1,zh2x,a,zh2x_a,zh2x_1_azha.wav,zh2x_1_azha_copy.wav,,TRUE,TRUE,,,,,,,,,,,,,,f,0.371,space,0.985,,,,,,,,0,46,46,0,1,,
5c871ab7de75d4001602869d,2023-06-16_10h07.50.809,phx_ver10,2022.2.5,Win32,60.0240096,,,,,,,,,,,,7,testing_1,zh2x,e,zh2x_e,zh2x_1_ezhe.wav,zh2x_8_exe.wav,,FALSE,TRUE,,,,,,,,,,,,,,j,0.441,space,0.903,,,,,,,,0,47,47,6,1,,
5c871ab7de75d4001602869d,2023-06-16_10h07.50.809,phx_ver10,2022.2.5,Win32,60.0240096,,,,,,,,,,,,102,testing_3,sh2x,ai,sh2x_ai,sh2x_8_aixai.wav,sh2x_8_aixai.wav,,TRUE,FALSE,,,,,,,,,,,,,,f,0.335,space,0.935,,,,,,,,0,48,48,101,1,,
5c871ab7de75d4001602869d,2023-06-16_10h07.50.809,phx_ver10,2022.2.5,Win32,60.0240096,,,,,,,,,,,,26,testing_3,zh2sh,a,zh2sh_a,zh2sh_8_asha.wav,zh2sh_8_asha.wav,,TRUE,FALSE,,,,,,,,,,,,,,f,0.17,space,0.669,,,,,,,,0,49,49,25,1,,
5c871ab7de75d4001602869d,2023-06-16_10h07.50.809,phx_ver10,2022.2.5,Win32,60.0240096,,,,,,,,,,,,94,testing_3,j2x,i,j2x_i,j2x_8_ixi.wav,j2x_8_ixi.wav,,TRUE,FALSE,,,,,,,,,,,,,,f,0.17,space,0.668,,,,,,,,0,50,50,93,1,,
5c871ab7de75d4001602869d,2023-06-16_10h07.50.809,phx_ver10,2022.2.5,Win32,60.0240096,,,,,,,,,,,,73,testing_3,j2x,a,j2x_a,j2x_1_aja.wav,j2x_1_aja.wav,,TRUE,FALSE,,,,,,,,,,,,,,f,0.836,space,1.352,,,,,,,,0,51,51,72,1,,
5c871ab7de75d4001602869d,2023-06-16_10h07.50.809,phx_ver10,2022.2.5,Win32,60.0240096,,,,,,,,,,,,105,testing_3,sh2x,au,sh2x_au,sh2x_1_aushau.wav,sh2x_1_aushau.wav,,TRUE,FALSE,,,,,,,,,,,,,,f,0.008,space,0.417,,,,,,,,0,52,52,104,1,,
5c871ab7de75d4001602869d,2023-06-16_10h07.50.809,phx_ver10,2022.2.5,Win32,60.0240096,,,,,,,,,,,,138,testing_3,sh2j,ei,sh2j_ei,sh2j_8_eijei.wav,sh2j_8_eijei.wav,,TRUE,FALSE,,,,,,,,,,,,,,f,0.175,space,0.603,,,,,,,,0,53,53,137,1,,
5c871ab7de75d4001602869d,2023-06-16_10h07.50.809,phx_ver10,2022.2.5,Win32,60.0240096,,,,,,,,,,,,22,testing_2,zh2x,ei,zh2x_ei,zh2x_8_eixei.wav,zh2x_8_eixei.wav,,TRUE,FALSE,,,,,,,,,,,,,,f,0.101,space,0.503,,,,,,,,0,54,54,21,1,,
5c871ab7de75d4001602869d,2023-06-16_10h07.50.809,phx_ver10,2022.2.5,Win32,60.0240096,,,,,,,,,,,,89,testing_3,j2x,ei,j2x_ei,j2x_1_eijei.wav,j2x_1_eijei.wav,,TRUE,FALSE,,,,,,,,,,,,,,f,0.24,space,1.069,,,,,,,,0,55,55,88,1,,
5c871ab7de75d4001602869d,2023-06-16_10h07.50.809,phx_ver10,2022.2.5,Win32,60.0240096,,,,,,,,,,,,87,testing_3,j2x,e,j2x_e,j2x_1_eje.wav,j2x_8_exe.wav,,FALSE,FALSE,,,,,,,,,,,,,,j,1.837,space,2.652,,,,,,,,0,56,56,86,1,,
5c871ab7de75d4001602869d,2023-06-16_10h07.50.809,phx_ver10,2022.2.5,Win32,60.0240096,,,,,,,,,,,,122,testing_3,sh2j,a,sh2j_a,sh2j_8_aja.wav,sh2j_8_aja.wav,,TRUE,FALSE,,,,,,,,,,,,,,f,1.419,space,1.986,,,,,,,,0,57,57,121,1,,
5c871ab7de75d4001602869d,2023-06-16_10h07.50.809,phx_ver10,2022.2.5,Win32,60.0240096,,,,,,,,,,,,12,testing_1,zh2x,i,zh2x_i,zh2x_8_ixi.wav,zh2x_1_izhi.wav,,FALSE,TRUE,,,,,,,,,,,,,,j,1.37,space,2.017,,,,,,,,0,58,58,11,1,,
5c871ab7de75d4001602869d,2023-06-16_10h07.50.809,phx_ver10,2022.2.5,Win32,60.0240096,,,,,,,,,,,,86,testing_3,j2x,e,j2x_e,j2x_8_exe.wav,j2x_8_exe.wav,,TRUE,FALSE,,,,,,,,,,,,,,f,2.155,space,2.924,,,,,,,,0,59,59,85,1,,
5c871ab7de75d4001602869d,2023-06-16_10h07.50.809,phx_ver10,2022.2.5,Win32,60.0240096,,,,,,,,,,,,10,testing_1,zh2x,i,zh2x_i,zh2x_8_ixi.wav,zh2x_8_ixi_copy.wav,,TRUE,TRUE,,,,,,,,,,,,,,j,2.585,space,3.383,,,,,,,,0,60,60,9,1,,
5c871ab7de75d4001602869d,2023-06-16_10h07.50.809,phx_ver10,2022.2.5,Win32,60.0240096,,,,,,,,,,,,54,testing_3,zh2j,ai,zh2j_ai,zh2j_8_aijai.wav,zh2j_8_aijai.wav,,TRUE,FALSE,,,,,,,,,,,,,,f,1.052,space,1.687,,,,,,,,0,61,61,53,1,,
5c871ab7de75d4001602869d,2023-06-16_10h07.50.809,phx_ver10,2022.2.5,Win32,60.0240096,,,,,,,,,,,,101,testing_3,sh2x,ai,sh2x_ai,sh2x_1_aishai.wav,sh2x_1_aishai.wav,,TRUE,FALSE,,,,,,,,,,,,,,f,0.253,space,0.867,,,,,,,,0,62,62,100,1,,
5c871ab7de75d4001602869d,2023-06-16_10h07.50.809,phx_ver10,2022.2.5,Win32,60.0240096,,,,,,,,,,,,9,testing_1,zh2x,i,zh2x_i,zh2x_1_izhi.wav,zh2x_1_izhi_copy.wav,,TRUE,TRUE,,,,,,,,,,,,,,f,0.452,space,0.851,,,,,,,,0,63,63,8,1,,
5c871ab7de75d4001602869d,2023-06-16_10h07.50.809,phx_ver10,2022.2.5,Win32,60.0240096,,,,,,,,,,,,108,testing_3,sh2x,au,sh2x_au,sh2x_8_auxau.wav,sh2x_1_aushau.wav,,FALSE,FALSE,,,,,,,,,,,,,,j,4.74,space,5.267,,,,,,,,0,64,64,107,1,,
5c871ab7de75d4001602869d,2023-06-16_10h07.50.809,phx_ver10,2022.2.5,Win32,60.0240096,,,,,,,,,,,,53,testing_3,zh2j,ai,zh2j_ai,zh2j_1_aizhai.wav,zh2j_1_aizhai.wav,,TRUE,FALSE,,,,,,,,,,,,,,f,0.925,space,1.767,,,,,,,,0,65,65,52,1,,
5c871ab7de75d4001602869d,2023-06-16_10h07.50.809,phx_ver10,2022.2.5,Win32,60.0240096,,,,,,,,,,,,118,testing_3,sh2x,i,sh2x_i,sh2x_8_ixi.wav,sh2x_8_ixi.wav,,TRUE,FALSE,,,,,,,,,,,,,,f,4.085,space,4.817,,,,,,,,0,66,66,117,1,,
5c871ab7de75d4001602869d,2023-06-16_10h07.50.809,phx_ver10,2022.2.5,Win32,60.0240096,,,,,,,,,,,,92,testing_3,j2x,ei,j2x_ei,j2x_8_eixei.wav,j2x_1_eijei.wav,,FALSE,FALSE,,,,,,,,,,,,,,j,3.325,space,6.336,,,,,,,,0,67,67,91,1,,
5c871ab7de75d4001602869d,2023-06-16_10h07.50.809,phx_ver10,2022.2.5,Win32,60.0240096,,,,,,,,,,,,97,testing_3,sh2x,a,sh2x_a,sh2x_1_asha.wav,sh2x_1_asha.wav,,TRUE,FALSE,,,,,,,,,,,,,,f,2.122,space,5.771,,,,,,,,0,68,68,96,1,,
5c871ab7de75d4001602869d,2023-06-16_10h07.50.809,phx_ver10,2022.2.5,Win32,60.0240096,,,,,,,,,,,,43,testing_3,zh2sh,ei,zh2sh_ei,zh2sh_1_eizhei.wav,zh2sh_8_eishei.wav,,FALSE,FALSE,,,,,,,,,,,,,,j,0.519,space,1.335,,,,,,,,0,69,69,42,1,,
5c871ab7de75d4001602869d,2023-06-16_10h07.50.809,phx_ver10,2022.2.5,Win32,60.0240096,,,,,,,,,,,,39,testing_3,zh2sh,e,zh2sh_e,zh2sh_1_ezhe.wav,zh2sh_8_eshe.wav,,FALSE,FALSE,,,,,,,,,,,,,,j,1.669,space,2.052,,,,,,,,0,70,70,38,1,,
5c871ab7de75d4001602869d,2023-06-16_10h07.50.809,phx_ver10,2022.2.5,Win32,60.0240096,,,,,,,,,,,,132,testing_3,sh2j,au,sh2j_au,sh2j_8_aujau.wav,sh2j_1_aushau.wav,,FALSE,FALSE,,,,,,,,,,,,,,f,5.437,space,7.79,,,,,,,,0,71,71,131,1,,
5c871ab7de75d4001602869d,2023-06-16_10h07.50.809,phx_ver10,2022.2.5,Win32,60.0240096,,,,,,,,,,,,115,testing_3,sh2x,ei,sh2x_ei,sh2x_1_eishei.wav,sh2x_8_eixei.wav,,FALSE,FALSE,,,,,,,,,,,,,,f,0.485,space,0.936,,,,,,,,0,72,72,114,1,,
5c871ab7de75d4001602869d,2023-06-16_10h07.50.809,phx_ver10,2022.2.5,Win32,60.0240096,,,,,,,,,,,,31,testing_3,zh2sh,ai,zh2sh_ai,zh2sh_1_aizhai.wav,zh2sh_8_aishai.wav,,FALSE,FALSE,,,,,,,,,,,,,,j,1.416,space,1.985,,,,,,,,0,73,73,30,1,,
5c871ab7de75d4001602869d,2023-06-16_10h07.50.809,phx_ver10,2022.2.5,Win32,60.0240096,,,,,,,,,,,,104,testing_3,sh2x,ai,sh2x_ai,sh2x_8_aixai.wav,sh2x_1_aishai.wav,,FALSE,FALSE,,,,,,,,,,,,,,f,1.553,space,2.188,,,,,,,,0,74,74,103,1,,
5c871ab7de75d4001602869d,2023-06-16_10h07.50.809,phx_ver10,2022.2.5,Win32,60.0240096,,,,,,,,,,,,107,testing_3,sh2x,au,sh2x_au,sh2x_1_aushau.wav,sh2x_8_auxau.wav,,FALSE,FALSE,,,,,,,,,,,,,,f,0.455,space,0.885,,,,,,,,0,75,75,106,1,,
5c871ab7de75d4001602869d,2023-06-16_10h07.50.809,phx_ver10,2022.2.5,Win32,60.0240096,,,,,,,,,,,,37,testing_3,zh2sh,e,zh2sh_e,zh2sh_1_ezhe.wav,zh2sh_1_ezhe.wav,,TRUE,FALSE,,,,,,,,,,,,,,f,0.868,space,1.305,,,,,,,,0,76,76,36,1,,
5c871ab7de75d4001602869d,2023-06-16_10h07.50.809,phx_ver10,2022.2.5,Win32,60.0240096,,,,,,,,,,,,15,testing_2,zh2x,ai,zh2x_ai,zh2x_1_aizhai.wav,zh2x_8_aixai.wav,,FALSE,FALSE,,,,,,,,,,,,,,j,0.537,space,0.985,,,,,,,,0,77,77,14,1,,
5c871ab7de75d4001602869d,2023-06-16_10h07.50.809,phx_ver10,2022.2.5,Win32,60.0240096,,,,,,,,,,,,91,testing_3,j2x,ei,j2x_ei,j2x_1_eijei.wav,j2x_8_eixei.wav,,FALSE,FALSE,,,,,,,,,,,,,,j,0.653,space,1.168,,,,,,,,0,78,78,90,1,,
5c871ab7de75d4001602869d,2023-06-16_10h07.50.809,phx_ver10,2022.2.5,Win32,60.0240096,,,,,,,,,,,,28,testing_3,zh2sh,a,zh2sh_a,zh2sh_8_asha.wav,zh2sh_1_azha.wav,,FALSE,FALSE,,,,,,,,,,,,,,j,2.085,space,2.518,,,,,,,,0,79,79,27,1,,
5c871ab7de75d4001602869d,2023-06-16_10h07.50.809,phx_ver10,2022.2.5,Win32,60.0240096,,,,,,,,,,,,85,testing_3,j2x,e,j2x_e,j2x_1_eje.wav,j2x_1_eje.wav,,TRUE,FALSE,,,,,,,,,,,,,,j,0.536,space,0.987,,,,,,,,0,80,80,84,1,,
5c871ab7de75d4001602869d,2023-06-16_10h07.50.809,phx_ver10,2022.2.5,Win32,60.0240096,,,,,,,,,,,,110,testing_3,sh2x,e,sh2x_e,sh2x_8_exe.wav,sh2x_8_exe.wav,,TRUE,FALSE,,,,,,,,,,,,,,f,1.192,space,1.723,,,,,,,,0,81,81,109,1,,
5c871ab7de75d4001602869d,2023-06-16_10h07.50.809,phx_ver10,2022.2.5,Win32,60.0240096,,,,,,,,,,,,130,testing_3,sh2j,au,sh2j_au,sh2j_8_aujau.wav,sh2j_8_aujau.wav,,TRUE,FALSE,,,,,,,,,,,,,,j,0.935,space,1.401,,,,,,,,0,82,82,129,1,,
5c871ab7de75d4001602869d,2023-06-16_10h07.50.809,phx_ver10,2022.2.5,Win32,60.0240096,,,,,,,,,,,,142,testing_3,sh2j,i,sh2j_i,sh2j_8_iji.wav,sh2j_8_iji.wav,,TRUE,FALSE,,,,,,,,,,,,,,f,0.3,space,0.802,,,,,,,,0,83,83,141,1,,
5c871ab7de75d4001602869d,2023-06-16_10h07.50.809,phx_ver10,2022.2.5,Win32,60.0240096,,,,,,,,,,,,52,testing_3,zh2j,a,zh2j_a,zh2j_8_aja.wav,zh2j_1_azha.wav,,FALSE,FALSE,,,,,,,,,,,,,,f,0.251,space,1.103,,,,,,,,0,84,84,51,1,,
5c871ab7de75d4001602869d,2023-06-16_10h07.50.809,phx_ver10,2022.2.5,Win32,60.0240096,,,,,,,,,,,,76,testing_3,j2x,a,j2x_a,j2x_8_axa.wav,j2x_1_aja.wav,,FALSE,FALSE,,,,,,,,,,,,,,j,2.376,space,2.786,,,,,,,,0,85,85,75,1,,
5c871ab7de75d4001602869d,2023-06-16_10h07.50.809,phx_ver10,2022.2.5,Win32,60.0240096,,,,,,,,,,,,103,testing_3,sh2x,ai,sh2x_ai,sh2x_1_aishai.wav,sh2x_8_aixai.wav,,FALSE,FALSE,,,,,,,,,,,,,,f,3.784,space,4.217,,,,,,,,0,86,86,102,1,,
5c871ab7de75d4001602869d,2023-06-16_10h07.50.809,phx_ver10,2022.2.5,Win32,60.0240096,,,,,,,,,,,,42,testing_3,zh2sh,ei,zh2sh_ei,zh2sh_8_eishei.wav,zh2sh_8_eishei.wav,,TRUE,FALSE,,,,,,,,,,,,,,f,0.421,space,0.784,,,,,,,,0,87,87,41,1,,
5c871ab7de75d4001602869d,2023-06-16_10h07.50.809,phx_ver10,2022.2.5,Win32,60.0240096,,,,,,,,,,,,79,testing_3,j2x,ai,j2x_ai,j2x_1_aijai.wav,j2x_8_aixai.wav,,FALSE,FALSE,,,,,,,,,,,,,,j,0.687,space,1.14,,,,,,,,0,88,88,78,1,,
5c871ab7de75d4001602869d,2023-06-16_10h07.50.809,phx_ver10,2022.2.5,Win32,60.0240096,,,,,,,,,,,,131,testing_3,sh2j,au,sh2j_au,sh2j_1_aushau.wav,sh2j_8_aujau.wav,,FALSE,FALSE,,,,,,,,,,,,,,j,0.685,space,1.188,,,,,,,,0,89,89,130,1,,
5c871ab7de75d4001602869d,2023-06-16_10h07.50.809,phx_ver10,2022.2.5,Win32,60.0240096,,,,,,,,,,,,120,testing_3,sh2x,i,sh2x_i,sh2x_8_ixi.wav,sh2x_1_ishi.wav,,FALSE,FALSE,,,,,,,,,,,,,,f,1.219,space,1.908,,,,,,,,0,90,90,119,1,,
5c871ab7de75d4001602869d,2023-06-16_10h07.50.809,phx_ver10,2022.2.5,Win32,60.0240096,,,,,,,,,,,,75,testing_3,j2x,a,j2x_a,j2x_1_aja.wav,j2x_8_axa.wav,,FALSE,FALSE,,,,,,,,,,,,,,j,0.883,space,1.351,,,,,,,,0,91,91,74,1,,
5c871ab7de75d4001602869d,2023-06-16_10h07.50.809,phx_ver10,2022.2.5,Win32,60.0240096,,,,,,,,,,,,96,testing_3,j2x,i,j2x_i,j2x_8_ixi.wav,j2x_1_iji.wav,,FALSE,FALSE,,,,,,,,,,,,,,j,1.085,space,1.525,,,,,,,,0,92,92,95,1,,
5c871ab7de75d4001602869d,2023-06-16_10h07.50.809,phx_ver10,2022.2.5,Win32,60.0240096,,,,,,,,,,,,57,testing_3,zh2j,au,zh2j_au,zh2j_1_auzhau.wav,zh2j_1_auzhau.wav,,TRUE,FALSE,,,,,,,,,,,,,,f,0.852,space,1.636,,,,,,,,0,93,93,56,1,,
5c871ab7de75d4001602869d,2023-06-16_10h07.50.809,phx_ver10,2022.2.5,Win32,60.0240096,,,,,,,,,,,,6,testing_1,zh2x,e,zh2x_e,zh2x_8_exe.wav,zh2x_8_exe_copy.wav,,TRUE,TRUE,,,,,,,,,,,,,,f,0.373,space,0.719,,,,,,,,0,94,94,5,1,,
5c871ab7de75d4001602869d,2023-06-16_10h07.50.809,phx_ver10,2022.2.5,Win32,60.0240096,,,,,,,,,,,,117,testing_3,sh2x,i,sh2x_i,sh2x_1_ishi.wav,sh2x_1_ishi.wav,,TRUE,FALSE,,,,,,,,,,,,,,f,0.592,space,1.038,,,,,,,,0,95,95,116,1,,
5c871ab7de75d4001602869d,2023-06-16_10h07.50.809,phx_ver10,2022.2.5,Win32,60.0240096,,,,,,,,,,,,88,testing_3,j2x,e,j2x_e,j2x_8_exe.wav,j2x_1_eje.wav,,FALSE,FALSE,,,,,,,,,,,,,,j,0.254,space,0.692,,,,,,,,0,96,96,87,1,,
5c871ab7de75d4001602869d,2023-06-16_10h07.50.809,phx_ver10,2022.2.5,Win32,60.0240096,,,,,,,,,,,,32,testing_3,zh2sh,ai,zh2sh_ai,zh2sh_8_aishai.wav,zh2sh_1_aizhai.wav,,FALSE,FALSE,,,,,,,,,,,,,,j,0.169,space,0.753,,,,,,,,0,97,97,31,1,,
5c871ab7de75d4001602869d,2023-06-16_10h07.50.809,phx_ver10,2022.2.5,Win32,60.0240096,,,,,,,,,,,,133,testing_3,sh2j,e,sh2j_e,sh2j_1_eshe.wav,sh2j_1_eshe.wav,,TRUE,FALSE,,,,,,,,,,,,,,f,0.885,space,1.335,,,,,,,,0,98,98,132,1,,
5c871ab7de75d4001602869d,2023-06-16_10h07.50.809,phx_ver10,2022.2.5,Win32,60.0240096,,,,,,,,,,,,113,testing_3,sh2x,ei,sh2x_ei,sh2x_1_eishei.wav,sh2x_1_eishei.wav,,TRUE,FALSE,,,,,,,,,,,,,,f,0.117,space,1.036,,,,,,,,0,99,99,112,1,,
5c871ab7de75d4001602869d,2023-06-16_10h07.50.809,phx_ver10,2022.2.5,Win32,60.0240096,,,,,,,,,,,,134,testing_3,sh2j,e,sh2j_e,sh2j_8_eje.wav,sh2j_8_eje.wav,,TRUE,FALSE,,,,,,,,,,,,,,f,0.31,space,0.988,,,,,,,,0,100,100,133,1,,
5c871ab7de75d4001602869d,2023-06-16_10h07.50.809,phx_ver10,2022.2.5,Win32,60.0240096,,,,,,,,,,,,2,testing_1,zh2x,a,zh2x_a,zh2x_8_axa.wav,zh2x_8_axa_copy.wav,,TRUE,TRUE,,,,,,,,,,,,,,f,0.634,space,1.268,,,,,,,,0,101,101,1,1,,
5c871ab7de75d4001602869d,2023-06-16_10h07.50.809,phx_ver10,2022.2.5,Win32,60.0240096,,,,,,,,,,,,18,testing_2,zh2x,au,zh2x_au,zh2x_8_auxau.wav,zh2x_8_auxau.wav,,TRUE,FALSE,,,,,,,,,,,,,,f,1.354,space,2.686,,,,,,,,0,102,102,17,1,,
5c871ab7de75d4001602869d,2023-06-16_10h07.50.809,phx_ver10,2022.2.5,Win32,60.0240096,,,,,,,,,,,,30,testing_3,zh2sh,ai,zh2sh_ai,zh2sh_8_aishai.wav,zh2sh_8_aishai.wav,,TRUE,FALSE,,,,,,,,,,,,,,f,0.187,space,0.687,,,,,,,,0,103,103,29,1,,
5c871ab7de75d4001602869d,2023-06-16_10h07.50.809,phx_ver10,2022.2.5,Win32,60.0240096,,,,,,,,,,,,47,testing_3,zh2sh,i,zh2sh_i,zh2sh_1_izhi.wav,zh2sh_8_ishi.wav,,FALSE,FALSE,,,,,,,,,,,,,,j,1.202,space,1.6,,,,,,,,0,104,104,46,1,,
5c871ab7de75d4001602869d,2023-06-16_10h07.50.809,phx_ver10,2022.2.5,Win32,60.0240096,,,,,,,,,,,,20,testing_2,zh2x,au,zh2x_au,zh2x_8_auxau.wav,zh2x_1_auzhau.wav,,FALSE,FALSE,,,,,,,,,,,,,,j,0.474,space,0.837,,,,,,,,0,105,105,19,1,,
5c871ab7de75d4001602869d,2023-06-16_10h07.50.809,phx_ver10,2022.2.5,Win32,60.0240096,,,,,,,,,,,,127,testing_3,sh2j,ai,sh2j_ai,sh2j_1_aishai.wav,sh2j_8_aijai.wav,,FALSE,FALSE,,,,,,,,,,,,,,j,0.154,space,0.62,,,,,,,,0,106,106,126,1,,
5c871ab7de75d4001602869d,2023-06-16_10h07.50.809,phx_ver10,2022.2.5,Win32,60.0240096,,,,,,,,,,,,29,testing_3,zh2sh,ai,zh2sh_ai,zh2sh_1_aizhai.wav,zh2sh_1_aizhai.wav,,TRUE,FALSE,,,,,,,,,,,,,,j,0.139,space,0.621,,,,,,,,0,107,107,28,1,,
5c871ab7de75d4001602869d,2023-06-16_10h07.50.809,phx_ver10,2022.2.5,Win32,60.0240096,,,,,,,,,,,,45,testing_3,zh2sh,i,zh2sh_i,zh2sh_1_izhi.wav,zh2sh_1_izhi.wav,,TRUE,FALSE,,,,,,,,,,,,,,f,0.135,space,0.586,,,,,,,,0,108,108,44,1,,
5c871ab7de75d4001602869d,2023-06-16_10h07.50.809,phx_ver10,2022.2.5,Win32,60.0240096,,,,,,,,,,,,144,testing_3,sh2j,i,sh2j_i,sh2j_8_iji.wav,sh2j_1_ishi.wav,,FALSE,FALSE,,,,,,,,,,,,,,j,0.069,space,0.488,,,,,,,,0,109,109,143,1,,
5c871ab7de75d4001602869d,2023-06-16_10h07.50.809,phx_ver10,2022.2.5,Win32,60.0240096,,,,,,,,,,,,81,testing_3,j2x,au,j2x_au,j2x_1_aujau.wav,j2x_1_aujau.wav,,TRUE,FALSE,,,,,,,,,,,,,,f,0.222,space,0.658,,,,,,,,0,110,110,80,1,,
5c871ab7de75d4001602869d,2023-06-16_10h07.50.809,phx_ver10,2022.2.5,Win32,60.0240096,,,,,,,,,,,,77,testing_3,j2x,ai,j2x_ai,j2x_1_aijai.wav,j2x_1_aijai.wav,,TRUE,FALSE,,,,,,,,,,,,,,f,0.204,space,0.734,,,,,,,,0,111,111,76,1,,
5c871ab7de75d4001602869d,2023-06-16_10h07.50.809,phx_ver10,2022.2.5,Win32,60.0240096,,,,,,,,,,,,111,testing_3,sh2x,e,sh2x_e,sh2x_1_eshe.wav,sh2x_8_exe.wav,,FALSE,FALSE,,,,,,,,,,,,,,f,0.267,space,0.902,,,,,,,,0,112,112,110,1,,
5c871ab7de75d4001602869d,2023-06-16_10h07.50.809,phx_ver10,2022.2.5,Win32,60.0240096,,,,,,,,,,,,69,testing_3,zh2j,i,zh2j_i,zh2j_1_izhi.wav,zh2j_1_izhi.wav,,TRUE,FALSE,,,,,,,,,,,,,,f,0.256,space,0.636,,,,,,,,0,113,113,68,1,,
5c871ab7de75d4001602869d,2023-06-16_10h07.50.809,phx_ver10,2022.2.5,Win32,60.0240096,,,,,,,,,,,,84,testing_3,j2x,au,j2x_au,j2x_8_auxau.wav,j2x_1_aujau.wav,,FALSE,FALSE,,,,,,,,,,,,,,j,0.738,space,1.185,,,,,,,,0,114,114,83,1,,
5c871ab7de75d4001602869d,2023-06-16_10h07.50.809,phx_ver10,2022.2.5,Win32,60.0240096,,,,,,,,,,,,3,testing_1,zh2x,a,zh2x_a,zh2x_1_azha.wav,zh2x_8_axa.wav,,FALSE,TRUE,,,,,,,,,,,,,,j,3.603,space,4.04,,,,,,,,0,115,115,2,1,,
5c871ab7de75d4001602869d,2023-06-16_10h07.50.809,phx_ver10,2022.2.5,Win32,60.0240096,,,,,,,,,,,,40,testing_3,zh2sh,e,zh2sh_e,zh2sh_8_eshe.wav,zh2sh_1_ezhe.wav,,FALSE,FALSE,,,,,,,,,,,,,,j,0.806,space,1.218,,,,,,,,0,116,116,39,1,,
5c871ab7de75d4001602869d,2023-06-16_10h07.50.809,phx_ver10,2022.2.5,Win32,60.0240096,,,,,,,,,,,,61,testing_3,zh2j,e,zh2j_e,zh2j_1_ezhe.wav,zh2j_1_ezhe.wav,,TRUE,FALSE,,,,,,,,,,,,,,f,0.608,space,1.119,,,,,,,,0,117,117,60,1,,
5c871ab7de75d4001602869d,2023-06-16_10h07.50.809,phx_ver10,2022.2.5,Win32,60.0240096,,,,,,,,,,,,25,testing_3,zh2sh,a,zh2sh_a,zh2sh_1_azha.wav,zh2sh_1_azha.wav,,TRUE,FALSE,,,,,,,,,,,,,,f,0.819,space,1.306,,,,,,,,0,118,118,24,1,,
5c871ab7de75d4001602869d,2023-06-16_10h07.50.809,phx_ver10,2022.2.5,Win32,60.0240096,,,,,,,,,,,,58,testing_3,zh2j,au,zh2j_au,zh2j_8_aujau.wav,zh2j_8_aujau.wav,,TRUE,FALSE,,,,,,,,,,,,,,f,0.571,space,1.056,,,,,,,,0,119,119,57,1,,
5c871ab7de75d4001602869d,2023-06-16_10h07.50.809,phx_ver10,2022.2.5,Win32,60.0240096,,,,,,,,,,,,65,testing_3,zh2j,ei,zh2j_ei,zh2j_1_eizhei.wav,zh2j_1_eizhei.wav,,TRUE,FALSE,,,,,,,,,,,,,,f,0.974,space,1.883,,,,,,,,0,120,120,64,1,,
5c871ab7de75d4001602869d,2023-06-16_10h07.50.809,phx_ver10,2022.2.5,Win32,60.0240096,,,,,,,,,,,,124,testing_3,sh2j,a,sh2j_a,sh2j_8_aja.wav,sh2j_1_asha.wav,,FALSE,FALSE,,,,,,,,,,,,,,j,0.968,space,1.97,,,,,,,,0,121,121,123,1,,
5c871ab7de75d4001602869d,2023-06-16_10h07.50.809,phx_ver10,2022.2.5,Win32,60.0240096,,,,,,,,,,,,143,testing_3,sh2j,i,sh2j_i,sh2j_1_ishi.wav,sh2j_8_iji.wav,,FALSE,FALSE,,,,,,,,,,,,,,j,0.022,space,0.471,,,,,,,,0,122,122,142,1,,
5c871ab7de75d4001602869d,2023-06-16_10h07.50.809,phx_ver10,2022.2.5,Win32,60.0240096,,,,,,,,,,,,125,testing_3,sh2j,ai,sh2j_ai,sh2j_1_aishai.wav,sh2j_1_aishai.wav,,TRUE,FALSE,,,,,,,,,,,,,,f,0.452,space,0.937,,,,,,,,0,123,123,124,1,,
5c871ab7de75d4001602869d,2023-06-16_10h07.50.809,phx_ver10,2022.2.5,Win32,60.0240096,,,,,,,,,,,,8,testing_1,zh2x,e,zh2x_e,zh2x_8_exe.wav,zh2x_1_ezhe.wav,,FALSE,TRUE,,,,,,,,,,,,,,j,4.65,space,5.184,,,,,,,,0,124,124,7,1,,
5c871ab7de75d4001602869d,2023-06-16_10h07.50.809,phx_ver10,2022.2.5,Win32,60.0240096,,,,,,,,,,,,23,testing_2,zh2x,ei,zh2x_ei,zh2x_1_eizhei.wav,zh2x_8_eixei.wav,,FALSE,FALSE,,,,,,,,,,,,,,j,0.201,space,0.638,,,,,,,,0,125,125,22,1,,
5c871ab7de75d4001602869d,2023-06-16_10h07.50.809,phx_ver10,2022.2.5,Win32,60.0240096,,,,,,,,,,,,106,testing_3,sh2x,au,sh2x_au,sh2x_8_auxau.wav,sh2x_8_auxau.wav,,TRUE,FALSE,,,,,,,,,,,,,,f,1.438,space,1.888,,,,,,,,0,126,126,105,1,,
5c871ab7de75d4001602869d,2023-06-16_10h07.50.809,phx_ver10,2022.2.5,Win32,60.0240096,,,,,,,,,,,,59,testing_3,zh2j,au,zh2j_au,zh2j_1_auzhau.wav,zh2j_8_aujau.wav,,FALSE,FALSE,,,,,,,,,,,,,,f,0.986,space,1.585,,,,,,,,0,127,127,58,1,,
5c871ab7de75d4001602869d,2023-06-16_10h07.50.809,phx_ver10,2022.2.5,Win32,60.0240096,,,,,,,,,,,,19,testing_2,zh2x,au,zh2x_au,zh2x_1_auzhau.wav,zh2x_8_auxau.wav,,FALSE,FALSE,,,,,,,,,,,,,,j,1.085,space,1.486,,,,,,,,0,128,128,18,1,,
5c871ab7de75d4001602869d,2023-06-16_10h07.50.809,phx_ver10,2022.2.5,Win32,60.0240096,,,,,,,,,,,,34,testing_3,zh2sh,au,zh2sh_au,zh2sh_8_aushau.wav,zh2sh_8_aushau.wav,,TRUE,FALSE,,,,,,,,,,,,,,f,2.305,space,2.701,,,,,,,,0,129,129,33,1,,
5c871ab7de75d4001602869d,2023-06-16_10h07.50.809,phx_ver10,2022.2.5,Win32,60.0240096,,,,,,,,,,,,68,testing_3,zh2j,ei,zh2j_ei,zh2j_8_eijei.wav,zh2j_1_eizhei.wav,,FALSE,FALSE,,,,,,,,,,,,,,f,0.539,space,1.042,,,,,,,,0,130,130,67,1,,
5c871ab7de75d4001602869d,2023-06-16_10h07.50.809,phx_ver10,2022.2.5,Win32,60.0240096,,,,,,,,,,,,13,testing_2,zh2x,ai,zh2x_ai,zh2x_1_aizhai.wav,zh2x_1_aizhai.wav,,TRUE,FALSE,,,,,,,,,,,,,,f,0.039,space,0.486,,,,,,,,0,131,131,12,1,,
5c871ab7de75d4001602869d,2023-06-16_10h07.50.809,phx_ver10,2022.2.5,Win32,60.0240096,,,,,,,,,,,,38,testing_3,zh2sh,e,zh2sh_e,zh2sh_8_eshe.wav,zh2sh_8_eshe.wav,,TRUE,FALSE,,,,,,,,,,,,,,f,0.618,space,1.204,,,,,,,,0,132,132,37,1,,
5c871ab7de75d4001602869d,2023-06-16_10h07.50.809,phx_ver10,2022.2.5,Win32,60.0240096,,,,,,,,,,,,135,testing_3,sh2j,e,sh2j_e,sh2j_1_eshe.wav,sh2j_8_eje.wav,,FALSE,FALSE,,,,,,,,,,,,,,j,0.551,space,0.969,,,,,,,,0,133,133,134,1,,
5c871ab7de75d4001602869d,2023-06-16_10h07.50.809,phx_ver10,2022.2.5,Win32,60.0240096,,,,,,,,,,,,46,testing_3,zh2sh,i,zh2sh_i,zh2sh_8_ishi.wav,zh2sh_8_ishi.wav,,TRUE,FALSE,,,,,,,,,,,,,,f,0.268,space,0.972,,,,,,,,0,134,134,45,1,,
5c871ab7de75d4001602869d,2023-06-16_10h07.50.809,phx_ver10,2022.2.5,Win32,60.0240096,,,,,,,,,,,,27,testing_3,zh2sh,a,zh2sh_a,zh2sh_1_azha.wav,zh2sh_8_asha.wav,,FALSE,FALSE,,,,,,,,,,,,,,j,0.056,space,0.975,,,,,,,,0,135,135,26,1,,
5c871ab7de75d4001602869d,2023-06-16_10h07.50.809,phx_ver10,2022.2.5,Win32,60.0240096,,,,,,,,,,,,50,testing_3,zh2j,a,zh2j_a,zh2j_8_aja.wav,zh2j_8_aja.wav,,TRUE,FALSE,,,,,,,,,,,,,,f,0.3,space,0.901,,,,,,,,0,136,136,49,1,,
5c871ab7de75d4001602869d,2023-06-16_10h07.50.809,phx_ver10,2022.2.5,Win32,60.0240096,,,,,,,,,,,,55,testing_3,zh2j,ai,zh2j_ai,zh2j_1_aizhai.wav,zh2j_8_aijai.wav,,FALSE,FALSE,,,,,,,,,,,,,,f,0.051,space,0.485,,,,,,,,0,137,137,54,1,,
5c871ab7de75d4001602869d,2023-06-16_10h07.50.809,phx_ver10,2022.2.5,Win32,60.0240096,,,,,,,,,,,,126,testing_3,sh2j,ai,sh2j_ai,sh2j_8_aijai.wav,sh2j_8_aijai.wav,,TRUE,FALSE,,,,,,,,,,,,,,f,0.536,space,1.104,,,,,,,,0,138,138,125,1,,
5c871ab7de75d4001602869d,2023-06-16_10h07.50.809,phx_ver10,2022.2.5,Win32,60.0240096,,,,,,,,,,,,36,testing_3,zh2sh,au,zh2sh_au,zh2sh_8_aushau.wav,zh2sh_1_auzhau.wav,,FALSE,FALSE,,,,,,,,,,,,,,j,0.251,space,0.686,,,,,,,,0,139,139,35,1,,
5c871ab7de75d4001602869d,2023-06-16_10h07.50.809,phx_ver10,2022.2.5,Win32,60.0240096,,,,,,,,,,,,140,testing_3,sh2j,ei,sh2j_ei,sh2j_8_eijei.wav,sh2j_1_eishei.wav,,FALSE,FALSE,,,,,,,,,,,,,,j,0.252,space,0.739,,,,,,,,0,140,140,139,1,,
5c871ab7de75d4001602869d,2023-06-16_10h07.50.809,phx_ver10,2022.2.5,Win32,60.0240096,,,,,,,,,,,,66,testing_3,zh2j,ei,zh2j_ei,zh2j_8_eijei.wav,zh2j_8_eijei.wav,,TRUE,FALSE,,,,,,,,,,,,,,f,0.475,space,1.286,,,,,,,,0,141,141,65,1,,
5c871ab7de75d4001602869d,2023-06-16_10h07.50.809,phx_ver10,2022.2.5,Win32,60.0240096,,,,,,,,,,,,41,testing_3,zh2sh,ei,zh2sh_ei,zh2sh_1_eizhei.wav,zh2sh_1_eizhei.wav,,TRUE,FALSE,,,,,,,,,,,,,,f,0.517,space,1.073,,,,,,,,0,142,142,40,1,,
5c871ab7de75d4001602869d,2023-06-16_10h07.50.809,phx_ver10,2022.2.5,Win32,60.0240096,,,,,,,,,,,,44,testing_3,zh2sh,ei,zh2sh_ei,zh2sh_8_eishei.wav,zh2sh_1_eizhei.wav,,FALSE,FALSE,,,,,,,,,,,,,,j,1.853,space,2.372,,,,,,,,0,143,143,43,1,,
5c871ab7de75d4001602869d,2023-06-16_10h07.50.809,phx_ver10,2022.2.5,Win32,60.0240096,,,,,,,,,,,,,,,,,,,,,,,,,,,,,,,,,,,,,,,,,,,,,,,,,,,space,5.991
