participant,date,expName,psychopyVersion,OS,frameRate,space_1.keys,space_1.rt,space_2.keys,space_2.rt,space_train.keys,space_train.rt,training.thisRepN,training.thisTrialN,training.thisN,training.thisIndex,training.ran,token_id,task,continuum,vowel,series,sound_1,sound_2,img,same,trained,FJ_attn.keys,FJ_attn.rt,space_attn.keys,space_attn.rt,if_attn_test.thisRepN,if_attn_test.thisTrialN,if_attn_test.thisN,if_attn_test.thisIndex,if_attn_test.ran,space_trans_1.keys,space_trans_1.rt,space_trans_11.keys,space_trans_11.rt,FJ_test.keys,FJ_test.rt,space_test.keys,space_test.rt,testing_pre.thisRepN,testing_pre.thisTrialN,testing_pre.thisN,testing_pre.thisIndex,testing_pre.ran,space_trans_2.keys,space_trans_2.rt,testing_all.thisRepN,testing_all.thisTrialN,testing_all.thisN,testing_all.thisIndex,testing_all.ran,space_ending.keys,space_ending.rt
5c895c66f76b260001681aeb,2023-06-16_11h27.54.385,phx_ver10,2022.2.5,Linux x86_64,60.0060006,,,,,,,,,,,,,,,,,,,,,,,,,,,,,,,,,,,,,,,,,,,,,,,,,,,,
5c895c66f76b260001681aeb,2023-06-16_11h27.54.385,phx_ver10,2022.2.5,Linux x86_64,60.0060006,space,0.5758,,,,,,,,,,,,,,,,,,,,,,,,,,,,,,,,,,,,,,,,,,,,,,,,,,
5c895c66f76b260001681aeb,2023-06-16_11h27.54.385,phx_ver10,2022.2.5,Linux x86_64,60.0060006,,,space,0.5157,,,,,,,,,,,,,,,,,,,,,,,,,,,,,,,,,,,,,,,,,,,,,,,,
5c895c66f76b260001681aeb,2023-06-16_11h27.54.385,phx_ver10,2022.2.5,Linux x86_64,60.0060006,,,,,space,2.3008,0,0,0,30,1,31,training,zh2x,e,zh2x_e,zh2x_7_exe.wav,,exe.jpg,,,,,,,,,,,,,,,,,,,,,,,,,,,,,,,,,
5c895c66f76b260001681aeb,2023-06-16_11h27.54.385,phx_ver10,2022.2.5,Linux x86_64,60.0060006,,,,,space,2.1369,0,1,1,39,1,40,training,zh2x,i,zh2x_i,zh2x_4_izhi.wav,,izhi.jpg,,,,,,,,,,,,,,,,,,,,,,,,,,,,,,,,,
5c895c66f76b260001681aeb,2023-06-16_11h27.54.385,phx_ver10,2022.2.5,Linux x86_64,60.0060006,,,,,space,0.5715,0,2,2,22,1,23,training,zh2x,e,zh2x_e,zh2x_3_ezhe.wav,,ezhe.jpg,,,,,,,,,,,,,,,,,,,,,,,,,,,,,,,,,
5c895c66f76b260001681aeb,2023-06-16_11h27.54.385,phx_ver10,2022.2.5,Linux x86_64,60.0060006,,,,,space,0.2008,0,3,3,32,1,33,training,zh2x,i,zh2x_i,zh2x_1_izhi.wav,,izhi.jpg,,,,,,,,,,,,,,,,,,,,,,,,,,,,,,,,,
5c895c66f76b260001681aeb,2023-06-16_11h27.54.385,phx_ver10,2022.2.5,Linux x86_64,60.0060006,,,,,space,0.2695,0,4,4,43,1,44,training,zh2x,i,zh2x_i,zh2x_7_ixi.wav,,ixi.jpg,,,,,,,,,,,,,,,,,,,,,,,,,,,,,,,,,
5c895c66f76b260001681aeb,2023-06-16_11h27.54.385,phx_ver10,2022.2.5,Linux x86_64,60.0060006,,,,,space,0.0352,0,5,5,38,1,39,training,zh2x,i,zh2x_i,zh2x_3_izhi.wav,,izhi.jpg,,,,,,,,,,,,,,,,,,,,,,,,,,,,,,,,,
5c895c66f76b260001681aeb,2023-06-16_11h27.54.385,phx_ver10,2022.2.5,Linux x86_64,60.0060006,,,,,,,,,,,,,attn_test,,,,zh2x_8_axa.wav,zh2x_8_ixi.wav,ixi.jpg,RIGHT,,j,3.211,space,3.6581,0,0,0,0,1,,,,,,,,,,,,,,,,,,,,,,
5c895c66f76b260001681aeb,2023-06-16_11h27.54.385,phx_ver10,2022.2.5,Linux x86_64,60.0060006,,,,,space,0.7696,0,6,6,3,1,4,training,zh2x,a,zh2x_a,zh2x_2_azha.wav,,azha.jpg,,,,,,,,,,,,,,,,,,,,,,,,,,,,,,,,,
5c895c66f76b260001681aeb,2023-06-16_11h27.54.385,phx_ver10,2022.2.5,Linux x86_64,60.0060006,,,,,space,0.4195,0,7,7,27,1,28,training,zh2x,e,zh2x_e,zh2x_7_exe.wav,,exe.jpg,,,,,,,,,,,,,,,,,,,,,,,,,,,,,,,,,
5c895c66f76b260001681aeb,2023-06-16_11h27.54.385,phx_ver10,2022.2.5,Linux x86_64,60.0060006,,,,,space,0.1232,0,8,8,33,1,34,training,zh2x,i,zh2x_i,zh2x_2_izhi.wav,,izhi.jpg,,,,,,,,,,,,,,,,,,,,,,,,,,,,,,,,,
5c895c66f76b260001681aeb,2023-06-16_11h27.54.385,phx_ver10,2022.2.5,Linux x86_64,60.0060006,,,,,space,0.4505,0,9,9,10,1,11,training,zh2x,a,zh2x_a,zh2x_6_axa.wav,,axa.jpg,,,,,,,,,,,,,,,,,,,,,,,,,,,,,,,,,
5c895c66f76b260001681aeb,2023-06-16_11h27.54.385,phx_ver10,2022.2.5,Linux x86_64,60.0060006,,,,,space,0.4908,0,10,10,5,1,6,training,zh2x,a,zh2x_a,zh2x_3_azha.wav,,azha.jpg,,,,,,,,,,,,,,,,,,,,,,,,,,,,,,,,,
5c895c66f76b260001681aeb,2023-06-16_11h27.54.385,phx_ver10,2022.2.5,Linux x86_64,60.0060006,,,,,space,0.3679,0,11,11,44,1,45,training,zh2x,i,zh2x_i,zh2x_7_ixi.wav,,ixi.jpg,,,,,,,,,,,,,,,,,,,,,,,,,,,,,,,,,
5c895c66f76b260001681aeb,2023-06-16_11h27.54.385,phx_ver10,2022.2.5,Linux x86_64,60.0060006,,,,,,,,,,,,,attn_test,,,,zh2x_1_azha.wav,zh2x_8_axa.wav,azha.jpg,LEFT,,f,0.71,space,1.1726,0,0,0,0,1,,,,,,,,,,,,,,,,,,,,,,
5c895c66f76b260001681aeb,2023-06-16_11h27.54.385,phx_ver10,2022.2.5,Linux x86_64,60.0060006,,,,,space,2.0595,0,12,12,13,1,14,training,zh2x,a,zh2x_a,zh2x_7_axa.wav,,axa.jpg,,,,,,,,,,,,,,,,,,,,,,,,,,,,,,,,,
5c895c66f76b260001681aeb,2023-06-16_11h27.54.385,phx_ver10,2022.2.5,Linux x86_64,60.0060006,,,,,space,0.2691,0,13,13,24,1,25,training,zh2x,e,zh2x_e,zh2x_5_exe.wav,,exe.jpg,,,,,,,,,,,,,,,,,,,,,,,,,,,,,,,,,
5c895c66f76b260001681aeb,2023-06-16_11h27.54.385,phx_ver10,2022.2.5,Linux x86_64,60.0060006,,,,,space,0.3035,0,14,14,35,1,36,training,zh2x,i,zh2x_i,zh2x_2_izhi.wav,,izhi.jpg,,,,,,,,,,,,,,,,,,,,,,,,,,,,,,,,,
5c895c66f76b260001681aeb,2023-06-16_11h27.54.385,phx_ver10,2022.2.5,Linux x86_64,60.0060006,,,,,space,0.2853,0,15,15,26,1,27,training,zh2x,e,zh2x_e,zh2x_6_exe.wav,,exe.jpg,,,,,,,,,,,,,,,,,,,,,,,,,,,,,,,,,
5c895c66f76b260001681aeb,2023-06-16_11h27.54.385,phx_ver10,2022.2.5,Linux x86_64,60.0060006,,,,,space,0.1695,0,16,16,12,1,13,training,zh2x,a,zh2x_a,zh2x_7_axa.wav,,axa.jpg,,,,,,,,,,,,,,,,,,,,,,,,,,,,,,,,,
5c895c66f76b260001681aeb,2023-06-16_11h27.54.385,phx_ver10,2022.2.5,Linux x86_64,60.0060006,,,,,space,0.5219,0,17,17,20,1,21,training,zh2x,e,zh2x_e,zh2x_2_ezhe.wav,,ezhe.jpg,,,,,,,,,,,,,,,,,,,,,,,,,,,,,,,,,
5c895c66f76b260001681aeb,2023-06-16_11h27.54.385,phx_ver10,2022.2.5,Linux x86_64,60.0060006,,,,,,,,,,,,,attn_test,,,,zh2x_8_exe.wav,zh2x_8_ixi.wav,exe.jpg,LEFT,,j,0.166,space,0.9512,0,0,0,0,1,,,,,,,,,,,,,,,,,,,,,,
5c895c66f76b260001681aeb,2023-06-16_11h27.54.385,phx_ver10,2022.2.5,Linux x86_64,60.0060006,,,,,space,0.4692,0,18,18,28,1,29,training,zh2x,e,zh2x_e,zh2x_7_exe.wav,,exe.jpg,,,,,,,,,,,,,,,,,,,,,,,,,,,,,,,,,
5c895c66f76b260001681aeb,2023-06-16_11h27.54.385,phx_ver10,2022.2.5,Linux x86_64,60.0060006,,,,,space,0.0352,0,19,19,23,1,24,training,zh2x,e,zh2x_e,zh2x_4_ezhe.wav,,ezhe.jpg,,,,,,,,,,,,,,,,,,,,,,,,,,,,,,,,,
5c895c66f76b260001681aeb,2023-06-16_11h27.54.385,phx_ver10,2022.2.5,Linux x86_64,60.0060006,,,,,space,0.4864,0,20,20,2,1,3,training,zh2x,a,zh2x_a,zh2x_2_azha.wav,,azha.jpg,,,,,,,,,,,,,,,,,,,,,,,,,,,,,,,,,
5c895c66f76b260001681aeb,2023-06-16_11h27.54.385,phx_ver10,2022.2.5,Linux x86_64,60.0060006,,,,,space,0.159,0,21,21,21,1,22,training,zh2x,e,zh2x_e,zh2x_3_ezhe.wav,,ezhe.jpg,,,,,,,,,,,,,,,,,,,,,,,,,,,,,,,,,
5c895c66f76b260001681aeb,2023-06-16_11h27.54.385,phx_ver10,2022.2.5,Linux x86_64,60.0060006,,,,,space,0.356,0,22,22,46,1,47,training,zh2x,i,zh2x_i,zh2x_7_ixi.wav,,ixi.jpg,,,,,,,,,,,,,,,,,,,,,,,,,,,,,,,,,
5c895c66f76b260001681aeb,2023-06-16_11h27.54.385,phx_ver10,2022.2.5,Linux x86_64,60.0060006,,,,,space,0.3204,0,23,23,9,1,10,training,zh2x,a,zh2x_a,zh2x_6_axa.wav,,axa.jpg,,,,,,,,,,,,,,,,,,,,,,,,,,,,,,,,,
5c895c66f76b260001681aeb,2023-06-16_11h27.54.385,phx_ver10,2022.2.5,Linux x86_64,60.0060006,,,,,,,,,,,,,attn_test,,,,zh2x_8_ixi.wav,zh2x_1_azha.wav,ixi.jpg,LEFT,,f,0.97,space,1.2788,0,0,0,0,1,,,,,,,,,,,,,,,,,,,,,,
5c895c66f76b260001681aeb,2023-06-16_11h27.54.385,phx_ver10,2022.2.5,Linux x86_64,60.0060006,,,,,space,0.1849,0,24,24,36,1,37,training,zh2x,i,zh2x_i,zh2x_2_izhi.wav,,izhi.jpg,,,,,,,,,,,,,,,,,,,,,,,,,,,,,,,,,
5c895c66f76b260001681aeb,2023-06-16_11h27.54.385,phx_ver10,2022.2.5,Linux x86_64,60.0060006,,,,,space,0.5026,0,25,25,18,1,19,training,zh2x,e,zh2x_e,zh2x_2_ezhe.wav,,ezhe.jpg,,,,,,,,,,,,,,,,,,,,,,,,,,,,,,,,,
5c895c66f76b260001681aeb,2023-06-16_11h27.54.385,phx_ver10,2022.2.5,Linux x86_64,60.0060006,,,,,space,0.434,0,26,26,42,1,43,training,zh2x,i,zh2x_i,zh2x_6_ixi.wav,,ixi.jpg,,,,,,,,,,,,,,,,,,,,,,,,,,,,,,,,,
5c895c66f76b260001681aeb,2023-06-16_11h27.54.385,phx_ver10,2022.2.5,Linux x86_64,60.0060006,,,,,space,0.0267,0,27,27,8,1,9,training,zh2x,a,zh2x_a,zh2x_5_axa.wav,,axa.jpg,,,,,,,,,,,,,,,,,,,,,,,,,,,,,,,,,
5c895c66f76b260001681aeb,2023-06-16_11h27.54.385,phx_ver10,2022.2.5,Linux x86_64,60.0060006,,,,,space,0.0531,0,28,28,14,1,15,training,zh2x,a,zh2x_a,zh2x_7_axa.wav,,axa.jpg,,,,,,,,,,,,,,,,,,,,,,,,,,,,,,,,,
5c895c66f76b260001681aeb,2023-06-16_11h27.54.385,phx_ver10,2022.2.5,Linux x86_64,60.0060006,,,,,space,0.0165,0,29,29,7,1,8,training,zh2x,a,zh2x_a,zh2x_4_azha.wav,,azha.jpg,,,,,,,,,,,,,,,,,,,,,,,,,,,,,,,,,
5c895c66f76b260001681aeb,2023-06-16_11h27.54.385,phx_ver10,2022.2.5,Linux x86_64,60.0060006,,,,,,,,,,,,,attn_test,,,,zh2x_8_ixi.wav,zh2x_1_ezhe.wav,ezhe.jpg,RIGHT,,f,1.0734,space,1.3057,0,0,0,0,1,,,,,,,,,,,,,,,,,,,,,,
5c895c66f76b260001681aeb,2023-06-16_11h27.54.385,phx_ver10,2022.2.5,Linux x86_64,60.0060006,,,,,space,0.784,0,30,30,37,1,38,training,zh2x,i,zh2x_i,zh2x_3_izhi.wav,,izhi.jpg,,,,,,,,,,,,,,,,,,,,,,,,,,,,,,,,,
5c895c66f76b260001681aeb,2023-06-16_11h27.54.385,phx_ver10,2022.2.5,Linux x86_64,60.0060006,,,,,space,0.1533,0,31,31,19,1,20,training,zh2x,e,zh2x_e,zh2x_2_ezhe.wav,,ezhe.jpg,,,,,,,,,,,,,,,,,,,,,,,,,,,,,,,,,
5c895c66f76b260001681aeb,2023-06-16_11h27.54.385,phx_ver10,2022.2.5,Linux x86_64,60.0060006,,,,,space,0.0844,0,32,32,6,1,7,training,zh2x,a,zh2x_a,zh2x_3_azha.wav,,azha.jpg,,,,,,,,,,,,,,,,,,,,,,,,,,,,,,,,,
5c895c66f76b260001681aeb,2023-06-16_11h27.54.385,phx_ver10,2022.2.5,Linux x86_64,60.0060006,,,,,space,0.152,0,33,33,31,1,32,training,zh2x,e,zh2x_e,zh2x_8_exe.wav,,exe.jpg,,,,,,,,,,,,,,,,,,,,,,,,,,,,,,,,,
5c895c66f76b260001681aeb,2023-06-16_11h27.54.385,phx_ver10,2022.2.5,Linux x86_64,60.0060006,,,,,space,0.5382,0,34,34,0,1,1,training,zh2x,a,zh2x_a,zh2x_1_azha.wav,,azha.jpg,,,,,,,,,,,,,,,,,,,,,,,,,,,,,,,,,
5c895c66f76b260001681aeb,2023-06-16_11h27.54.385,phx_ver10,2022.2.5,Linux x86_64,60.0060006,,,,,space,0.0685,0,35,35,45,1,46,training,zh2x,i,zh2x_i,zh2x_7_ixi.wav,,ixi.jpg,,,,,,,,,,,,,,,,,,,,,,,,,,,,,,,,,
5c895c66f76b260001681aeb,2023-06-16_11h27.54.385,phx_ver10,2022.2.5,Linux x86_64,60.0060006,,,,,,,,,,,,,attn_test,,,,zh2x_8_axa.wav,zh2x_1_izhi.wav,izhi.jpg,RIGHT,,j,0.0853,space,0.534,0,0,0,0,1,,,,,,,,,,,,,,,,,,,,,,
5c895c66f76b260001681aeb,2023-06-16_11h27.54.385,phx_ver10,2022.2.5,Linux x86_64,60.0060006,,,,,space,0.767,0,36,36,16,1,17,training,zh2x,e,zh2x_e,zh2x_1_ezhe.wav,,ezhe.jpg,,,,,,,,,,,,,,,,,,,,,,,,,,,,,,,,,
5c895c66f76b260001681aeb,2023-06-16_11h27.54.385,phx_ver10,2022.2.5,Linux x86_64,60.0060006,,,,,space,0.087,0,37,37,47,1,48,training,zh2x,i,zh2x_i,zh2x_8_ixi.wav,,ixi.jpg,,,,,,,,,,,,,,,,,,,,,,,,,,,,,,,,,
5c895c66f76b260001681aeb,2023-06-16_11h27.54.385,phx_ver10,2022.2.5,Linux x86_64,60.0060006,,,,,space,0.4521,0,38,38,29,1,30,training,zh2x,e,zh2x_e,zh2x_7_exe.wav,,exe.jpg,,,,,,,,,,,,,,,,,,,,,,,,,,,,,,,,,
5c895c66f76b260001681aeb,2023-06-16_11h27.54.385,phx_ver10,2022.2.5,Linux x86_64,60.0060006,,,,,space,0.0184,0,39,39,1,1,2,training,zh2x,a,zh2x_a,zh2x_2_azha.wav,,azha.jpg,,,,,,,,,,,,,,,,,,,,,,,,,,,,,,,,,
5c895c66f76b260001681aeb,2023-06-16_11h27.54.385,phx_ver10,2022.2.5,Linux x86_64,60.0060006,,,,,space,0.0215,0,40,40,4,1,5,training,zh2x,a,zh2x_a,zh2x_2_azha.wav,,azha.jpg,,,,,,,,,,,,,,,,,,,,,,,,,,,,,,,,,
5c895c66f76b260001681aeb,2023-06-16_11h27.54.385,phx_ver10,2022.2.5,Linux x86_64,60.0060006,,,,,space,0.3182,0,41,41,41,1,42,training,zh2x,i,zh2x_i,zh2x_6_ixi.wav,,ixi.jpg,,,,,,,,,,,,,,,,,,,,,,,,,,,,,,,,,
5c895c66f76b260001681aeb,2023-06-16_11h27.54.385,phx_ver10,2022.2.5,Linux x86_64,60.0060006,,,,,,,,,,,,,attn_test,,,,zh2x_1_azha.wav,zh2x_8_exe.wav,exe.jpg,RIGHT,,j,0.6021,space,0.8519,0,0,0,0,1,,,,,,,,,,,,,,,,,,,,,,
5c895c66f76b260001681aeb,2023-06-16_11h27.54.385,phx_ver10,2022.2.5,Linux x86_64,60.0060006,,,,,space,0.2613,0,42,42,34,1,35,training,zh2x,i,zh2x_i,zh2x_2_izhi.wav,,izhi.jpg,,,,,,,,,,,,,,,,,,,,,,,,,,,,,,,,,
5c895c66f76b260001681aeb,2023-06-16_11h27.54.385,phx_ver10,2022.2.5,Linux x86_64,60.0060006,,,,,space,0.4529,0,43,43,40,1,41,training,zh2x,i,zh2x_i,zh2x_5_ixi.wav,,ixi.jpg,,,,,,,,,,,,,,,,,,,,,,,,,,,,,,,,,
5c895c66f76b260001681aeb,2023-06-16_11h27.54.385,phx_ver10,2022.2.5,Linux x86_64,60.0060006,,,,,space,0.3865,0,44,44,15,1,16,training,zh2x,a,zh2x_a,zh2x_8_axa.wav,,axa.jpg,,,,,,,,,,,,,,,,,,,,,,,,,,,,,,,,,
5c895c66f76b260001681aeb,2023-06-16_11h27.54.385,phx_ver10,2022.2.5,Linux x86_64,60.0060006,,,,,space,0.3993,0,45,45,11,1,12,training,zh2x,a,zh2x_a,zh2x_7_axa.wav,,axa.jpg,,,,,,,,,,,,,,,,,,,,,,,,,,,,,,,,,
5c895c66f76b260001681aeb,2023-06-16_11h27.54.385,phx_ver10,2022.2.5,Linux x86_64,60.0060006,,,,,space,0.086,0,46,46,17,1,18,training,zh2x,e,zh2x_e,zh2x_2_ezhe.wav,,ezhe.jpg,,,,,,,,,,,,,,,,,,,,,,,,,,,,,,,,,
5c895c66f76b260001681aeb,2023-06-16_11h27.54.385,phx_ver10,2022.2.5,Linux x86_64,60.0060006,,,,,space,0.1398,0,47,47,25,1,26,training,zh2x,e,zh2x_e,zh2x_6_exe.wav,,exe.jpg,,,,,,,,,,,,,,,,,,,,,,,,,,,,,,,,,
5c895c66f76b260001681aeb,2023-06-16_11h27.54.385,phx_ver10,2022.2.5,Linux x86_64,60.0060006,,,,,,,,,,,,,attn_test,,,,zh2x_8_exe.wav,zh2x_8_axa.wav,axa.jpg,RIGHT,,j,0.5538,space,0.8231,,,,,,,,,,,,,,,,,,,,,,,,,,,
5c895c66f76b260001681aeb,2023-06-16_11h27.54.385,phx_ver10,2022.2.5,Linux x86_64,60.0060006,,,,,,,,,,,,,,,,,,,,,,,,,,,,,,,space,1.1862,,,,,,,,,,,,,,,,,,,,
5c895c66f76b260001681aeb,2023-06-16_11h27.54.385,phx_ver10,2022.2.5,Linux x86_64,60.0060006,,,,,,,,,,,,,,,,,,,,,,,,,,,,,,,,,space,7.2361,,,,,,,,,,,,,,,,,,
5c895c66f76b260001681aeb,2023-06-16_11h27.54.385,phx_ver10,2022.2.5,Linux x86_64,60.0060006,,,,,,,,,,,,2,testing_pre,,,,auhau.wav,aufau.wav,,FALSE,,,,,,,,,,,,,,,j,4.135,space,4.7684,0,0,0,1,1,,,,,,,,,
5c895c66f76b260001681aeb,2023-06-16_11h27.54.385,phx_ver10,2022.2.5,Linux x86_64,60.0060006,,,,,,,,,,,,3,testing_pre,,,,afa.wav,aha.wav,,FALSE,,,,,,,,,,,,,,,j,0.3007,space,0.6167,0,1,1,2,1,,,,,,,,,
5c895c66f76b260001681aeb,2023-06-16_11h27.54.385,phx_ver10,2022.2.5,Linux x86_64,60.0060006,,,,,,,,,,,,4,testing_pre,,,,eihei.wav,eihei.wav,,TRUE,,,,,,,,,,,,,,,f,0.1284,space,0.3857,0,2,2,3,1,,,,,,,,,
5c895c66f76b260001681aeb,2023-06-16_11h27.54.385,phx_ver10,2022.2.5,Linux x86_64,60.0060006,,,,,,,,,,,,1,testing_pre,,,,ifi.wav,ifi.wav,,TRUE,,,,,,,,,,,,,,,j,0.8348,space,1.1098,0,3,3,0,1,,,,,,,,,
5c895c66f76b260001681aeb,2023-06-16_11h27.54.385,phx_ver10,2022.2.5,Linux x86_64,60.0060006,,,,,,,,,,,,5,testing_pre,,,,ihi.wav,ifi.wav,,FALSE,,,,,,,,,,,,,,,j,0.5683,space,0.7899,0,4,4,4,1,,,,,,,,,
5c895c66f76b260001681aeb,2023-06-16_11h27.54.385,phx_ver10,2022.2.5,Linux x86_64,60.0060006,,,,,,,,,,,,,,,,,,,,,,,,,,,,,,,,,,,,,,,,,,,,space,0.4343,,,,,,,
5c895c66f76b260001681aeb,2023-06-16_11h27.54.385,phx_ver10,2022.2.5,Linux x86_64,60.0060006,,,,,,,,,,,,134,testing_3,sh2j,e,sh2j_e,sh2j_8_eje.wav,sh2j_8_eje.wav,,TRUE,FALSE,,,,,,,,,,,,,,f,0.1005,space,0.4097,,,,,,,,0,0,0,133,1,,
5c895c66f76b260001681aeb,2023-06-16_11h27.54.385,phx_ver10,2022.2.5,Linux x86_64,60.0060006,,,,,,,,,,,,69,testing_3,zh2j,i,zh2j_i,zh2j_1_izhi.wav,zh2j_1_izhi.wav,,TRUE,FALSE,,,,,,,,,,,,,,f,0.2728,space,0.5235,,,,,,,,0,1,1,68,1,,
5c895c66f76b260001681aeb,2023-06-16_11h27.54.385,phx_ver10,2022.2.5,Linux x86_64,60.0060006,,,,,,,,,,,,79,testing_3,j2x,ai,j2x_ai,j2x_1_aijai.wav,j2x_8_aixai.wav,,FALSE,FALSE,,,,,,,,,,,,,,j,0.1017,space,0.4676,,,,,,,,0,2,2,78,1,,
5c895c66f76b260001681aeb,2023-06-16_11h27.54.385,phx_ver10,2022.2.5,Linux x86_64,60.0060006,,,,,,,,,,,,21,testing_2,zh2x,ei,zh2x_ei,zh2x_1_eizhei.wav,zh2x_1_eizhei.wav,,TRUE,FALSE,,,,,,,,,,,,,,j,0.3804,space,0.6807,,,,,,,,0,3,3,20,1,,
5c895c66f76b260001681aeb,2023-06-16_11h27.54.385,phx_ver10,2022.2.5,Linux x86_64,60.0060006,,,,,,,,,,,,136,testing_3,sh2j,e,sh2j_e,sh2j_8_eje.wav,sh2j_1_eshe.wav,,FALSE,FALSE,,,,,,,,,,,,,,j,0.209,space,0.5526,,,,,,,,0,4,4,135,1,,
5c895c66f76b260001681aeb,2023-06-16_11h27.54.385,phx_ver10,2022.2.5,Linux x86_64,60.0060006,,,,,,,,,,,,1,testing_1,zh2x,a,zh2x_a,zh2x_1_azha.wav,zh2x_1_azha_copy.wav,,TRUE,TRUE,,,,,,,,,,,,,,j,0.314,space,0.6031,,,,,,,,0,5,5,0,1,,
5c895c66f76b260001681aeb,2023-06-16_11h27.54.385,phx_ver10,2022.2.5,Linux x86_64,60.0060006,,,,,,,,,,,,119,testing_3,sh2x,i,sh2x_i,sh2x_1_ishi.wav,sh2x_8_ixi.wav,,FALSE,FALSE,,,,,,,,,,,,,,f,0.318,space,0.5163,,,,,,,,0,6,6,118,1,,
5c895c66f76b260001681aeb,2023-06-16_11h27.54.385,phx_ver10,2022.2.5,Linux x86_64,60.0060006,,,,,,,,,,,,11,testing_1,zh2x,i,zh2x_i,zh2x_1_izhi.wav,zh2x_8_ixi.wav,,FALSE,TRUE,,,,,,,,,,,,,,f,0.2183,space,0.7543,,,,,,,,0,7,7,10,1,,
5c895c66f76b260001681aeb,2023-06-16_11h27.54.385,phx_ver10,2022.2.5,Linux x86_64,60.0060006,,,,,,,,,,,,75,testing_3,j2x,a,j2x_a,j2x_1_aja.wav,j2x_8_axa.wav,,FALSE,FALSE,,,,,,,,,,,,,,j,0.9194,space,1.1537,,,,,,,,0,8,8,74,1,,
5c895c66f76b260001681aeb,2023-06-16_11h27.54.385,phx_ver10,2022.2.5,Linux x86_64,60.0060006,,,,,,,,,,,,99,testing_3,sh2x,a,sh2x_a,sh2x_1_asha.wav,sh2x_8_axa.wav,,FALSE,FALSE,,,,,,,,,,,,,,f,0.1707,space,0.4379,,,,,,,,0,9,9,98,1,,
5c895c66f76b260001681aeb,2023-06-16_11h27.54.385,phx_ver10,2022.2.5,Linux x86_64,60.0060006,,,,,,,,,,,,48,testing_3,zh2sh,i,zh2sh_i,zh2sh_8_ishi.wav,zh2sh_1_izhi.wav,,FALSE,FALSE,,,,,,,,,,,,,,j,0.1376,space,0.4321,,,,,,,,0,10,10,47,1,,
5c895c66f76b260001681aeb,2023-06-16_11h27.54.385,phx_ver10,2022.2.5,Linux x86_64,60.0060006,,,,,,,,,,,,74,testing_3,j2x,a,j2x_a,j2x_8_axa.wav,j2x_8_axa.wav,,TRUE,FALSE,,,,,,,,,,,,,,f,0.606,space,0.7562,,,,,,,,0,11,11,73,1,,
5c895c66f76b260001681aeb,2023-06-16_11h27.54.385,phx_ver10,2022.2.5,Linux x86_64,60.0060006,,,,,,,,,,,,109,testing_3,sh2x,e,sh2x_e,sh2x_1_eshe.wav,sh2x_1_eshe.wav,,TRUE,FALSE,,,,,,,,,,,,,,f,0.0994,space,0.3742,,,,,,,,0,12,12,108,1,,
5c895c66f76b260001681aeb,2023-06-16_11h27.54.385,phx_ver10,2022.2.5,Linux x86_64,60.0060006,,,,,,,,,,,,94,testing_3,j2x,i,j2x_i,j2x_8_ixi.wav,j2x_8_ixi.wav,,TRUE,FALSE,,,,,,,,,,,,,,j,0.0645,space,0.4191,,,,,,,,0,13,13,93,1,,
5c895c66f76b260001681aeb,2023-06-16_11h27.54.385,phx_ver10,2022.2.5,Linux x86_64,60.0060006,,,,,,,,,,,,20,testing_2,zh2x,au,zh2x_au,zh2x_8_auxau.wav,zh2x_1_auzhau.wav,,FALSE,FALSE,,,,,,,,,,,,,,j,0.398,space,0.6517,,,,,,,,0,14,14,19,1,,
5c895c66f76b260001681aeb,2023-06-16_11h27.54.385,phx_ver10,2022.2.5,Linux x86_64,60.0060006,,,,,,,,,,,,104,testing_3,sh2x,ai,sh2x_ai,sh2x_8_aixai.wav,sh2x_1_aishai.wav,,FALSE,FALSE,,,,,,,,,,,,,,f,0.953,space,1.1494,,,,,,,,0,15,15,103,1,,
5c895c66f76b260001681aeb,2023-06-16_11h27.54.385,phx_ver10,2022.2.5,Linux x86_64,60.0060006,,,,,,,,,,,,115,testing_3,sh2x,ei,sh2x_ei,sh2x_1_eishei.wav,sh2x_8_eixei.wav,,FALSE,FALSE,,,,,,,,,,,,,,j,0.4216,space,0.6651,,,,,,,,0,16,16,114,1,,
5c895c66f76b260001681aeb,2023-06-16_11h27.54.385,phx_ver10,2022.2.5,Linux x86_64,60.0060006,,,,,,,,,,,,46,testing_3,zh2sh,i,zh2sh_i,zh2sh_8_ishi.wav,zh2sh_8_ishi.wav,,TRUE,FALSE,,,,,,,,,,,,,,j,0.5265,space,1.1678,,,,,,,,0,17,17,45,1,,
5c895c66f76b260001681aeb,2023-06-16_11h27.54.385,phx_ver10,2022.2.5,Linux x86_64,60.0060006,,,,,,,,,,,,2,testing_1,zh2x,a,zh2x_a,zh2x_8_axa.wav,zh2x_8_axa_copy.wav,,TRUE,TRUE,,,,,,,,,,,,,,f,0.0549,space,0.3245,,,,,,,,0,18,18,1,1,,
5c895c66f76b260001681aeb,2023-06-16_11h27.54.385,phx_ver10,2022.2.5,Linux x86_64,60.0060006,,,,,,,,,,,,37,testing_3,zh2sh,e,zh2sh_e,zh2sh_1_ezhe.wav,zh2sh_1_ezhe.wav,,TRUE,FALSE,,,,,,,,,,,,,,f,0.3241,space,0.6056,,,,,,,,0,19,19,36,1,,
5c895c66f76b260001681aeb,2023-06-16_11h27.54.385,phx_ver10,2022.2.5,Linux x86_64,60.0060006,,,,,,,,,,,,41,testing_3,zh2sh,ei,zh2sh_ei,zh2sh_1_eizhei.wav,zh2sh_1_eizhei.wav,,TRUE,FALSE,,,,,,,,,,,,,,f,0.5021,space,0.6502,,,,,,,,0,20,20,40,1,,
5c895c66f76b260001681aeb,2023-06-16_11h27.54.385,phx_ver10,2022.2.5,Linux x86_64,60.0060006,,,,,,,,,,,,111,testing_3,sh2x,e,sh2x_e,sh2x_1_eshe.wav,sh2x_8_exe.wav,,FALSE,FALSE,,,,,,,,,,,,,,j,0.1037,space,0.402,,,,,,,,0,21,21,110,1,,
5c895c66f76b260001681aeb,2023-06-16_11h27.54.385,phx_ver10,2022.2.5,Linux x86_64,60.0060006,,,,,,,,,,,,71,testing_3,zh2j,i,zh2j_i,zh2j_1_izhi.wav,zh2j_8_iji.wav,,FALSE,FALSE,,,,,,,,,,,,,,f,0.172,space,0.4882,,,,,,,,0,22,22,70,1,,
5c895c66f76b260001681aeb,2023-06-16_11h27.54.385,phx_ver10,2022.2.5,Linux x86_64,60.0060006,,,,,,,,,,,,18,testing_2,zh2x,au,zh2x_au,zh2x_8_auxau.wav,zh2x_8_auxau.wav,,TRUE,FALSE,,,,,,,,,,,,,,f,0.9515,space,1.2095,,,,,,,,0,23,23,17,1,,
5c895c66f76b260001681aeb,2023-06-16_11h27.54.385,phx_ver10,2022.2.5,Linux x86_64,60.0060006,,,,,,,,,,,,108,testing_3,sh2x,au,sh2x_au,sh2x_8_auxau.wav,sh2x_1_aushau.wav,,FALSE,FALSE,,,,,,,,,,,,,,f,0.4014,space,0.7332,,,,,,,,0,24,24,107,1,,
5c895c66f76b260001681aeb,2023-06-16_11h27.54.385,phx_ver10,2022.2.5,Linux x86_64,60.0060006,,,,,,,,,,,,4,testing_1,zh2x,a,zh2x_a,zh2x_8_axa.wav,zh2x_1_azha.wav,,FALSE,TRUE,,,,,,,,,,,,,,j,3.1915,space,3.3994,,,,,,,,0,25,25,3,1,,
5c895c66f76b260001681aeb,2023-06-16_11h27.54.385,phx_ver10,2022.2.5,Linux x86_64,60.0060006,,,,,,,,,,,,40,testing_3,zh2sh,e,zh2sh_e,zh2sh_8_eshe.wav,zh2sh_1_ezhe.wav,,FALSE,FALSE,,,,,,,,,,,,,,j,0.4059,space,0.6887,,,,,,,,0,26,26,39,1,,
5c895c66f76b260001681aeb,2023-06-16_11h27.54.385,phx_ver10,2022.2.5,Linux x86_64,60.0060006,,,,,,,,,,,,92,testing_3,j2x,ei,j2x_ei,j2x_8_eixei.wav,j2x_1_eijei.wav,,FALSE,FALSE,,,,,,,,,,,,,,j,0.2173,space,0.4242,,,,,,,,0,27,27,91,1,,
5c895c66f76b260001681aeb,2023-06-16_11h27.54.385,phx_ver10,2022.2.5,Linux x86_64,60.0060006,,,,,,,,,,,,43,testing_3,zh2sh,ei,zh2sh_ei,zh2sh_1_eizhei.wav,zh2sh_8_eishei.wav,,FALSE,FALSE,,,,,,,,,,,,,,j,0.4912,space,0.7091,,,,,,,,0,28,28,42,1,,
5c895c66f76b260001681aeb,2023-06-16_11h27.54.385,phx_ver10,2022.2.5,Linux x86_64,60.0060006,,,,,,,,,,,,133,testing_3,sh2j,e,sh2j_e,sh2j_1_eshe.wav,sh2j_1_eshe.wav,,TRUE,FALSE,,,,,,,,,,,,,,f,1.669,space,1.9019,,,,,,,,0,29,29,132,1,,
5c895c66f76b260001681aeb,2023-06-16_11h27.54.385,phx_ver10,2022.2.5,Linux x86_64,60.0060006,,,,,,,,,,,,131,testing_3,sh2j,au,sh2j_au,sh2j_1_aushau.wav,sh2j_8_aujau.wav,,FALSE,FALSE,,,,,,,,,,,,,,j,16.2536,space,16.469,,,,,,,,0,30,30,130,1,,
5c895c66f76b260001681aeb,2023-06-16_11h27.54.385,phx_ver10,2022.2.5,Linux x86_64,60.0060006,,,,,,,,,,,,84,testing_3,j2x,au,j2x_au,j2x_8_auxau.wav,j2x_1_aujau.wav,,FALSE,FALSE,,,,,,,,,,,,,,j,0.7689,space,1.1853,,,,,,,,0,31,31,83,1,,
5c895c66f76b260001681aeb,2023-06-16_11h27.54.385,phx_ver10,2022.2.5,Linux x86_64,60.0060006,,,,,,,,,,,,8,testing_1,zh2x,e,zh2x_e,zh2x_8_exe.wav,zh2x_1_ezhe.wav,,FALSE,TRUE,,,,,,,,,,,,,,f,2.4703,space,2.7051,,,,,,,,0,32,32,7,1,,
5c895c66f76b260001681aeb,2023-06-16_11h27.54.385,phx_ver10,2022.2.5,Linux x86_64,60.0060006,,,,,,,,,,,,85,testing_3,j2x,e,j2x_e,j2x_1_eje.wav,j2x_1_eje.wav,,TRUE,FALSE,,,,,,,,,,,,,,j,0.328,space,0.5279,,,,,,,,0,33,33,84,1,,
5c895c66f76b260001681aeb,2023-06-16_11h27.54.385,phx_ver10,2022.2.5,Linux x86_64,60.0060006,,,,,,,,,,,,81,testing_3,j2x,au,j2x_au,j2x_1_aujau.wav,j2x_1_aujau.wav,,TRUE,FALSE,,,,,,,,,,,,,,j,0.6202,space,0.826,,,,,,,,0,34,34,80,1,,
5c895c66f76b260001681aeb,2023-06-16_11h27.54.385,phx_ver10,2022.2.5,Linux x86_64,60.0060006,,,,,,,,,,,,26,testing_3,zh2sh,a,zh2sh_a,zh2sh_8_asha.wav,zh2sh_8_asha.wav,,TRUE,FALSE,,,,,,,,,,,,,,f,1.1027,space,1.5342,,,,,,,,0,35,35,25,1,,
5c895c66f76b260001681aeb,2023-06-16_11h27.54.385,phx_ver10,2022.2.5,Linux x86_64,60.0060006,,,,,,,,,,,,49,testing_3,zh2j,a,zh2j_a,zh2j_1_azha.wav,zh2j_1_azha.wav,,TRUE,FALSE,,,,,,,,,,,,,,j,0.2519,space,0.6469,,,,,,,,0,36,36,48,1,,
5c895c66f76b260001681aeb,2023-06-16_11h27.54.385,phx_ver10,2022.2.5,Linux x86_64,60.0060006,,,,,,,,,,,,42,testing_3,zh2sh,ei,zh2sh_ei,zh2sh_8_eishei.wav,zh2sh_8_eishei.wav,,TRUE,FALSE,,,,,,,,,,,,,,f,0.7357,space,1.0857,,,,,,,,0,37,37,41,1,,
5c895c66f76b260001681aeb,2023-06-16_11h27.54.385,phx_ver10,2022.2.5,Linux x86_64,60.0060006,,,,,,,,,,,,140,testing_3,sh2j,ei,sh2j_ei,sh2j_8_eijei.wav,sh2j_1_eishei.wav,,FALSE,FALSE,,,,,,,,,,,,,,f,1.4586,space,1.7548,,,,,,,,0,38,38,139,1,,
5c895c66f76b260001681aeb,2023-06-16_11h27.54.385,phx_ver10,2022.2.5,Linux x86_64,60.0060006,,,,,,,,,,,,132,testing_3,sh2j,au,sh2j_au,sh2j_8_aujau.wav,sh2j_1_aushau.wav,,FALSE,FALSE,,,,,,,,,,,,,,j,0.5847,space,1.0402,,,,,,,,0,39,39,131,1,,
5c895c66f76b260001681aeb,2023-06-16_11h27.54.385,phx_ver10,2022.2.5,Linux x86_64,60.0060006,,,,,,,,,,,,88,testing_3,j2x,e,j2x_e,j2x_8_exe.wav,j2x_1_eje.wav,,FALSE,FALSE,,,,,,,,,,,,,,j,1.1946,space,1.5539,,,,,,,,0,40,40,87,1,,
5c895c66f76b260001681aeb,2023-06-16_11h27.54.385,phx_ver10,2022.2.5,Linux x86_64,60.0060006,,,,,,,,,,,,112,testing_3,sh2x,e,sh2x_e,sh2x_8_exe.wav,sh2x_1_eshe.wav,,FALSE,FALSE,,,,,,,,,,,,,,j,0.306,space,0.5373,,,,,,,,0,41,41,111,1,,
5c895c66f76b260001681aeb,2023-06-16_11h27.54.385,phx_ver10,2022.2.5,Linux x86_64,60.0060006,,,,,,,,,,,,51,testing_3,zh2j,a,zh2j_a,zh2j_1_azha.wav,zh2j_8_aja.wav,,FALSE,FALSE,,,,,,,,,,,,,,j,0.168,space,1.5212,,,,,,,,0,42,42,50,1,,
5c895c66f76b260001681aeb,2023-06-16_11h27.54.385,phx_ver10,2022.2.5,Linux x86_64,60.0060006,,,,,,,,,,,,97,testing_3,sh2x,a,sh2x_a,sh2x_1_asha.wav,sh2x_1_asha.wav,,TRUE,FALSE,,,,,,,,,,,,,,j,0.4177,space,0.7012,,,,,,,,0,43,43,96,1,,
5c895c66f76b260001681aeb,2023-06-16_11h27.54.385,phx_ver10,2022.2.5,Linux x86_64,60.0060006,,,,,,,,,,,,70,testing_3,zh2j,i,zh2j_i,zh2j_8_iji.wav,zh2j_8_iji.wav,,TRUE,FALSE,,,,,,,,,,,,,,j,1.3704,space,1.7228,,,,,,,,0,44,44,69,1,,
5c895c66f76b260001681aeb,2023-06-16_11h27.54.385,phx_ver10,2022.2.5,Linux x86_64,60.0060006,,,,,,,,,,,,103,testing_3,sh2x,ai,sh2x_ai,sh2x_1_aishai.wav,sh2x_8_aixai.wav,,FALSE,FALSE,,,,,,,,,,,,,,f,0.4961,space,0.8073,,,,,,,,0,45,45,102,1,,
5c895c66f76b260001681aeb,2023-06-16_11h27.54.385,phx_ver10,2022.2.5,Linux x86_64,60.0060006,,,,,,,,,,,,22,testing_2,zh2x,ei,zh2x_ei,zh2x_8_eixei.wav,zh2x_8_eixei.wav,,TRUE,FALSE,,,,,,,,,,,,,,f,0.0854,space,0.4375,,,,,,,,0,46,46,21,1,,
5c895c66f76b260001681aeb,2023-06-16_11h27.54.385,phx_ver10,2022.2.5,Linux x86_64,60.0060006,,,,,,,,,,,,54,testing_3,zh2j,ai,zh2j_ai,zh2j_8_aijai.wav,zh2j_8_aijai.wav,,TRUE,FALSE,,,,,,,,,,,,,,f,0.2182,space,0.5026,,,,,,,,0,47,47,53,1,,
5c895c66f76b260001681aeb,2023-06-16_11h27.54.385,phx_ver10,2022.2.5,Linux x86_64,60.0060006,,,,,,,,,,,,139,testing_3,sh2j,ei,sh2j_ei,sh2j_1_eishei.wav,sh2j_8_eijei.wav,,FALSE,FALSE,,,,,,,,,,,,,,j,0.4337,space,0.784,,,,,,,,0,48,48,138,1,,
5c895c66f76b260001681aeb,2023-06-16_11h27.54.385,phx_ver10,2022.2.5,Linux x86_64,60.0060006,,,,,,,,,,,,129,testing_3,sh2j,au,sh2j_au,sh2j_1_aushau.wav,sh2j_1_aushau.wav,,TRUE,FALSE,,,,,,,,,,,,,,j,0.3538,space,0.5529,,,,,,,,0,49,49,128,1,,
5c895c66f76b260001681aeb,2023-06-16_11h27.54.385,phx_ver10,2022.2.5,Linux x86_64,60.0060006,,,,,,,,,,,,9,testing_1,zh2x,i,zh2x_i,zh2x_1_izhi.wav,zh2x_1_izhi_copy.wav,,TRUE,TRUE,,,,,,,,,,,,,,j,0.2539,space,0.5508,,,,,,,,0,50,50,8,1,,
5c895c66f76b260001681aeb,2023-06-16_11h27.54.385,phx_ver10,2022.2.5,Linux x86_64,60.0060006,,,,,,,,,,,,123,testing_3,sh2j,a,sh2j_a,sh2j_1_asha.wav,sh2j_8_aja.wav,,FALSE,FALSE,,,,,,,,,,,,,,j,0.0727,space,0.3858,,,,,,,,0,51,51,122,1,,
5c895c66f76b260001681aeb,2023-06-16_11h27.54.385,phx_ver10,2022.2.5,Linux x86_64,60.0060006,,,,,,,,,,,,61,testing_3,zh2j,e,zh2j_e,zh2j_1_ezhe.wav,zh2j_1_ezhe.wav,,TRUE,FALSE,,,,,,,,,,,,,,j,0.4017,space,0.6536,,,,,,,,0,52,52,60,1,,
5c895c66f76b260001681aeb,2023-06-16_11h27.54.385,phx_ver10,2022.2.5,Linux x86_64,60.0060006,,,,,,,,,,,,32,testing_3,zh2sh,ai,zh2sh_ai,zh2sh_8_aishai.wav,zh2sh_1_aizhai.wav,,FALSE,FALSE,,,,,,,,,,,,,,f,0.1314,space,0.5629,,,,,,,,0,53,53,31,1,,
5c895c66f76b260001681aeb,2023-06-16_11h27.54.385,phx_ver10,2022.2.5,Linux x86_64,60.0060006,,,,,,,,,,,,113,testing_3,sh2x,ei,sh2x_ei,sh2x_1_eishei.wav,sh2x_1_eishei.wav,,TRUE,FALSE,,,,,,,,,,,,,,f,0.2218,space,0.4845,,,,,,,,0,54,54,112,1,,
5c895c66f76b260001681aeb,2023-06-16_11h27.54.385,phx_ver10,2022.2.5,Linux x86_64,60.0060006,,,,,,,,,,,,101,testing_3,sh2x,ai,sh2x_ai,sh2x_1_aishai.wav,sh2x_1_aishai.wav,,TRUE,FALSE,,,,,,,,,,,,,,f,0.409,space,0.7381,,,,,,,,0,55,55,100,1,,
5c895c66f76b260001681aeb,2023-06-16_11h27.54.385,phx_ver10,2022.2.5,Linux x86_64,60.0060006,,,,,,,,,,,,44,testing_3,zh2sh,ei,zh2sh_ei,zh2sh_8_eishei.wav,zh2sh_1_eizhei.wav,,FALSE,FALSE,,,,,,,,,,,,,,j,0.1851,space,0.3662,,,,,,,,0,56,56,43,1,,
5c895c66f76b260001681aeb,2023-06-16_11h27.54.385,phx_ver10,2022.2.5,Linux x86_64,60.0060006,,,,,,,,,,,,110,testing_3,sh2x,e,sh2x_e,sh2x_8_exe.wav,sh2x_8_exe.wav,,TRUE,FALSE,,,,,,,,,,,,,,j,0.1149,space,0.3986,,,,,,,,0,57,57,109,1,,
5c895c66f76b260001681aeb,2023-06-16_11h27.54.385,phx_ver10,2022.2.5,Linux x86_64,60.0060006,,,,,,,,,,,,52,testing_3,zh2j,a,zh2j_a,zh2j_8_aja.wav,zh2j_1_azha.wav,,FALSE,FALSE,,,,,,,,,,,,,,j,0.0103,space,0.2974,,,,,,,,0,58,58,51,1,,
5c895c66f76b260001681aeb,2023-06-16_11h27.54.385,phx_ver10,2022.2.5,Linux x86_64,60.0060006,,,,,,,,,,,,126,testing_3,sh2j,ai,sh2j_ai,sh2j_8_aijai.wav,sh2j_8_aijai.wav,,TRUE,FALSE,,,,,,,,,,,,,,j,0.1993,space,0.4352,,,,,,,,0,59,59,125,1,,
5c895c66f76b260001681aeb,2023-06-16_11h27.54.385,phx_ver10,2022.2.5,Linux x86_64,60.0060006,,,,,,,,,,,,116,testing_3,sh2x,ei,sh2x_ei,sh2x_8_eixei.wav,sh2x_1_eishei.wav,,FALSE,FALSE,,,,,,,,,,,,,,f,0.4986,space,0.7685,,,,,,,,0,60,60,115,1,,
5c895c66f76b260001681aeb,2023-06-16_11h27.54.385,phx_ver10,2022.2.5,Linux x86_64,60.0060006,,,,,,,,,,,,15,testing_2,zh2x,ai,zh2x_ai,zh2x_1_aizhai.wav,zh2x_8_aixai.wav,,FALSE,FALSE,,,,,,,,,,,,,,f,0.7765,space,1.044,,,,,,,,0,61,61,14,1,,
5c895c66f76b260001681aeb,2023-06-16_11h27.54.385,phx_ver10,2022.2.5,Linux x86_64,60.0060006,,,,,,,,,,,,45,testing_3,zh2sh,i,zh2sh_i,zh2sh_1_izhi.wav,zh2sh_1_izhi.wav,,TRUE,FALSE,,,,,,,,,,,,,,f,0.3708,space,0.5909,,,,,,,,0,62,62,44,1,,
5c895c66f76b260001681aeb,2023-06-16_11h27.54.385,phx_ver10,2022.2.5,Linux x86_64,60.0060006,,,,,,,,,,,,39,testing_3,zh2sh,e,zh2sh_e,zh2sh_1_ezhe.wav,zh2sh_8_eshe.wav,,FALSE,FALSE,,,,,,,,,,,,,,j,0.0684,space,0.401,,,,,,,,0,63,63,38,1,,
5c895c66f76b260001681aeb,2023-06-16_11h27.54.385,phx_ver10,2022.2.5,Linux x86_64,60.0060006,,,,,,,,,,,,86,testing_3,j2x,e,j2x_e,j2x_8_exe.wav,j2x_8_exe.wav,,TRUE,FALSE,,,,,,,,,,,,,,j,1.169,space,1.5189,,,,,,,,0,64,64,85,1,,
5c895c66f76b260001681aeb,2023-06-16_11h27.54.385,phx_ver10,2022.2.5,Linux x86_64,60.0060006,,,,,,,,,,,,25,testing_3,zh2sh,a,zh2sh_a,zh2sh_1_azha.wav,zh2sh_1_azha.wav,,TRUE,FALSE,,,,,,,,,,,,,,j,0.2696,space,0.5781,,,,,,,,0,65,65,24,1,,
5c895c66f76b260001681aeb,2023-06-16_11h27.54.385,phx_ver10,2022.2.5,Linux x86_64,60.0060006,,,,,,,,,,,,90,testing_3,j2x,ei,j2x_ei,j2x_8_eixei.wav,j2x_8_eixei.wav,,TRUE,FALSE,,,,,,,,,,,,,,j,0.2339,space,1.253,,,,,,,,0,66,66,89,1,,
5c895c66f76b260001681aeb,2023-06-16_11h27.54.385,phx_ver10,2022.2.5,Linux x86_64,60.0060006,,,,,,,,,,,,10,testing_1,zh2x,i,zh2x_i,zh2x_8_ixi.wav,zh2x_8_ixi_copy.wav,,TRUE,TRUE,,,,,,,,,,,,,,f,2.7745,space,3.1146,,,,,,,,0,67,67,9,1,,
5c895c66f76b260001681aeb,2023-06-16_11h27.54.385,phx_ver10,2022.2.5,Linux x86_64,60.0060006,,,,,,,,,,,,95,testing_3,j2x,i,j2x_i,j2x_1_iji.wav,j2x_8_ixi.wav,,FALSE,FALSE,,,,,,,,,,,,,,f,0.2186,space,0.487,,,,,,,,0,68,68,94,1,,
5c895c66f76b260001681aeb,2023-06-16_11h27.54.385,phx_ver10,2022.2.5,Linux x86_64,60.0060006,,,,,,,,,,,,58,testing_3,zh2j,au,zh2j_au,zh2j_8_aujau.wav,zh2j_8_aujau.wav,,TRUE,FALSE,,,,,,,,,,,,,,j,0.1558,space,0.4577,,,,,,,,0,69,69,57,1,,
5c895c66f76b260001681aeb,2023-06-16_11h27.54.385,phx_ver10,2022.2.5,Linux x86_64,60.0060006,,,,,,,,,,,,64,testing_3,zh2j,e,zh2j_e,zh2j_8_eje.wav,zh2j_1_ezhe.wav,,FALSE,FALSE,,,,,,,,,,,,,,f,0.802,space,1.0665,,,,,,,,0,70,70,63,1,,
5c895c66f76b260001681aeb,2023-06-16_11h27.54.385,phx_ver10,2022.2.5,Linux x86_64,60.0060006,,,,,,,,,,,,89,testing_3,j2x,ei,j2x_ei,j2x_1_eijei.wav,j2x_1_eijei.wav,,TRUE,FALSE,,,,,,,,,,,,,,j,0.1371,space,0.4858,,,,,,,,0,71,71,88,1,,
5c895c66f76b260001681aeb,2023-06-16_11h27.54.385,phx_ver10,2022.2.5,Linux x86_64,60.0060006,,,,,,,,,,,,29,testing_3,zh2sh,ai,zh2sh_ai,zh2sh_1_aizhai.wav,zh2sh_1_aizhai.wav,,TRUE,FALSE,,,,,,,,,,,,,,f,0.3205,space,0.6861,,,,,,,,0,72,72,28,1,,
5c895c66f76b260001681aeb,2023-06-16_11h27.54.385,phx_ver10,2022.2.5,Linux x86_64,60.0060006,,,,,,,,,,,,87,testing_3,j2x,e,j2x_e,j2x_1_eje.wav,j2x_8_exe.wav,,FALSE,FALSE,,,,,,,,,,,,,,j,0.1206,space,0.5871,,,,,,,,0,73,73,86,1,,
5c895c66f76b260001681aeb,2023-06-16_11h27.54.385,phx_ver10,2022.2.5,Linux x86_64,60.0060006,,,,,,,,,,,,66,testing_3,zh2j,ei,zh2j_ei,zh2j_8_eijei.wav,zh2j_8_eijei.wav,,TRUE,FALSE,,,,,,,,,,,,,,j,0.1896,space,0.4378,,,,,,,,0,74,74,65,1,,
5c895c66f76b260001681aeb,2023-06-16_11h27.54.385,phx_ver10,2022.2.5,Linux x86_64,60.0060006,,,,,,,,,,,,77,testing_3,j2x,ai,j2x_ai,j2x_1_aijai.wav,j2x_1_aijai.wav,,TRUE,FALSE,,,,,,,,,,,,,,j,0.2364,space,0.4739,,,,,,,,0,75,75,76,1,,
5c895c66f76b260001681aeb,2023-06-16_11h27.54.385,phx_ver10,2022.2.5,Linux x86_64,60.0060006,,,,,,,,,,,,76,testing_3,j2x,a,j2x_a,j2x_8_axa.wav,j2x_1_aja.wav,,FALSE,FALSE,,,,,,,,,,,,,,j,0.3066,space,0.5413,,,,,,,,0,76,76,75,1,,
5c895c66f76b260001681aeb,2023-06-16_11h27.54.385,phx_ver10,2022.2.5,Linux x86_64,60.0060006,,,,,,,,,,,,30,testing_3,zh2sh,ai,zh2sh_ai,zh2sh_8_aishai.wav,zh2sh_8_aishai.wav,,TRUE,FALSE,,,,,,,,,,,,,,j,0.0359,space,0.3724,,,,,,,,0,77,77,29,1,,
5c895c66f76b260001681aeb,2023-06-16_11h27.54.385,phx_ver10,2022.2.5,Linux x86_64,60.0060006,,,,,,,,,,,,128,testing_3,sh2j,ai,sh2j_ai,sh2j_8_aijai.wav,sh2j_1_aishai.wav,,FALSE,FALSE,,,,,,,,,,,,,,j,0.3336,space,0.5189,,,,,,,,0,78,78,127,1,,
5c895c66f76b260001681aeb,2023-06-16_11h27.54.385,phx_ver10,2022.2.5,Linux x86_64,60.0060006,,,,,,,,,,,,96,testing_3,j2x,i,j2x_i,j2x_8_ixi.wav,j2x_1_iji.wav,,FALSE,FALSE,,,,,,,,,,,,,,f,0.6021,space,0.868,,,,,,,,0,79,79,95,1,,
5c895c66f76b260001681aeb,2023-06-16_11h27.54.385,phx_ver10,2022.2.5,Linux x86_64,60.0060006,,,,,,,,,,,,78,testing_3,j2x,ai,j2x_ai,j2x_8_aixai.wav,j2x_8_aixai.wav,,TRUE,FALSE,,,,,,,,,,,,,,j,0.5488,space,0.8903,,,,,,,,0,80,80,77,1,,
5c895c66f76b260001681aeb,2023-06-16_11h27.54.385,phx_ver10,2022.2.5,Linux x86_64,60.0060006,,,,,,,,,,,,130,testing_3,sh2j,au,sh2j_au,sh2j_8_aujau.wav,sh2j_8_aujau.wav,,TRUE,FALSE,,,,,,,,,,,,,,j,0.1403,space,0.5343,,,,,,,,0,81,81,129,1,,
5c895c66f76b260001681aeb,2023-06-16_11h27.54.385,phx_ver10,2022.2.5,Linux x86_64,60.0060006,,,,,,,,,,,,67,testing_3,zh2j,ei,zh2j_ei,zh2j_1_eizhei.wav,zh2j_8_eijei.wav,,FALSE,FALSE,,,,,,,,,,,,,,j,0.5918,space,0.868,,,,,,,,0,82,82,66,1,,
5c895c66f76b260001681aeb,2023-06-16_11h27.54.385,phx_ver10,2022.2.5,Linux x86_64,60.0060006,,,,,,,,,,,,98,testing_3,sh2x,a,sh2x_a,sh2x_8_axa.wav,sh2x_8_axa.wav,,TRUE,FALSE,,,,,,,,,,,,,,f,0.092,space,0.6033,,,,,,,,0,83,83,97,1,,
5c895c66f76b260001681aeb,2023-06-16_11h27.54.385,phx_ver10,2022.2.5,Linux x86_64,60.0060006,,,,,,,,,,,,60,testing_3,zh2j,au,zh2j_au,zh2j_8_aujau.wav,zh2j_1_auzhau.wav,,FALSE,FALSE,,,,,,,,,,,,,,j,1.0243,space,1.3686,,,,,,,,0,84,84,59,1,,
5c895c66f76b260001681aeb,2023-06-16_11h27.54.385,phx_ver10,2022.2.5,Linux x86_64,60.0060006,,,,,,,,,,,,33,testing_3,zh2sh,au,zh2sh_au,zh2sh_1_auzhau.wav,zh2sh_1_auzhau.wav,,TRUE,FALSE,,,,,,,,,,,,,,f,0.373,space,0.6439,,,,,,,,0,85,85,32,1,,
5c895c66f76b260001681aeb,2023-06-16_11h27.54.385,phx_ver10,2022.2.5,Linux x86_64,60.0060006,,,,,,,,,,,,100,testing_3,sh2x,a,sh2x_a,sh2x_8_axa.wav,sh2x_1_asha.wav,,FALSE,FALSE,,,,,,,,,,,,,,f,1.7943,space,4.1605,,,,,,,,0,86,86,99,1,,
5c895c66f76b260001681aeb,2023-06-16_11h27.54.385,phx_ver10,2022.2.5,Linux x86_64,60.0060006,,,,,,,,,,,,120,testing_3,sh2x,i,sh2x_i,sh2x_8_ixi.wav,sh2x_1_ishi.wav,,FALSE,FALSE,,,,,,,,,,,,,,f,0.7504,space,1.7503,,,,,,,,0,87,87,119,1,,
5c895c66f76b260001681aeb,2023-06-16_11h27.54.385,phx_ver10,2022.2.5,Linux x86_64,60.0060006,,,,,,,,,,,,35,testing_3,zh2sh,au,zh2sh_au,zh2sh_1_auzhau.wav,zh2sh_8_aushau.wav,,FALSE,FALSE,,,,,,,,,,,,,,f,0.4337,space,1.2674,,,,,,,,0,88,88,34,1,,
5c895c66f76b260001681aeb,2023-06-16_11h27.54.385,phx_ver10,2022.2.5,Linux x86_64,60.0060006,,,,,,,,,,,,125,testing_3,sh2j,ai,sh2j_ai,sh2j_1_aishai.wav,sh2j_1_aishai.wav,,TRUE,FALSE,,,,,,,,,,,,,,j,0.8091,space,1.0226,,,,,,,,0,89,89,124,1,,
5c895c66f76b260001681aeb,2023-06-16_11h27.54.385,phx_ver10,2022.2.5,Linux x86_64,60.0060006,,,,,,,,,,,,107,testing_3,sh2x,au,sh2x_au,sh2x_1_aushau.wav,sh2x_8_auxau.wav,,FALSE,FALSE,,,,,,,,,,,,,,j,0.1543,space,0.4661,,,,,,,,0,90,90,106,1,,
5c895c66f76b260001681aeb,2023-06-16_11h27.54.385,phx_ver10,2022.2.5,Linux x86_64,60.0060006,,,,,,,,,,,,27,testing_3,zh2sh,a,zh2sh_a,zh2sh_1_azha.wav,zh2sh_8_asha.wav,,FALSE,FALSE,,,,,,,,,,,,,,j,0.0343,space,0.3698,,,,,,,,0,91,91,26,1,,
5c895c66f76b260001681aeb,2023-06-16_11h27.54.385,phx_ver10,2022.2.5,Linux x86_64,60.0060006,,,,,,,,,,,,24,testing_2,zh2x,ei,zh2x_ei,zh2x_8_eixei.wav,zh2x_1_eizhei.wav,,FALSE,FALSE,,,,,,,,,,,,,,f,0.0704,space,0.3017,,,,,,,,0,92,92,23,1,,
5c895c66f76b260001681aeb,2023-06-16_11h27.54.385,phx_ver10,2022.2.5,Linux x86_64,60.0060006,,,,,,,,,,,,31,testing_3,zh2sh,ai,zh2sh_ai,zh2sh_1_aizhai.wav,zh2sh_8_aishai.wav,,FALSE,FALSE,,,,,,,,,,,,,,j,0.2512,space,0.4345,,,,,,,,0,93,93,30,1,,
5c895c66f76b260001681aeb,2023-06-16_11h27.54.385,phx_ver10,2022.2.5,Linux x86_64,60.0060006,,,,,,,,,,,,72,testing_3,zh2j,i,zh2j_i,zh2j_8_iji.wav,zh2j_1_izhi.wav,,FALSE,FALSE,,,,,,,,,,,,,,f,0.785,space,1.1869,,,,,,,,0,94,94,71,1,,
5c895c66f76b260001681aeb,2023-06-16_11h27.54.385,phx_ver10,2022.2.5,Linux x86_64,60.0060006,,,,,,,,,,,,141,testing_3,sh2j,i,sh2j_i,sh2j_1_ishi.wav,sh2j_1_ishi.wav,,TRUE,FALSE,,,,,,,,,,,,,,f,0.168,space,0.4515,,,,,,,,0,95,95,140,1,,
5c895c66f76b260001681aeb,2023-06-16_11h27.54.385,phx_ver10,2022.2.5,Linux x86_64,60.0060006,,,,,,,,,,,,55,testing_3,zh2j,ai,zh2j_ai,zh2j_1_aizhai.wav,zh2j_8_aijai.wav,,FALSE,FALSE,,,,,,,,,,,,,,j,0.5233,space,0.8356,,,,,,,,0,96,96,54,1,,
5c895c66f76b260001681aeb,2023-06-16_11h27.54.385,phx_ver10,2022.2.5,Linux x86_64,60.0060006,,,,,,,,,,,,91,testing_3,j2x,ei,j2x_ei,j2x_1_eijei.wav,j2x_8_eixei.wav,,FALSE,FALSE,,,,,,,,,,,,,,f,0.6344,space,0.9228,,,,,,,,0,97,97,90,1,,
5c895c66f76b260001681aeb,2023-06-16_11h27.54.385,phx_ver10,2022.2.5,Linux x86_64,60.0060006,,,,,,,,,,,,124,testing_3,sh2j,a,sh2j_a,sh2j_8_aja.wav,sh2j_1_asha.wav,,FALSE,FALSE,,,,,,,,,,,,,,j,1.5788,space,2.1527,,,,,,,,0,98,98,123,1,,
5c895c66f76b260001681aeb,2023-06-16_11h27.54.385,phx_ver10,2022.2.5,Linux x86_64,60.0060006,,,,,,,,,,,,23,testing_2,zh2x,ei,zh2x_ei,zh2x_1_eizhei.wav,zh2x_8_eixei.wav,,FALSE,FALSE,,,,,,,,,,,,,,j,0.9674,space,1.172,,,,,,,,0,99,99,22,1,,
5c895c66f76b260001681aeb,2023-06-16_11h27.54.385,phx_ver10,2022.2.5,Linux x86_64,60.0060006,,,,,,,,,,,,121,testing_3,sh2j,a,sh2j_a,sh2j_1_asha.wav,sh2j_1_asha.wav,,TRUE,FALSE,,,,,,,,,,,,,,j,0.1378,space,0.3684,,,,,,,,0,100,100,120,1,,
5c895c66f76b260001681aeb,2023-06-16_11h27.54.385,phx_ver10,2022.2.5,Linux x86_64,60.0060006,,,,,,,,,,,,53,testing_3,zh2j,ai,zh2j_ai,zh2j_1_aizhai.wav,zh2j_1_aizhai.wav,,TRUE,FALSE,,,,,,,,,,,,,,f,0.2184,space,0.4867,,,,,,,,0,101,101,52,1,,
5c895c66f76b260001681aeb,2023-06-16_11h27.54.385,phx_ver10,2022.2.5,Linux x86_64,60.0060006,,,,,,,,,,,,12,testing_1,zh2x,i,zh2x_i,zh2x_8_ixi.wav,zh2x_1_izhi.wav,,FALSE,TRUE,,,,,,,,,,,,,,f,0.4845,space,0.7002,,,,,,,,0,102,102,11,1,,
5c895c66f76b260001681aeb,2023-06-16_11h27.54.385,phx_ver10,2022.2.5,Linux x86_64,60.0060006,,,,,,,,,,,,114,testing_3,sh2x,ei,sh2x_ei,sh2x_8_eixei.wav,sh2x_8_eixei.wav,,TRUE,FALSE,,,,,,,,,,,,,,j,0.5225,space,0.7181,,,,,,,,0,103,103,113,1,,
5c895c66f76b260001681aeb,2023-06-16_11h27.54.385,phx_ver10,2022.2.5,Linux x86_64,60.0060006,,,,,,,,,,,,105,testing_3,sh2x,au,sh2x_au,sh2x_1_aushau.wav,sh2x_1_aushau.wav,,TRUE,FALSE,,,,,,,,,,,,,,j,0.4366,space,0.6522,,,,,,,,0,104,104,104,1,,
5c895c66f76b260001681aeb,2023-06-16_11h27.54.385,phx_ver10,2022.2.5,Linux x86_64,60.0060006,,,,,,,,,,,,65,testing_3,zh2j,ei,zh2j_ei,zh2j_1_eizhei.wav,zh2j_1_eizhei.wav,,TRUE,FALSE,,,,,,,,,,,,,,f,0.6527,space,0.8598,,,,,,,,0,105,105,64,1,,
5c895c66f76b260001681aeb,2023-06-16_11h27.54.385,phx_ver10,2022.2.5,Linux x86_64,60.0060006,,,,,,,,,,,,143,testing_3,sh2j,i,sh2j_i,sh2j_1_ishi.wav,sh2j_8_iji.wav,,FALSE,FALSE,,,,,,,,,,,,,,f,1.639,space,1.87,,,,,,,,0,106,106,142,1,,
5c895c66f76b260001681aeb,2023-06-16_11h27.54.385,phx_ver10,2022.2.5,Linux x86_64,60.0060006,,,,,,,,,,,,38,testing_3,zh2sh,e,zh2sh_e,zh2sh_8_eshe.wav,zh2sh_8_eshe.wav,,TRUE,FALSE,,,,,,,,,,,,,,f,0.1363,space,0.4256,,,,,,,,0,107,107,37,1,,
5c895c66f76b260001681aeb,2023-06-16_11h27.54.385,phx_ver10,2022.2.5,Linux x86_64,60.0060006,,,,,,,,,,,,34,testing_3,zh2sh,au,zh2sh_au,zh2sh_8_aushau.wav,zh2sh_8_aushau.wav,,TRUE,FALSE,,,,,,,,,,,,,,j,1.0884,space,1.3042,,,,,,,,0,108,108,33,1,,
5c895c66f76b260001681aeb,2023-06-16_11h27.54.385,phx_ver10,2022.2.5,Linux x86_64,60.0060006,,,,,,,,,,,,3,testing_1,zh2x,a,zh2x_a,zh2x_1_azha.wav,zh2x_8_axa.wav,,FALSE,TRUE,,,,,,,,,,,,,,f,1.0408,space,1.2333,,,,,,,,0,109,109,2,1,,
5c895c66f76b260001681aeb,2023-06-16_11h27.54.385,phx_ver10,2022.2.5,Linux x86_64,60.0060006,,,,,,,,,,,,62,testing_3,zh2j,e,zh2j_e,zh2j_8_eje.wav,zh2j_8_eje.wav,,TRUE,FALSE,,,,,,,,,,,,,,f,0.2318,space,0.5321,,,,,,,,0,110,110,61,1,,
5c895c66f76b260001681aeb,2023-06-16_11h27.54.385,phx_ver10,2022.2.5,Linux x86_64,60.0060006,,,,,,,,,,,,63,testing_3,zh2j,e,zh2j_e,zh2j_1_ezhe.wav,zh2j_8_eje.wav,,FALSE,FALSE,,,,,,,,,,,,,,f,101.629,space,101.9116,,,,,,,,0,111,111,62,1,,
5c895c66f76b260001681aeb,2023-06-16_11h27.54.385,phx_ver10,2022.2.5,Linux x86_64,60.0060006,,,,,,,,,,,,68,testing_3,zh2j,ei,zh2j_ei,zh2j_8_eijei.wav,zh2j_1_eizhei.wav,,FALSE,FALSE,,,,,,,,,,,,,,f,0.0401,space,0.6524,,,,,,,,0,112,112,67,1,,
5c895c66f76b260001681aeb,2023-06-16_11h27.54.385,phx_ver10,2022.2.5,Linux x86_64,60.0060006,,,,,,,,,,,,127,testing_3,sh2j,ai,sh2j_ai,sh2j_1_aishai.wav,sh2j_8_aijai.wav,,FALSE,FALSE,,,,,,,,,,,,,,j,0.3564,space,0.6006,,,,,,,,0,113,113,126,1,,
5c895c66f76b260001681aeb,2023-06-16_11h27.54.385,phx_ver10,2022.2.5,Linux x86_64,60.0060006,,,,,,,,,,,,122,testing_3,sh2j,a,sh2j_a,sh2j_8_aja.wav,sh2j_8_aja.wav,,TRUE,FALSE,,,,,,,,,,,,,,f,0.2597,space,0.4868,,,,,,,,0,114,114,121,1,,
5c895c66f76b260001681aeb,2023-06-16_11h27.54.385,phx_ver10,2022.2.5,Linux x86_64,60.0060006,,,,,,,,,,,,57,testing_3,zh2j,au,zh2j_au,zh2j_1_auzhau.wav,zh2j_1_auzhau.wav,,TRUE,FALSE,,,,,,,,,,,,,,j,0.3347,space,0.5534,,,,,,,,0,115,115,56,1,,
5c895c66f76b260001681aeb,2023-06-16_11h27.54.385,phx_ver10,2022.2.5,Linux x86_64,60.0060006,,,,,,,,,,,,47,testing_3,zh2sh,i,zh2sh_i,zh2sh_1_izhi.wav,zh2sh_8_ishi.wav,,FALSE,FALSE,,,,,,,,,,,,,,j,0.225,space,0.5182,,,,,,,,0,116,116,46,1,,
5c895c66f76b260001681aeb,2023-06-16_11h27.54.385,phx_ver10,2022.2.5,Linux x86_64,60.0060006,,,,,,,,,,,,7,testing_1,zh2x,e,zh2x_e,zh2x_1_ezhe.wav,zh2x_8_exe.wav,,FALSE,TRUE,,,,,,,,,,,,,,f,0.0858,space,0.5029,,,,,,,,0,117,117,6,1,,
5c895c66f76b260001681aeb,2023-06-16_11h27.54.385,phx_ver10,2022.2.5,Linux x86_64,60.0060006,,,,,,,,,,,,6,testing_1,zh2x,e,zh2x_e,zh2x_8_exe.wav,zh2x_8_exe_copy.wav,,TRUE,TRUE,,,,,,,,,,,,,,f,0.3219,space,0.621,,,,,,,,0,118,118,5,1,,
5c895c66f76b260001681aeb,2023-06-16_11h27.54.385,phx_ver10,2022.2.5,Linux x86_64,60.0060006,,,,,,,,,,,,5,testing_1,zh2x,e,zh2x_e,zh2x_1_ezhe.wav,zh2x_1_ezhe_copy.wav,,TRUE,TRUE,,,,,,,,,,,,,,j,0.2021,space,0.5129,,,,,,,,0,119,119,4,1,,
5c895c66f76b260001681aeb,2023-06-16_11h27.54.385,phx_ver10,2022.2.5,Linux x86_64,60.0060006,,,,,,,,,,,,80,testing_3,j2x,ai,j2x_ai,j2x_8_aixai.wav,j2x_1_aijai.wav,,FALSE,FALSE,,,,,,,,,,,,,,j,0.0229,space,0.2857,,,,,,,,0,120,120,79,1,,
5c895c66f76b260001681aeb,2023-06-16_11h27.54.385,phx_ver10,2022.2.5,Linux x86_64,60.0060006,,,,,,,,,,,,36,testing_3,zh2sh,au,zh2sh_au,zh2sh_8_aushau.wav,zh2sh_1_auzhau.wav,,FALSE,FALSE,,,,,,,,,,,,,,j,0.0842,space,0.4005,,,,,,,,0,121,121,35,1,,
5c895c66f76b260001681aeb,2023-06-16_11h27.54.385,phx_ver10,2022.2.5,Linux x86_64,60.0060006,,,,,,,,,,,,117,testing_3,sh2x,i,sh2x_i,sh2x_1_ishi.wav,sh2x_1_ishi.wav,,TRUE,FALSE,,,,,,,,,,,,,,j,0.0749,space,0.3397,,,,,,,,0,122,122,116,1,,
5c895c66f76b260001681aeb,2023-06-16_11h27.54.385,phx_ver10,2022.2.5,Linux x86_64,60.0060006,,,,,,,,,,,,14,testing_2,zh2x,ai,zh2x_ai,zh2x_8_aixai.wav,zh2x_8_aixai.wav,,TRUE,FALSE,,,,,,,,,,,,,,f,1.2021,space,1.4387,,,,,,,,0,123,123,13,1,,
5c895c66f76b260001681aeb,2023-06-16_11h27.54.385,phx_ver10,2022.2.5,Linux x86_64,60.0060006,,,,,,,,,,,,59,testing_3,zh2j,au,zh2j_au,zh2j_1_auzhau.wav,zh2j_8_aujau.wav,,FALSE,FALSE,,,,,,,,,,,,,,j,0.3443,space,0.6872,,,,,,,,0,124,124,58,1,,
5c895c66f76b260001681aeb,2023-06-16_11h27.54.385,phx_ver10,2022.2.5,Linux x86_64,60.0060006,,,,,,,,,,,,118,testing_3,sh2x,i,sh2x_i,sh2x_8_ixi.wav,sh2x_8_ixi.wav,,TRUE,FALSE,,,,,,,,,,,,,,f,0.3223,space,0.5441,,,,,,,,0,125,125,117,1,,
5c895c66f76b260001681aeb,2023-06-16_11h27.54.385,phx_ver10,2022.2.5,Linux x86_64,60.0060006,,,,,,,,,,,,16,testing_2,zh2x,ai,zh2x_ai,zh2x_8_aixai.wav,zh2x_1_aizhai.wav,,FALSE,FALSE,,,,,,,,,,,,,,j,0.2013,space,0.4928,,,,,,,,0,126,126,15,1,,
5c895c66f76b260001681aeb,2023-06-16_11h27.54.385,phx_ver10,2022.2.5,Linux x86_64,60.0060006,,,,,,,,,,,,142,testing_3,sh2j,i,sh2j_i,sh2j_8_iji.wav,sh2j_8_iji.wav,,TRUE,FALSE,,,,,,,,,,,,,,f,0.0917,space,0.3019,,,,,,,,0,127,127,141,1,,
5c895c66f76b260001681aeb,2023-06-16_11h27.54.385,phx_ver10,2022.2.5,Linux x86_64,60.0060006,,,,,,,,,,,,83,testing_3,j2x,au,j2x_au,j2x_1_aujau.wav,j2x_8_auxau.wav,,FALSE,FALSE,,,,,,,,,,,,,,f,1.3949,space,1.6364,,,,,,,,0,128,128,82,1,,
5c895c66f76b260001681aeb,2023-06-16_11h27.54.385,phx_ver10,2022.2.5,Linux x86_64,60.0060006,,,,,,,,,,,,102,testing_3,sh2x,ai,sh2x_ai,sh2x_8_aixai.wav,sh2x_8_aixai.wav,,TRUE,FALSE,,,,,,,,,,,,,,f,0.7575,space,0.9707,,,,,,,,0,129,129,101,1,,
5c895c66f76b260001681aeb,2023-06-16_11h27.54.385,phx_ver10,2022.2.5,Linux x86_64,60.0060006,,,,,,,,,,,,135,testing_3,sh2j,e,sh2j_e,sh2j_1_eshe.wav,sh2j_8_eje.wav,,FALSE,FALSE,,,,,,,,,,,,,,j,0.0678,space,0.4622,,,,,,,,0,130,130,134,1,,
5c895c66f76b260001681aeb,2023-06-16_11h27.54.385,phx_ver10,2022.2.5,Linux x86_64,60.0060006,,,,,,,,,,,,82,testing_3,j2x,au,j2x_au,j2x_8_auxau.wav,j2x_8_auxau.wav,,TRUE,FALSE,,,,,,,,,,,,,,j,0.5004,space,0.7326,,,,,,,,0,131,131,81,1,,
5c895c66f76b260001681aeb,2023-06-16_11h27.54.385,phx_ver10,2022.2.5,Linux x86_64,60.0060006,,,,,,,,,,,,138,testing_3,sh2j,ei,sh2j_ei,sh2j_8_eijei.wav,sh2j_8_eijei.wav,,TRUE,FALSE,,,,,,,,,,,,,,f,2.1855,space,2.447,,,,,,,,0,132,132,137,1,,
5c895c66f76b260001681aeb,2023-06-16_11h27.54.385,phx_ver10,2022.2.5,Linux x86_64,60.0060006,,,,,,,,,,,,73,testing_3,j2x,a,j2x_a,j2x_1_aja.wav,j2x_1_aja.wav,,TRUE,FALSE,,,,,,,,,,,,,,f,0.2783,space,0.5189,,,,,,,,0,133,133,72,1,,
5c895c66f76b260001681aeb,2023-06-16_11h27.54.385,phx_ver10,2022.2.5,Linux x86_64,60.0060006,,,,,,,,,,,,50,testing_3,zh2j,a,zh2j_a,zh2j_8_aja.wav,zh2j_8_aja.wav,,TRUE,FALSE,,,,,,,,,,,,,,f,0.5369,space,0.7476,,,,,,,,0,134,134,49,1,,
5c895c66f76b260001681aeb,2023-06-16_11h27.54.385,phx_ver10,2022.2.5,Linux x86_64,60.0060006,,,,,,,,,,,,93,testing_3,j2x,i,j2x_i,j2x_1_iji.wav,j2x_1_iji.wav,,TRUE,FALSE,,,,,,,,,,,,,,f,0.2901,space,0.5058,,,,,,,,0,135,135,92,1,,
5c895c66f76b260001681aeb,2023-06-16_11h27.54.385,phx_ver10,2022.2.5,Linux x86_64,60.0060006,,,,,,,,,,,,28,testing_3,zh2sh,a,zh2sh_a,zh2sh_8_asha.wav,zh2sh_1_azha.wav,,FALSE,FALSE,,,,,,,,,,,,,,j,0.3852,space,0.5668,,,,,,,,0,136,136,27,1,,
5c895c66f76b260001681aeb,2023-06-16_11h27.54.385,phx_ver10,2022.2.5,Linux x86_64,60.0060006,,,,,,,,,,,,137,testing_3,sh2j,ei,sh2j_ei,sh2j_1_eishei.wav,sh2j_1_eishei.wav,,TRUE,FALSE,,,,,,,,,,,,,,f,0.5024,space,0.6886,,,,,,,,0,137,137,136,1,,
5c895c66f76b260001681aeb,2023-06-16_11h27.54.385,phx_ver10,2022.2.5,Linux x86_64,60.0060006,,,,,,,,,,,,19,testing_2,zh2x,au,zh2x_au,zh2x_1_auzhau.wav,zh2x_8_auxau.wav,,FALSE,FALSE,,,,,,,,,,,,,,j,0.1607,space,0.3517,,,,,,,,0,138,138,18,1,,
5c895c66f76b260001681aeb,2023-06-16_11h27.54.385,phx_ver10,2022.2.5,Linux x86_64,60.0060006,,,,,,,,,,,,106,testing_3,sh2x,au,sh2x_au,sh2x_8_auxau.wav,sh2x_8_auxau.wav,,TRUE,FALSE,,,,,,,,,,,,,,f,0.4072,space,0.619,,,,,,,,0,139,139,105,1,,
5c895c66f76b260001681aeb,2023-06-16_11h27.54.385,phx_ver10,2022.2.5,Linux x86_64,60.0060006,,,,,,,,,,,,17,testing_2,zh2x,au,zh2x_au,zh2x_1_auzhau.wav,zh2x_1_auzhau.wav,,TRUE,FALSE,,,,,,,,,,,,,,j,0.0012,space,0.2833,,,,,,,,0,140,140,16,1,,
5c895c66f76b260001681aeb,2023-06-16_11h27.54.385,phx_ver10,2022.2.5,Linux x86_64,60.0060006,,,,,,,,,,,,144,testing_3,sh2j,i,sh2j_i,sh2j_8_iji.wav,sh2j_1_ishi.wav,,FALSE,FALSE,,,,,,,,,,,,,,j,0.0955,space,0.2962,,,,,,,,0,141,141,143,1,,
5c895c66f76b260001681aeb,2023-06-16_11h27.54.385,phx_ver10,2022.2.5,Linux x86_64,60.0060006,,,,,,,,,,,,13,testing_2,zh2x,ai,zh2x_ai,zh2x_1_aizhai.wav,zh2x_1_aizhai.wav,,TRUE,FALSE,,,,,,,,,,,,,,f,0.1029,space,0.3031,,,,,,,,0,142,142,12,1,,
5c895c66f76b260001681aeb,2023-06-16_11h27.54.385,phx_ver10,2022.2.5,Linux x86_64,60.0060006,,,,,,,,,,,,56,testing_3,zh2j,ai,zh2j_ai,zh2j_8_aijai.wav,zh2j_1_aizhai.wav,,FALSE,FALSE,,,,,,,,,,,,,,f,0.7502,space,0.9545,,,,,,,,0,143,143,55,1,,
5c895c66f76b260001681aeb,2023-06-16_11h27.54.385,phx_ver10,2022.2.5,Linux x86_64,60.0060006,,,,,,,,,,,,,,,,,,,,,,,,,,,,,,,,,,,,,,,,,,,,,,,,,,,space,2.2983
