participant,date,expName,psychopyVersion,OS,frameRate,space_1.keys,space_1.rt,space_2.keys,space_2.rt,space_train.keys,space_train.rt,training.thisRepN,training.thisTrialN,training.thisN,training.thisIndex,training.ran,token_id,task,continuum,vowel,series,sound_1,sound_2,img,same,trained,FJ_attn.keys,FJ_attn.rt,space_attn.keys,space_attn.rt,if_attn_test.thisRepN,if_attn_test.thisTrialN,if_attn_test.thisN,if_attn_test.thisIndex,if_attn_test.ran,space_trans_1.keys,space_trans_1.rt,space_trans_11.keys,space_trans_11.rt,FJ_test.keys,FJ_test.rt,space_test.keys,space_test.rt,testing_pre.thisRepN,testing_pre.thisTrialN,testing_pre.thisN,testing_pre.thisIndex,testing_pre.ran,space_trans_2.keys,space_trans_2.rt,testing_all.thisRepN,testing_all.thisTrialN,testing_all.thisN,testing_all.thisIndex,testing_all.ran,space_ending.keys,space_ending.rt
5cc82b9ea8367900164d8775,2023-06-16_10h16.22.180,phx_ver10,2022.2.5,Win32,60.09615385,,,,,,,,,,,,,,,,,,,,,,,,,,,,,,,,,,,,,,,,,,,,,,,,,,,,
5cc82b9ea8367900164d8775,2023-06-16_10h16.22.180,phx_ver10,2022.2.5,Win32,60.09615385,space,10.4362,,,,,,,,,,,,,,,,,,,,,,,,,,,,,,,,,,,,,,,,,,,,,,,,,,
5cc82b9ea8367900164d8775,2023-06-16_10h16.22.180,phx_ver10,2022.2.5,Win32,60.09615385,,,space,4.3727,,,,,,,,,,,,,,,,,,,,,,,,,,,,,,,,,,,,,,,,,,,,,,,,
5cc82b9ea8367900164d8775,2023-06-16_10h16.22.180,phx_ver10,2022.2.5,Win32,60.09615385,,,,,space,2.316799999,0,0,0,24,1,25,training,zh2x,e,zh2x_e,zh2x_5_exe.wav,,exe.jpg,,,,,,,,,,,,,,,,,,,,,,,,,,,,,,,,,
5cc82b9ea8367900164d8775,2023-06-16_10h16.22.180,phx_ver10,2022.2.5,Win32,60.09615385,,,,,space,2.0834,0,1,1,37,1,38,training,zh2x,i,zh2x_i,zh2x_3_izhi.wav,,izhi.jpg,,,,,,,,,,,,,,,,,,,,,,,,,,,,,,,,,
5cc82b9ea8367900164d8775,2023-06-16_10h16.22.180,phx_ver10,2022.2.5,Win32,60.09615385,,,,,space,1.4843,0,2,2,28,1,29,training,zh2x,e,zh2x_e,zh2x_7_exe.wav,,exe.jpg,,,,,,,,,,,,,,,,,,,,,,,,,,,,,,,,,
5cc82b9ea8367900164d8775,2023-06-16_10h16.22.180,phx_ver10,2022.2.5,Win32,60.09615385,,,,,space,2.0577,0,3,3,19,1,20,training,zh2x,e,zh2x_e,zh2x_2_ezhe.wav,,ezhe.jpg,,,,,,,,,,,,,,,,,,,,,,,,,,,,,,,,,
5cc82b9ea8367900164d8775,2023-06-16_10h16.22.180,phx_ver10,2022.2.5,Win32,60.09615385,,,,,space,1.183400001,0,4,4,18,1,19,training,zh2x,e,zh2x_e,zh2x_2_ezhe.wav,,ezhe.jpg,,,,,,,,,,,,,,,,,,,,,,,,,,,,,,,,,
5cc82b9ea8367900164d8775,2023-06-16_10h16.22.180,phx_ver10,2022.2.5,Win32,60.09615385,,,,,space,0.9014,0,5,5,27,1,28,training,zh2x,e,zh2x_e,zh2x_7_exe.wav,,exe.jpg,,,,,,,,,,,,,,,,,,,,,,,,,,,,,,,,,
5cc82b9ea8367900164d8775,2023-06-16_10h16.22.180,phx_ver10,2022.2.5,Win32,60.09615385,,,,,,,,,,,,,attn_test,,,,zh2x_8_ixi.wav,zh2x_1_ezhe.wav,ezhe.jpg,RIGHT,,j,2.8154,space,4.2285,0,0,0,0,1,,,,,,,,,,,,,,,,,,,,,,
5cc82b9ea8367900164d8775,2023-06-16_10h16.22.180,phx_ver10,2022.2.5,Win32,60.09615385,,,,,space,1.221799999,0,6,6,21,1,22,training,zh2x,e,zh2x_e,zh2x_3_ezhe.wav,,ezhe.jpg,,,,,,,,,,,,,,,,,,,,,,,,,,,,,,,,,
5cc82b9ea8367900164d8775,2023-06-16_10h16.22.180,phx_ver10,2022.2.5,Win32,60.09615385,,,,,space,0.8339,0,7,7,25,1,26,training,zh2x,e,zh2x_e,zh2x_6_exe.wav,,exe.jpg,,,,,,,,,,,,,,,,,,,,,,,,,,,,,,,,,
5cc82b9ea8367900164d8775,2023-06-16_10h16.22.180,phx_ver10,2022.2.5,Win32,60.09615385,,,,,space,1.139799999,0,8,8,5,1,6,training,zh2x,a,zh2x_a,zh2x_3_azha.wav,,azha.jpg,,,,,,,,,,,,,,,,,,,,,,,,,,,,,,,,,
5cc82b9ea8367900164d8775,2023-06-16_10h16.22.180,phx_ver10,2022.2.5,Win32,60.09615385,,,,,space,0.534,0,9,9,7,1,8,training,zh2x,a,zh2x_a,zh2x_4_azha.wav,,azha.jpg,,,,,,,,,,,,,,,,,,,,,,,,,,,,,,,,,
5cc82b9ea8367900164d8775,2023-06-16_10h16.22.180,phx_ver10,2022.2.5,Win32,60.09615385,,,,,space,0.600799999,0,10,10,30,1,31,training,zh2x,e,zh2x_e,zh2x_7_exe.wav,,exe.jpg,,,,,,,,,,,,,,,,,,,,,,,,,,,,,,,,,
5cc82b9ea8367900164d8775,2023-06-16_10h16.22.180,phx_ver10,2022.2.5,Win32,60.09615385,,,,,space,0.434099999,0,11,11,33,1,34,training,zh2x,i,zh2x_i,zh2x_2_izhi.wav,,izhi.jpg,,,,,,,,,,,,,,,,,,,,,,,,,,,,,,,,,
5cc82b9ea8367900164d8775,2023-06-16_10h16.22.180,phx_ver10,2022.2.5,Win32,60.09615385,,,,,,,,,,,,,attn_test,,,,zh2x_1_azha.wav,zh2x_1_izhi.wav,azha.jpg,LEFT,,f,1.3067,space,2.3008,0,0,0,0,1,,,,,,,,,,,,,,,,,,,,,,
5cc82b9ea8367900164d8775,2023-06-16_10h16.22.180,phx_ver10,2022.2.5,Win32,60.09615385,,,,,space,1.3168,0,12,12,26,1,27,training,zh2x,e,zh2x_e,zh2x_6_exe.wav,,exe.jpg,,,,,,,,,,,,,,,,,,,,,,,,,,,,,,,,,
5cc82b9ea8367900164d8775,2023-06-16_10h16.22.180,phx_ver10,2022.2.5,Win32,60.09615385,,,,,space,0.7506,0,13,13,22,1,23,training,zh2x,e,zh2x_e,zh2x_3_ezhe.wav,,ezhe.jpg,,,,,,,,,,,,,,,,,,,,,,,,,,,,,,,,,
5cc82b9ea8367900164d8775,2023-06-16_10h16.22.180,phx_ver10,2022.2.5,Win32,60.09615385,,,,,space,0.634799999,0,14,14,17,1,18,training,zh2x,e,zh2x_e,zh2x_2_ezhe.wav,,ezhe.jpg,,,,,,,,,,,,,,,,,,,,,,,,,,,,,,,,,
5cc82b9ea8367900164d8775,2023-06-16_10h16.22.180,phx_ver10,2022.2.5,Win32,60.09615385,,,,,space,0.8336,0,15,15,11,1,12,training,zh2x,a,zh2x_a,zh2x_7_axa.wav,,axa.jpg,,,,,,,,,,,,,,,,,,,,,,,,,,,,,,,,,
5cc82b9ea8367900164d8775,2023-06-16_10h16.22.180,phx_ver10,2022.2.5,Win32,60.09615385,,,,,space,0.101599999,0,16,16,9,1,10,training,zh2x,a,zh2x_a,zh2x_6_axa.wav,,axa.jpg,,,,,,,,,,,,,,,,,,,,,,,,,,,,,,,,,
5cc82b9ea8367900164d8775,2023-06-16_10h16.22.180,phx_ver10,2022.2.5,Win32,60.09615385,,,,,space,0.570599999,0,17,17,1,1,2,training,zh2x,a,zh2x_a,zh2x_2_azha.wav,,azha.jpg,,,,,,,,,,,,,,,,,,,,,,,,,,,,,,,,,
5cc82b9ea8367900164d8775,2023-06-16_10h16.22.180,phx_ver10,2022.2.5,Win32,60.09615385,,,,,,,,,,,,,attn_test,,,,zh2x_1_azha.wav,zh2x_8_exe.wav,exe.jpg,RIGHT,,j,1.9007,space,2.8506,0,0,0,0,1,,,,,,,,,,,,,,,,,,,,,,
5cc82b9ea8367900164d8775,2023-06-16_10h16.22.180,phx_ver10,2022.2.5,Win32,60.09615385,,,,,space,0.5672,0,18,18,6,1,7,training,zh2x,a,zh2x_a,zh2x_3_azha.wav,,azha.jpg,,,,,,,,,,,,,,,,,,,,,,,,,,,,,,,,,
5cc82b9ea8367900164d8775,2023-06-16_10h16.22.180,phx_ver10,2022.2.5,Win32,60.09615385,,,,,space,0.502700001,0,19,19,31,1,32,training,zh2x,e,zh2x_e,zh2x_8_exe.wav,,exe.jpg,,,,,,,,,,,,,,,,,,,,,,,,,,,,,,,,,
5cc82b9ea8367900164d8775,2023-06-16_10h16.22.180,phx_ver10,2022.2.5,Win32,60.09615385,,,,,space,0.6682,0,20,20,14,1,15,training,zh2x,a,zh2x_a,zh2x_7_axa.wav,,axa.jpg,,,,,,,,,,,,,,,,,,,,,,,,,,,,,,,,,
5cc82b9ea8367900164d8775,2023-06-16_10h16.22.180,phx_ver10,2022.2.5,Win32,60.09615385,,,,,space,0.2179,0,21,21,13,1,14,training,zh2x,a,zh2x_a,zh2x_7_axa.wav,,axa.jpg,,,,,,,,,,,,,,,,,,,,,,,,,,,,,,,,,
5cc82b9ea8367900164d8775,2023-06-16_10h16.22.180,phx_ver10,2022.2.5,Win32,60.09615385,,,,,space,0.185,0,22,22,0,1,1,training,zh2x,a,zh2x_a,zh2x_1_azha.wav,,azha.jpg,,,,,,,,,,,,,,,,,,,,,,,,,,,,,,,,,
5cc82b9ea8367900164d8775,2023-06-16_10h16.22.180,phx_ver10,2022.2.5,Win32,60.09615385,,,,,space,0.1497,0,23,23,35,1,36,training,zh2x,i,zh2x_i,zh2x_2_izhi.wav,,izhi.jpg,,,,,,,,,,,,,,,,,,,,,,,,,,,,,,,,,
5cc82b9ea8367900164d8775,2023-06-16_10h16.22.180,phx_ver10,2022.2.5,Win32,60.09615385,,,,,,,,,,,,,attn_test,,,,zh2x_1_izhi.wav,zh2x_1_azha.wav,azha.jpg,RIGHT,,j,0.5175,space,1.3568,0,0,0,0,1,,,,,,,,,,,,,,,,,,,,,,
5cc82b9ea8367900164d8775,2023-06-16_10h16.22.180,phx_ver10,2022.2.5,Win32,60.09615385,,,,,space,1.020200001,0,24,24,42,1,43,training,zh2x,i,zh2x_i,zh2x_6_ixi.wav,,ixi.jpg,,,,,,,,,,,,,,,,,,,,,,,,,,,,,,,,,
5cc82b9ea8367900164d8775,2023-06-16_10h16.22.180,phx_ver10,2022.2.5,Win32,60.09615385,,,,,space,0.5455,0,25,25,2,1,3,training,zh2x,a,zh2x_a,zh2x_2_azha.wav,,azha.jpg,,,,,,,,,,,,,,,,,,,,,,,,,,,,,,,,,
5cc82b9ea8367900164d8775,2023-06-16_10h16.22.180,phx_ver10,2022.2.5,Win32,60.09615385,,,,,space,0.5658,0,26,26,44,1,45,training,zh2x,i,zh2x_i,zh2x_7_ixi.wav,,ixi.jpg,,,,,,,,,,,,,,,,,,,,,,,,,,,,,,,,,
5cc82b9ea8367900164d8775,2023-06-16_10h16.22.180,phx_ver10,2022.2.5,Win32,60.09615385,,,,,space,0.74,0,27,27,32,1,33,training,zh2x,i,zh2x_i,zh2x_1_izhi.wav,,izhi.jpg,,,,,,,,,,,,,,,,,,,,,,,,,,,,,,,,,
5cc82b9ea8367900164d8775,2023-06-16_10h16.22.180,phx_ver10,2022.2.5,Win32,60.09615385,,,,,space,0.2016,0,28,28,36,1,37,training,zh2x,i,zh2x_i,zh2x_2_izhi.wav,,izhi.jpg,,,,,,,,,,,,,,,,,,,,,,,,,,,,,,,,,
5cc82b9ea8367900164d8775,2023-06-16_10h16.22.180,phx_ver10,2022.2.5,Win32,60.09615385,,,,,space,0.1012,0,29,29,4,1,5,training,zh2x,a,zh2x_a,zh2x_2_azha.wav,,azha.jpg,,,,,,,,,,,,,,,,,,,,,,,,,,,,,,,,,
5cc82b9ea8367900164d8775,2023-06-16_10h16.22.180,phx_ver10,2022.2.5,Win32,60.09615385,,,,,,,,,,,,,attn_test,,,,zh2x_8_ixi.wav,zh2x_1_ezhe.wav,ixi.jpg,LEFT,,f,0.7182,space,2.3203,0,0,0,0,1,,,,,,,,,,,,,,,,,,,,,,
5cc82b9ea8367900164d8775,2023-06-16_10h16.22.180,phx_ver10,2022.2.5,Win32,60.09615385,,,,,space,0.5525,0,30,30,34,1,35,training,zh2x,i,zh2x_i,zh2x_2_izhi.wav,,izhi.jpg,,,,,,,,,,,,,,,,,,,,,,,,,,,,,,,,,
5cc82b9ea8367900164d8775,2023-06-16_10h16.22.180,phx_ver10,2022.2.5,Win32,60.09615385,,,,,space,0.516900001,0,31,31,20,1,21,training,zh2x,e,zh2x_e,zh2x_2_ezhe.wav,,ezhe.jpg,,,,,,,,,,,,,,,,,,,,,,,,,,,,,,,,,
5cc82b9ea8367900164d8775,2023-06-16_10h16.22.180,phx_ver10,2022.2.5,Win32,60.09615385,,,,,space,0.286,0,32,32,43,1,44,training,zh2x,i,zh2x_i,zh2x_7_ixi.wav,,ixi.jpg,,,,,,,,,,,,,,,,,,,,,,,,,,,,,,,,,
5cc82b9ea8367900164d8775,2023-06-16_10h16.22.180,phx_ver10,2022.2.5,Win32,60.09615385,,,,,space,0.786,0,33,33,47,1,48,training,zh2x,i,zh2x_i,zh2x_8_ixi.wav,,ixi.jpg,,,,,,,,,,,,,,,,,,,,,,,,,,,,,,,,,
5cc82b9ea8367900164d8775,2023-06-16_10h16.22.180,phx_ver10,2022.2.5,Win32,60.09615385,,,,,space,0.2859,0,34,34,12,1,13,training,zh2x,a,zh2x_a,zh2x_7_axa.wav,,axa.jpg,,,,,,,,,,,,,,,,,,,,,,,,,,,,,,,,,
5cc82b9ea8367900164d8775,2023-06-16_10h16.22.180,phx_ver10,2022.2.5,Win32,60.09615385,,,,,space,0.088299999,0,35,35,15,1,16,training,zh2x,a,zh2x_a,zh2x_8_axa.wav,,axa.jpg,,,,,,,,,,,,,,,,,,,,,,,,,,,,,,,,,
5cc82b9ea8367900164d8775,2023-06-16_10h16.22.180,phx_ver10,2022.2.5,Win32,60.09615385,,,,,,,,,,,,,attn_test,,,,zh2x_1_izhi.wav,zh2x_8_axa.wav,axa.jpg,RIGHT,,j,0.401400001,space,1.2835,0,0,0,0,1,,,,,,,,,,,,,,,,,,,,,,
5cc82b9ea8367900164d8775,2023-06-16_10h16.22.180,phx_ver10,2022.2.5,Win32,60.09615385,,,,,space,0.5336,0,36,36,10,1,11,training,zh2x,a,zh2x_a,zh2x_6_axa.wav,,axa.jpg,,,,,,,,,,,,,,,,,,,,,,,,,,,,,,,,,
5cc82b9ea8367900164d8775,2023-06-16_10h16.22.180,phx_ver10,2022.2.5,Win32,60.09615385,,,,,space,0.1703,0,37,37,40,1,41,training,zh2x,i,zh2x_i,zh2x_5_ixi.wav,,ixi.jpg,,,,,,,,,,,,,,,,,,,,,,,,,,,,,,,,,
5cc82b9ea8367900164d8775,2023-06-16_10h16.22.180,phx_ver10,2022.2.5,Win32,60.09615385,,,,,space,0.534400001,0,38,38,23,1,24,training,zh2x,e,zh2x_e,zh2x_4_ezhe.wav,,ezhe.jpg,,,,,,,,,,,,,,,,,,,,,,,,,,,,,,,,,
5cc82b9ea8367900164d8775,2023-06-16_10h16.22.180,phx_ver10,2022.2.5,Win32,60.09615385,,,,,space,0.1374,0,39,39,8,1,9,training,zh2x,a,zh2x_a,zh2x_5_axa.wav,,axa.jpg,,,,,,,,,,,,,,,,,,,,,,,,,,,,,,,,,
5cc82b9ea8367900164d8775,2023-06-16_10h16.22.180,phx_ver10,2022.2.5,Win32,60.09615385,,,,,space,0.768,0,40,40,29,1,30,training,zh2x,e,zh2x_e,zh2x_7_exe.wav,,exe.jpg,,,,,,,,,,,,,,,,,,,,,,,,,,,,,,,,,
5cc82b9ea8367900164d8775,2023-06-16_10h16.22.180,phx_ver10,2022.2.5,Win32,60.09615385,,,,,space,0.1225,0,41,41,3,1,4,training,zh2x,a,zh2x_a,zh2x_2_azha.wav,,azha.jpg,,,,,,,,,,,,,,,,,,,,,,,,,,,,,,,,,
5cc82b9ea8367900164d8775,2023-06-16_10h16.22.180,phx_ver10,2022.2.5,Win32,60.09615385,,,,,,,,,,,,,attn_test,,,,zh2x_8_axa.wav,zh2x_1_ezhe.wav,axa.jpg,LEFT,,f,0.217,space,0.790299999,0,0,0,0,1,,,,,,,,,,,,,,,,,,,,,,
5cc82b9ea8367900164d8775,2023-06-16_10h16.22.180,phx_ver10,2022.2.5,Win32,60.09615385,,,,,space,0.434599999,0,42,42,38,1,39,training,zh2x,i,zh2x_i,zh2x_3_izhi.wav,,izhi.jpg,,,,,,,,,,,,,,,,,,,,,,,,,,,,,,,,,
5cc82b9ea8367900164d8775,2023-06-16_10h16.22.180,phx_ver10,2022.2.5,Win32,60.09615385,,,,,space,0.303599999,0,43,43,39,1,40,training,zh2x,i,zh2x_i,zh2x_4_izhi.wav,,izhi.jpg,,,,,,,,,,,,,,,,,,,,,,,,,,,,,,,,,
5cc82b9ea8367900164d8775,2023-06-16_10h16.22.180,phx_ver10,2022.2.5,Win32,60.09615385,,,,,space,0.798,0,44,44,16,1,17,training,zh2x,e,zh2x_e,zh2x_1_ezhe.wav,,ezhe.jpg,,,,,,,,,,,,,,,,,,,,,,,,,,,,,,,,,
5cc82b9ea8367900164d8775,2023-06-16_10h16.22.180,phx_ver10,2022.2.5,Win32,60.09615385,,,,,space,0.375099999,0,45,45,46,1,47,training,zh2x,i,zh2x_i,zh2x_7_ixi.wav,,ixi.jpg,,,,,,,,,,,,,,,,,,,,,,,,,,,,,,,,,
5cc82b9ea8367900164d8775,2023-06-16_10h16.22.180,phx_ver10,2022.2.5,Win32,60.09615385,,,,,space,0.1515,0,46,46,41,1,42,training,zh2x,i,zh2x_i,zh2x_6_ixi.wav,,ixi.jpg,,,,,,,,,,,,,,,,,,,,,,,,,,,,,,,,,
5cc82b9ea8367900164d8775,2023-06-16_10h16.22.180,phx_ver10,2022.2.5,Win32,60.09615385,,,,,space,1.2841,0,47,47,45,1,46,training,zh2x,i,zh2x_i,zh2x_7_ixi.wav,,ixi.jpg,,,,,,,,,,,,,,,,,,,,,,,,,,,,,,,,,
5cc82b9ea8367900164d8775,2023-06-16_10h16.22.180,phx_ver10,2022.2.5,Win32,60.09615385,,,,,,,,,,,,,attn_test,,,,zh2x_1_izhi.wav,zh2x_8_ixi.wav,ixi.jpg,RIGHT,,j,3.649200001,space,4.3323,,,,,,,,,,,,,,,,,,,,,,,,,,,
5cc82b9ea8367900164d8775,2023-06-16_10h16.22.180,phx_ver10,2022.2.5,Win32,60.09615385,,,,,,,,,,,,,,,,,,,,,,,,,,,,,,,space,1.5803,,,,,,,,,,,,,,,,,,,,
5cc82b9ea8367900164d8775,2023-06-16_10h16.22.180,phx_ver10,2022.2.5,Win32,60.09615385,,,,,,,,,,,,,,,,,,,,,,,,,,,,,,,,,space,7.3705,,,,,,,,,,,,,,,,,,
5cc82b9ea8367900164d8775,2023-06-16_10h16.22.180,phx_ver10,2022.2.5,Win32,60.09615385,,,,,,,,,,,,3,testing_pre,,,,afa.wav,aha.wav,,FALSE,,,,,,,,,,,,,,,j,1.4963,space,2.002099999,0,0,0,2,1,,,,,,,,,
5cc82b9ea8367900164d8775,2023-06-16_10h16.22.180,phx_ver10,2022.2.5,Win32,60.09615385,,,,,,,,,,,,5,testing_pre,,,,ihi.wav,ifi.wav,,FALSE,,,,,,,,,,,,,,,j,1.2547,space,1.966900001,0,1,1,4,1,,,,,,,,,
5cc82b9ea8367900164d8775,2023-06-16_10h16.22.180,phx_ver10,2022.2.5,Win32,60.09615385,,,,,,,,,,,,2,testing_pre,,,,auhau.wav,aufau.wav,,FALSE,,,,,,,,,,,,,,,f,0.600900001,space,1.1379,0,2,2,1,1,,,,,,,,,
5cc82b9ea8367900164d8775,2023-06-16_10h16.22.180,phx_ver10,2022.2.5,Win32,60.09615385,,,,,,,,,,,,1,testing_pre,,,,ifi.wav,ifi.wav,,TRUE,,,,,,,,,,,,,,,f,0.1674,space,0.87,0,3,3,0,1,,,,,,,,,
5cc82b9ea8367900164d8775,2023-06-16_10h16.22.180,phx_ver10,2022.2.5,Win32,60.09615385,,,,,,,,,,,,4,testing_pre,,,,eihei.wav,eihei.wav,,TRUE,,,,,,,,,,,,,,,f,0.1031,space,0.8835,0,4,4,3,1,,,,,,,,,
5cc82b9ea8367900164d8775,2023-06-16_10h16.22.180,phx_ver10,2022.2.5,Win32,60.09615385,,,,,,,,,,,,,,,,,,,,,,,,,,,,,,,,,,,,,,,,,,,,space,1.2353,,,,,,,
5cc82b9ea8367900164d8775,2023-06-16_10h16.22.180,phx_ver10,2022.2.5,Win32,60.09615385,,,,,,,,,,,,107,testing_3,sh2x,au,sh2x_au,sh2x_1_aushau.wav,sh2x_8_auxau.wav,,FALSE,FALSE,,,,,,,,,,,,,,f,0.486700001,space,0.967400001,,,,,,,,0,0,0,106,1,,
5cc82b9ea8367900164d8775,2023-06-16_10h16.22.180,phx_ver10,2022.2.5,Win32,60.09615385,,,,,,,,,,,,76,testing_3,j2x,a,j2x_a,j2x_8_axa.wav,j2x_1_aja.wav,,FALSE,FALSE,,,,,,,,,,,,,,f,1.4729,space,3.0172,,,,,,,,0,1,1,75,1,,
5cc82b9ea8367900164d8775,2023-06-16_10h16.22.180,phx_ver10,2022.2.5,Win32,60.09615385,,,,,,,,,,,,105,testing_3,sh2x,au,sh2x_au,sh2x_1_aushau.wav,sh2x_1_aushau.wav,,TRUE,FALSE,,,,,,,,,,,,,,f,0.1178,space,0.7786,,,,,,,,0,2,2,104,1,,
5cc82b9ea8367900164d8775,2023-06-16_10h16.22.180,phx_ver10,2022.2.5,Win32,60.09615385,,,,,,,,,,,,128,testing_3,sh2j,ai,sh2j_ai,sh2j_8_aijai.wav,sh2j_1_aishai.wav,,FALSE,FALSE,,,,,,,,,,,,,,j,1.7509,space,2.2553,,,,,,,,0,3,3,127,1,,
5cc82b9ea8367900164d8775,2023-06-16_10h16.22.180,phx_ver10,2022.2.5,Win32,60.09615385,,,,,,,,,,,,33,testing_3,zh2sh,au,zh2sh_au,zh2sh_1_auzhau.wav,zh2sh_1_auzhau.wav,,TRUE,FALSE,,,,,,,,,,,,,,f,0.3182,space,0.7343,,,,,,,,0,4,4,32,1,,
5cc82b9ea8367900164d8775,2023-06-16_10h16.22.180,phx_ver10,2022.2.5,Win32,60.09615385,,,,,,,,,,,,29,testing_3,zh2sh,ai,zh2sh_ai,zh2sh_1_aizhai.wav,zh2sh_1_aizhai.wav,,TRUE,FALSE,,,,,,,,,,,,,,j,0.6839,space,1.2004,,,,,,,,0,5,5,28,1,,
5cc82b9ea8367900164d8775,2023-06-16_10h16.22.180,phx_ver10,2022.2.5,Win32,60.09615385,,,,,,,,,,,,75,testing_3,j2x,a,j2x_a,j2x_1_aja.wav,j2x_8_axa.wav,,FALSE,FALSE,,,,,,,,,,,,,,j,2.6548,space,3.086400001,,,,,,,,0,6,6,74,1,,
5cc82b9ea8367900164d8775,2023-06-16_10h16.22.180,phx_ver10,2022.2.5,Win32,60.09615385,,,,,,,,,,,,83,testing_3,j2x,au,j2x_au,j2x_1_aujau.wav,j2x_8_auxau.wav,,FALSE,FALSE,,,,,,,,,,,,,,f,0.9594,space,1.3839,,,,,,,,0,7,7,82,1,,
5cc82b9ea8367900164d8775,2023-06-16_10h16.22.180,phx_ver10,2022.2.5,Win32,60.09615385,,,,,,,,,,,,132,testing_3,sh2j,au,sh2j_au,sh2j_8_aujau.wav,sh2j_1_aushau.wav,,FALSE,FALSE,,,,,,,,,,,,,,j,2.2508,space,3.466,,,,,,,,0,8,8,131,1,,
5cc82b9ea8367900164d8775,2023-06-16_10h16.22.180,phx_ver10,2022.2.5,Win32,60.09615385,,,,,,,,,,,,24,testing_2,zh2x,ei,zh2x_ei,zh2x_8_eixei.wav,zh2x_1_eizhei.wav,,FALSE,FALSE,,,,,,,,,,,,,,f,0.6005,space,1.083799999,,,,,,,,0,9,9,23,1,,
5cc82b9ea8367900164d8775,2023-06-16_10h16.22.180,phx_ver10,2022.2.5,Win32,60.09615385,,,,,,,,,,,,18,testing_2,zh2x,au,zh2x_au,zh2x_8_auxau.wav,zh2x_8_auxau.wav,,TRUE,FALSE,,,,,,,,,,,,,,f,0.650400001,space,0.9713,,,,,,,,0,10,10,17,1,,
5cc82b9ea8367900164d8775,2023-06-16_10h16.22.180,phx_ver10,2022.2.5,Win32,60.09615385,,,,,,,,,,,,118,testing_3,sh2x,i,sh2x_i,sh2x_8_ixi.wav,sh2x_8_ixi.wav,,TRUE,FALSE,,,,,,,,,,,,,,j,1.9175,space,2.338700001,,,,,,,,0,11,11,117,1,,
5cc82b9ea8367900164d8775,2023-06-16_10h16.22.180,phx_ver10,2022.2.5,Win32,60.09615385,,,,,,,,,,,,124,testing_3,sh2j,a,sh2j_a,sh2j_8_aja.wav,sh2j_1_asha.wav,,FALSE,FALSE,,,,,,,,,,,,,,j,0.9843,space,1.4565,,,,,,,,0,12,12,123,1,,
5cc82b9ea8367900164d8775,2023-06-16_10h16.22.180,phx_ver10,2022.2.5,Win32,60.09615385,,,,,,,,,,,,138,testing_3,sh2j,ei,sh2j_ei,sh2j_8_eijei.wav,sh2j_8_eijei.wav,,TRUE,FALSE,,,,,,,,,,,,,,f,0.369,space,0.9168,,,,,,,,0,13,13,137,1,,
5cc82b9ea8367900164d8775,2023-06-16_10h16.22.180,phx_ver10,2022.2.5,Win32,60.09615385,,,,,,,,,,,,114,testing_3,sh2x,ei,sh2x_ei,sh2x_8_eixei.wav,sh2x_8_eixei.wav,,TRUE,FALSE,,,,,,,,,,,,,,f,0.0839,space,0.6002,,,,,,,,0,14,14,113,1,,
5cc82b9ea8367900164d8775,2023-06-16_10h16.22.180,phx_ver10,2022.2.5,Win32,60.09615385,,,,,,,,,,,,15,testing_2,zh2x,ai,zh2x_ai,zh2x_1_aizhai.wav,zh2x_8_aixai.wav,,FALSE,FALSE,,,,,,,,,,,,,,f,1.7685,space,2.4162,,,,,,,,0,15,15,14,1,,
5cc82b9ea8367900164d8775,2023-06-16_10h16.22.180,phx_ver10,2022.2.5,Win32,60.09615385,,,,,,,,,,,,41,testing_3,zh2sh,ei,zh2sh_ei,zh2sh_1_eizhei.wav,zh2sh_1_eizhei.wav,,TRUE,FALSE,,,,,,,,,,,,,,f,0.201,space,0.800900001,,,,,,,,0,16,16,40,1,,
5cc82b9ea8367900164d8775,2023-06-16_10h16.22.180,phx_ver10,2022.2.5,Win32,60.09615385,,,,,,,,,,,,72,testing_3,zh2j,i,zh2j_i,zh2j_8_iji.wav,zh2j_1_izhi.wav,,FALSE,FALSE,,,,,,,,,,,,,,f,0.1366,space,0.8351,,,,,,,,0,17,17,71,1,,
5cc82b9ea8367900164d8775,2023-06-16_10h16.22.180,phx_ver10,2022.2.5,Win32,60.09615385,,,,,,,,,,,,65,testing_3,zh2j,ei,zh2j_ei,zh2j_1_eizhei.wav,zh2j_1_eizhei.wav,,TRUE,FALSE,,,,,,,,,,,,,,f,0.3679,space,1.766900001,,,,,,,,0,18,18,64,1,,
5cc82b9ea8367900164d8775,2023-06-16_10h16.22.180,phx_ver10,2022.2.5,Win32,60.09615385,,,,,,,,,,,,96,testing_3,j2x,i,j2x_i,j2x_8_ixi.wav,j2x_1_iji.wav,,FALSE,FALSE,,,,,,,,,,,,,,j,0.6877,space,1.3876,,,,,,,,0,19,19,95,1,,
5cc82b9ea8367900164d8775,2023-06-16_10h16.22.180,phx_ver10,2022.2.5,Win32,60.09615385,,,,,,,,,,,,69,testing_3,zh2j,i,zh2j_i,zh2j_1_izhi.wav,zh2j_1_izhi.wav,,TRUE,FALSE,,,,,,,,,,,,,,f,1.3343,space,1.8002,,,,,,,,0,20,20,68,1,,
5cc82b9ea8367900164d8775,2023-06-16_10h16.22.180,phx_ver10,2022.2.5,Win32,60.09615385,,,,,,,,,,,,84,testing_3,j2x,au,j2x_au,j2x_8_auxau.wav,j2x_1_aujau.wav,,FALSE,FALSE,,,,,,,,,,,,,,f,0.8342,space,1.517299999,,,,,,,,0,21,21,83,1,,
5cc82b9ea8367900164d8775,2023-06-16_10h16.22.180,phx_ver10,2022.2.5,Win32,60.09615385,,,,,,,,,,,,11,testing_1,zh2x,i,zh2x_i,zh2x_1_izhi.wav,zh2x_8_ixi.wav,,FALSE,TRUE,,,,,,,,,,,,,,f,1.0065,space,1.5659,,,,,,,,0,22,22,10,1,,
5cc82b9ea8367900164d8775,2023-06-16_10h16.22.180,phx_ver10,2022.2.5,Win32,60.09615385,,,,,,,,,,,,101,testing_3,sh2x,ai,sh2x_ai,sh2x_1_aishai.wav,sh2x_1_aishai.wav,,TRUE,FALSE,,,,,,,,,,,,,,f,0.0907,space,0.821700001,,,,,,,,0,23,23,100,1,,
5cc82b9ea8367900164d8775,2023-06-16_10h16.22.180,phx_ver10,2022.2.5,Win32,60.09615385,,,,,,,,,,,,49,testing_3,zh2j,a,zh2j_a,zh2j_1_azha.wav,zh2j_1_azha.wav,,TRUE,FALSE,,,,,,,,,,,,,,f,0.1289,space,0.7342,,,,,,,,0,24,24,48,1,,
5cc82b9ea8367900164d8775,2023-06-16_10h16.22.180,phx_ver10,2022.2.5,Win32,60.09615385,,,,,,,,,,,,31,testing_3,zh2sh,ai,zh2sh_ai,zh2sh_1_aizhai.wav,zh2sh_8_aishai.wav,,FALSE,FALSE,,,,,,,,,,,,,,j,0.576299999,space,1.1237,,,,,,,,0,25,25,30,1,,
5cc82b9ea8367900164d8775,2023-06-16_10h16.22.180,phx_ver10,2022.2.5,Win32,60.09615385,,,,,,,,,,,,23,testing_2,zh2x,ei,zh2x_ei,zh2x_1_eizhei.wav,zh2x_8_eixei.wav,,FALSE,FALSE,,,,,,,,,,,,,,j,0.354200001,space,1.053900001,,,,,,,,0,26,26,22,1,,
5cc82b9ea8367900164d8775,2023-06-16_10h16.22.180,phx_ver10,2022.2.5,Win32,60.09615385,,,,,,,,,,,,111,testing_3,sh2x,e,sh2x_e,sh2x_1_eshe.wav,sh2x_8_exe.wav,,FALSE,FALSE,,,,,,,,,,,,,,j,0.651099999,space,1.1503,,,,,,,,0,27,27,110,1,,
5cc82b9ea8367900164d8775,2023-06-16_10h16.22.180,phx_ver10,2022.2.5,Win32,60.09615385,,,,,,,,,,,,32,testing_3,zh2sh,ai,zh2sh_ai,zh2sh_8_aishai.wav,zh2sh_1_aizhai.wav,,FALSE,FALSE,,,,,,,,,,,,,,j,0.288799999,space,0.8687,,,,,,,,0,28,28,31,1,,
5cc82b9ea8367900164d8775,2023-06-16_10h16.22.180,phx_ver10,2022.2.5,Win32,60.09615385,,,,,,,,,,,,38,testing_3,zh2sh,e,zh2sh_e,zh2sh_8_eshe.wav,zh2sh_8_eshe.wav,,TRUE,FALSE,,,,,,,,,,,,,,f,0.151299999,space,0.656900001,,,,,,,,0,29,29,37,1,,
5cc82b9ea8367900164d8775,2023-06-16_10h16.22.180,phx_ver10,2022.2.5,Win32,60.09615385,,,,,,,,,,,,116,testing_3,sh2x,ei,sh2x_ei,sh2x_8_eixei.wav,sh2x_1_eishei.wav,,FALSE,FALSE,,,,,,,,,,,,,,f,0.7021,space,1.1677,,,,,,,,0,30,30,115,1,,
5cc82b9ea8367900164d8775,2023-06-16_10h16.22.180,phx_ver10,2022.2.5,Win32,60.09615385,,,,,,,,,,,,48,testing_3,zh2sh,i,zh2sh_i,zh2sh_8_ishi.wav,zh2sh_1_izhi.wav,,FALSE,FALSE,,,,,,,,,,,,,,j,0.3683,space,0.955400001,,,,,,,,0,31,31,47,1,,
5cc82b9ea8367900164d8775,2023-06-16_10h16.22.180,phx_ver10,2022.2.5,Win32,60.09615385,,,,,,,,,,,,106,testing_3,sh2x,au,sh2x_au,sh2x_8_auxau.wav,sh2x_8_auxau.wav,,TRUE,FALSE,,,,,,,,,,,,,,f,0.0698,space,0.7339,,,,,,,,0,32,32,105,1,,
5cc82b9ea8367900164d8775,2023-06-16_10h16.22.180,phx_ver10,2022.2.5,Win32,60.09615385,,,,,,,,,,,,21,testing_2,zh2x,ei,zh2x_ei,zh2x_1_eizhei.wav,zh2x_1_eizhei.wav,,TRUE,FALSE,,,,,,,,,,,,,,f,0.178400001,space,0.8502,,,,,,,,0,33,33,20,1,,
5cc82b9ea8367900164d8775,2023-06-16_10h16.22.180,phx_ver10,2022.2.5,Win32,60.09615385,,,,,,,,,,,,112,testing_3,sh2x,e,sh2x_e,sh2x_8_exe.wav,sh2x_1_eshe.wav,,FALSE,FALSE,,,,,,,,,,,,,,f,0.571900001,space,1.0038,,,,,,,,0,34,34,111,1,,
5cc82b9ea8367900164d8775,2023-06-16_10h16.22.180,phx_ver10,2022.2.5,Win32,60.09615385,,,,,,,,,,,,126,testing_3,sh2j,ai,sh2j_ai,sh2j_8_aijai.wav,sh2j_8_aijai.wav,,TRUE,FALSE,,,,,,,,,,,,,,j,1.0341,space,1.7002,,,,,,,,0,35,35,125,1,,
5cc82b9ea8367900164d8775,2023-06-16_10h16.22.180,phx_ver10,2022.2.5,Win32,60.09615385,,,,,,,,,,,,9,testing_1,zh2x,i,zh2x_i,zh2x_1_izhi.wav,zh2x_1_izhi_copy.wav,,TRUE,TRUE,,,,,,,,,,,,,,f,0.1379,space,0.8032,,,,,,,,0,36,36,8,1,,
5cc82b9ea8367900164d8775,2023-06-16_10h16.22.180,phx_ver10,2022.2.5,Win32,60.09615385,,,,,,,,,,,,115,testing_3,sh2x,ei,sh2x_ei,sh2x_1_eishei.wav,sh2x_8_eixei.wav,,FALSE,FALSE,,,,,,,,,,,,,,f,0.4043,space,1.100299999,,,,,,,,0,37,37,114,1,,
5cc82b9ea8367900164d8775,2023-06-16_10h16.22.180,phx_ver10,2022.2.5,Win32,60.09615385,,,,,,,,,,,,140,testing_3,sh2j,ei,sh2j_ei,sh2j_8_eijei.wav,sh2j_1_eishei.wav,,FALSE,FALSE,,,,,,,,,,,,,,j,0.418599999,space,0.9351,,,,,,,,0,38,38,139,1,,
5cc82b9ea8367900164d8775,2023-06-16_10h16.22.180,phx_ver10,2022.2.5,Win32,60.09615385,,,,,,,,,,,,91,testing_3,j2x,ei,j2x_ei,j2x_1_eijei.wav,j2x_8_eixei.wav,,FALSE,FALSE,,,,,,,,,,,,,,j,0.2685,space,0.739700001,,,,,,,,0,39,39,90,1,,
5cc82b9ea8367900164d8775,2023-06-16_10h16.22.180,phx_ver10,2022.2.5,Win32,60.09615385,,,,,,,,,,,,89,testing_3,j2x,ei,j2x_ei,j2x_1_eijei.wav,j2x_1_eijei.wav,,TRUE,FALSE,,,,,,,,,,,,,,f,0.217900001,space,0.7343,,,,,,,,0,40,40,88,1,,
5cc82b9ea8367900164d8775,2023-06-16_10h16.22.180,phx_ver10,2022.2.5,Win32,60.09615385,,,,,,,,,,,,43,testing_3,zh2sh,ei,zh2sh_ei,zh2sh_1_eizhei.wav,zh2sh_8_eishei.wav,,FALSE,FALSE,,,,,,,,,,,,,,j,0.1015,space,0.5843,,,,,,,,0,41,41,42,1,,
5cc82b9ea8367900164d8775,2023-06-16_10h16.22.180,phx_ver10,2022.2.5,Win32,60.09615385,,,,,,,,,,,,108,testing_3,sh2x,au,sh2x_au,sh2x_8_auxau.wav,sh2x_1_aushau.wav,,FALSE,FALSE,,,,,,,,,,,,,,f,0.2333,space,0.7279,,,,,,,,0,42,42,107,1,,
5cc82b9ea8367900164d8775,2023-06-16_10h16.22.180,phx_ver10,2022.2.5,Win32,60.09615385,,,,,,,,,,,,127,testing_3,sh2j,ai,sh2j_ai,sh2j_1_aishai.wav,sh2j_8_aijai.wav,,FALSE,FALSE,,,,,,,,,,,,,,j,0.401099999,space,0.8352,,,,,,,,0,43,43,126,1,,
5cc82b9ea8367900164d8775,2023-06-16_10h16.22.180,phx_ver10,2022.2.5,Win32,60.09615385,,,,,,,,,,,,2,testing_1,zh2x,a,zh2x_a,zh2x_8_axa.wav,zh2x_8_axa_copy.wav,,TRUE,TRUE,,,,,,,,,,,,,,f,0.128400001,space,0.7901,,,,,,,,0,44,44,1,1,,
5cc82b9ea8367900164d8775,2023-06-16_10h16.22.180,phx_ver10,2022.2.5,Win32,60.09615385,,,,,,,,,,,,110,testing_3,sh2x,e,sh2x_e,sh2x_8_exe.wav,sh2x_8_exe.wav,,TRUE,FALSE,,,,,,,,,,,,,,f,0.0344,space,0.7071,,,,,,,,0,45,45,109,1,,
5cc82b9ea8367900164d8775,2023-06-16_10h16.22.180,phx_ver10,2022.2.5,Win32,60.09615385,,,,,,,,,,,,80,testing_3,j2x,ai,j2x_ai,j2x_8_aixai.wav,j2x_1_aijai.wav,,FALSE,FALSE,,,,,,,,,,,,,,j,0.5015,space,0.9359,,,,,,,,0,46,46,79,1,,
5cc82b9ea8367900164d8775,2023-06-16_10h16.22.180,phx_ver10,2022.2.5,Win32,60.09615385,,,,,,,,,,,,36,testing_3,zh2sh,au,zh2sh_au,zh2sh_8_aushau.wav,zh2sh_1_auzhau.wav,,FALSE,FALSE,,,,,,,,,,,,,,j,0.1623,space,0.6679,,,,,,,,0,47,47,35,1,,
5cc82b9ea8367900164d8775,2023-06-16_10h16.22.180,phx_ver10,2022.2.5,Win32,60.09615385,,,,,,,,,,,,42,testing_3,zh2sh,ei,zh2sh_ei,zh2sh_8_eishei.wav,zh2sh_8_eishei.wav,,TRUE,FALSE,,,,,,,,,,,,,,f,0.2852,space,0.7742,,,,,,,,0,48,48,41,1,,
5cc82b9ea8367900164d8775,2023-06-16_10h16.22.180,phx_ver10,2022.2.5,Win32,60.09615385,,,,,,,,,,,,66,testing_3,zh2j,ei,zh2j_ei,zh2j_8_eijei.wav,zh2j_8_eijei.wav,,TRUE,FALSE,,,,,,,,,,,,,,f,0.7348,space,1.1004,,,,,,,,0,49,49,65,1,,
5cc82b9ea8367900164d8775,2023-06-16_10h16.22.180,phx_ver10,2022.2.5,Win32,60.09615385,,,,,,,,,,,,40,testing_3,zh2sh,e,zh2sh_e,zh2sh_8_eshe.wav,zh2sh_1_ezhe.wav,,FALSE,FALSE,,,,,,,,,,,,,,j,0.5101,space,1.0672,,,,,,,,0,50,50,39,1,,
5cc82b9ea8367900164d8775,2023-06-16_10h16.22.180,phx_ver10,2022.2.5,Win32,60.09615385,,,,,,,,,,,,34,testing_3,zh2sh,au,zh2sh_au,zh2sh_8_aushau.wav,zh2sh_8_aushau.wav,,TRUE,FALSE,,,,,,,,,,,,,,f,0.1855,space,0.9383,,,,,,,,0,51,51,33,1,,
5cc82b9ea8367900164d8775,2023-06-16_10h16.22.180,phx_ver10,2022.2.5,Win32,60.09615385,,,,,,,,,,,,30,testing_3,zh2sh,ai,zh2sh_ai,zh2sh_8_aishai.wav,zh2sh_8_aishai.wav,,TRUE,FALSE,,,,,,,,,,,,,,f,0.200900001,space,0.6675,,,,,,,,0,52,52,29,1,,
5cc82b9ea8367900164d8775,2023-06-16_10h16.22.180,phx_ver10,2022.2.5,Win32,60.09615385,,,,,,,,,,,,100,testing_3,sh2x,a,sh2x_a,sh2x_8_axa.wav,sh2x_1_asha.wav,,FALSE,FALSE,,,,,,,,,,,,,,f,0.1233,space,0.5942,,,,,,,,0,53,53,99,1,,
5cc82b9ea8367900164d8775,2023-06-16_10h16.22.180,phx_ver10,2022.2.5,Win32,60.09615385,,,,,,,,,,,,54,testing_3,zh2j,ai,zh2j_ai,zh2j_8_aijai.wav,zh2j_8_aijai.wav,,TRUE,FALSE,,,,,,,,,,,,,,f,0.138099999,space,0.6359,,,,,,,,0,54,54,53,1,,
5cc82b9ea8367900164d8775,2023-06-16_10h16.22.180,phx_ver10,2022.2.5,Win32,60.09615385,,,,,,,,,,,,71,testing_3,zh2j,i,zh2j_i,zh2j_1_izhi.wav,zh2j_8_iji.wav,,FALSE,FALSE,,,,,,,,,,,,,,f,0.141400001,space,1.0613,,,,,,,,0,55,55,70,1,,
5cc82b9ea8367900164d8775,2023-06-16_10h16.22.180,phx_ver10,2022.2.5,Win32,60.09615385,,,,,,,,,,,,17,testing_2,zh2x,au,zh2x_au,zh2x_1_auzhau.wav,zh2x_1_auzhau.wav,,TRUE,FALSE,,,,,,,,,,,,,,f,0.0567,space,0.599599999,,,,,,,,0,56,56,16,1,,
5cc82b9ea8367900164d8775,2023-06-16_10h16.22.180,phx_ver10,2022.2.5,Win32,60.09615385,,,,,,,,,,,,103,testing_3,sh2x,ai,sh2x_ai,sh2x_1_aishai.wav,sh2x_8_aixai.wav,,FALSE,FALSE,,,,,,,,,,,,,,f,1.238,space,1.833400001,,,,,,,,0,57,57,102,1,,
5cc82b9ea8367900164d8775,2023-06-16_10h16.22.180,phx_ver10,2022.2.5,Win32,60.09615385,,,,,,,,,,,,93,testing_3,j2x,i,j2x_i,j2x_1_iji.wav,j2x_1_iji.wav,,TRUE,FALSE,,,,,,,,,,,,,,f,0.250900001,space,0.8671,,,,,,,,0,58,58,92,1,,
5cc82b9ea8367900164d8775,2023-06-16_10h16.22.180,phx_ver10,2022.2.5,Win32,60.09615385,,,,,,,,,,,,122,testing_3,sh2j,a,sh2j_a,sh2j_8_aja.wav,sh2j_8_aja.wav,,TRUE,FALSE,,,,,,,,,,,,,,f,0.3172,space,1.218,,,,,,,,0,59,59,121,1,,
5cc82b9ea8367900164d8775,2023-06-16_10h16.22.180,phx_ver10,2022.2.5,Win32,60.09615385,,,,,,,,,,,,37,testing_3,zh2sh,e,zh2sh_e,zh2sh_1_ezhe.wav,zh2sh_1_ezhe.wav,,TRUE,FALSE,,,,,,,,,,,,,,f,0.3839,space,1.051,,,,,,,,0,60,60,36,1,,
5cc82b9ea8367900164d8775,2023-06-16_10h16.22.180,phx_ver10,2022.2.5,Win32,60.09615385,,,,,,,,,,,,16,testing_2,zh2x,ai,zh2x_ai,zh2x_8_aixai.wav,zh2x_1_aizhai.wav,,FALSE,FALSE,,,,,,,,,,,,,,j,0.2463,space,0.7671,,,,,,,,0,61,61,15,1,,
5cc82b9ea8367900164d8775,2023-06-16_10h16.22.180,phx_ver10,2022.2.5,Win32,60.09615385,,,,,,,,,,,,19,testing_2,zh2x,au,zh2x_au,zh2x_1_auzhau.wav,zh2x_8_auxau.wav,,FALSE,FALSE,,,,,,,,,,,,,,j,0.183700001,space,0.721200001,,,,,,,,0,62,62,18,1,,
5cc82b9ea8367900164d8775,2023-06-16_10h16.22.180,phx_ver10,2022.2.5,Win32,60.09615385,,,,,,,,,,,,119,testing_3,sh2x,i,sh2x_i,sh2x_1_ishi.wav,sh2x_8_ixi.wav,,FALSE,FALSE,,,,,,,,,,,,,,f,0.1516,space,0.644700001,,,,,,,,0,63,63,118,1,,
5cc82b9ea8367900164d8775,2023-06-16_10h16.22.180,phx_ver10,2022.2.5,Win32,60.09615385,,,,,,,,,,,,95,testing_3,j2x,i,j2x_i,j2x_1_iji.wav,j2x_8_ixi.wav,,FALSE,FALSE,,,,,,,,,,,,,,j,0.250599999,space,0.6845,,,,,,,,0,64,64,94,1,,
5cc82b9ea8367900164d8775,2023-06-16_10h16.22.180,phx_ver10,2022.2.5,Win32,60.09615385,,,,,,,,,,,,6,testing_1,zh2x,e,zh2x_e,zh2x_8_exe.wav,zh2x_8_exe_copy.wav,,TRUE,TRUE,,,,,,,,,,,,,,f,0.6507,space,1.0347,,,,,,,,0,65,65,5,1,,
5cc82b9ea8367900164d8775,2023-06-16_10h16.22.180,phx_ver10,2022.2.5,Win32,60.09615385,,,,,,,,,,,,44,testing_3,zh2sh,ei,zh2sh_ei,zh2sh_8_eishei.wav,zh2sh_1_eizhei.wav,,FALSE,FALSE,,,,,,,,,,,,,,j,0.3507,space,0.7691,,,,,,,,0,66,66,43,1,,
5cc82b9ea8367900164d8775,2023-06-16_10h16.22.180,phx_ver10,2022.2.5,Win32,60.09615385,,,,,,,,,,,,104,testing_3,sh2x,ai,sh2x_ai,sh2x_8_aixai.wav,sh2x_1_aishai.wav,,FALSE,FALSE,,,,,,,,,,,,,,f,0.5519,space,0.934599999,,,,,,,,0,67,67,103,1,,
5cc82b9ea8367900164d8775,2023-06-16_10h16.22.180,phx_ver10,2022.2.5,Win32,60.09615385,,,,,,,,,,,,22,testing_2,zh2x,ei,zh2x_ei,zh2x_8_eixei.wav,zh2x_8_eixei.wav,,TRUE,FALSE,,,,,,,,,,,,,,f,0.1177,space,0.911,,,,,,,,0,68,68,21,1,,
5cc82b9ea8367900164d8775,2023-06-16_10h16.22.180,phx_ver10,2022.2.5,Win32,60.09615385,,,,,,,,,,,,53,testing_3,zh2j,ai,zh2j_ai,zh2j_1_aizhai.wav,zh2j_1_aizhai.wav,,TRUE,FALSE,,,,,,,,,,,,,,f,0.1522,space,0.844,,,,,,,,0,69,69,52,1,,
5cc82b9ea8367900164d8775,2023-06-16_10h16.22.180,phx_ver10,2022.2.5,Win32,60.09615385,,,,,,,,,,,,82,testing_3,j2x,au,j2x_au,j2x_8_auxau.wav,j2x_8_auxau.wav,,TRUE,FALSE,,,,,,,,,,,,,,f,0.2176,space,0.8023,,,,,,,,0,70,70,81,1,,
5cc82b9ea8367900164d8775,2023-06-16_10h16.22.180,phx_ver10,2022.2.5,Win32,60.09615385,,,,,,,,,,,,109,testing_3,sh2x,e,sh2x_e,sh2x_1_eshe.wav,sh2x_1_eshe.wav,,TRUE,FALSE,,,,,,,,,,,,,,f,0.0615,space,0.6517,,,,,,,,0,71,71,108,1,,
5cc82b9ea8367900164d8775,2023-06-16_10h16.22.180,phx_ver10,2022.2.5,Win32,60.09615385,,,,,,,,,,,,87,testing_3,j2x,e,j2x_e,j2x_1_eje.wav,j2x_8_exe.wav,,FALSE,FALSE,,,,,,,,,,,,,,j,1.8612,space,2.373,,,,,,,,0,72,72,86,1,,
5cc82b9ea8367900164d8775,2023-06-16_10h16.22.180,phx_ver10,2022.2.5,Win32,60.09615385,,,,,,,,,,,,26,testing_3,zh2sh,a,zh2sh_a,zh2sh_8_asha.wav,zh2sh_8_asha.wav,,TRUE,FALSE,,,,,,,,,,,,,,f,0.051200001,space,0.7912,,,,,,,,0,73,73,25,1,,
5cc82b9ea8367900164d8775,2023-06-16_10h16.22.180,phx_ver10,2022.2.5,Win32,60.09615385,,,,,,,,,,,,81,testing_3,j2x,au,j2x_au,j2x_1_aujau.wav,j2x_1_aujau.wav,,TRUE,FALSE,,,,,,,,,,,,,,f,0.6117,space,0.972099999,,,,,,,,0,74,74,80,1,,
5cc82b9ea8367900164d8775,2023-06-16_10h16.22.180,phx_ver10,2022.2.5,Win32,60.09615385,,,,,,,,,,,,25,testing_3,zh2sh,a,zh2sh_a,zh2sh_1_azha.wav,zh2sh_1_azha.wav,,TRUE,FALSE,,,,,,,,,,,,,,f,0.6014,space,1.5839,,,,,,,,0,75,75,24,1,,
5cc82b9ea8367900164d8775,2023-06-16_10h16.22.180,phx_ver10,2022.2.5,Win32,60.09615385,,,,,,,,,,,,58,testing_3,zh2j,au,zh2j_au,zh2j_8_aujau.wav,zh2j_8_aujau.wav,,TRUE,FALSE,,,,,,,,,,,,,,f,0.668,space,1.316700001,,,,,,,,0,76,76,57,1,,
5cc82b9ea8367900164d8775,2023-06-16_10h16.22.180,phx_ver10,2022.2.5,Win32,60.09615385,,,,,,,,,,,,125,testing_3,sh2j,ai,sh2j_ai,sh2j_1_aishai.wav,sh2j_1_aishai.wav,,TRUE,FALSE,,,,,,,,,,,,,,f,0.633599999,space,1.339200001,,,,,,,,0,77,77,124,1,,
5cc82b9ea8367900164d8775,2023-06-16_10h16.22.180,phx_ver10,2022.2.5,Win32,60.09615385,,,,,,,,,,,,10,testing_1,zh2x,i,zh2x_i,zh2x_8_ixi.wav,zh2x_8_ixi_copy.wav,,TRUE,TRUE,,,,,,,,,,,,,,f,0.17,space,0.8367,,,,,,,,0,78,78,9,1,,
5cc82b9ea8367900164d8775,2023-06-16_10h16.22.180,phx_ver10,2022.2.5,Win32,60.09615385,,,,,,,,,,,,121,testing_3,sh2j,a,sh2j_a,sh2j_1_asha.wav,sh2j_1_asha.wav,,TRUE,FALSE,,,,,,,,,,,,,,f,0.1679,space,0.7502,,,,,,,,0,79,79,120,1,,
5cc82b9ea8367900164d8775,2023-06-16_10h16.22.180,phx_ver10,2022.2.5,Win32,60.09615385,,,,,,,,,,,,123,testing_3,sh2j,a,sh2j_a,sh2j_1_asha.wav,sh2j_8_aja.wav,,FALSE,FALSE,,,,,,,,,,,,,,j,0.417400001,space,0.992900001,,,,,,,,0,80,80,122,1,,
5cc82b9ea8367900164d8775,2023-06-16_10h16.22.180,phx_ver10,2022.2.5,Win32,60.09615385,,,,,,,,,,,,137,testing_3,sh2j,ei,sh2j_ei,sh2j_1_eishei.wav,sh2j_1_eishei.wav,,TRUE,FALSE,,,,,,,,,,,,,,f,0.121900001,space,0.867400001,,,,,,,,0,81,81,136,1,,
5cc82b9ea8367900164d8775,2023-06-16_10h16.22.180,phx_ver10,2022.2.5,Win32,60.09615385,,,,,,,,,,,,74,testing_3,j2x,a,j2x_a,j2x_8_axa.wav,j2x_8_axa.wav,,TRUE,FALSE,,,,,,,,,,,,,,f,0.117900001,space,0.6413,,,,,,,,0,82,82,73,1,,
5cc82b9ea8367900164d8775,2023-06-16_10h16.22.180,phx_ver10,2022.2.5,Win32,60.09615385,,,,,,,,,,,,8,testing_1,zh2x,e,zh2x_e,zh2x_8_exe.wav,zh2x_1_ezhe.wav,,FALSE,TRUE,,,,,,,,,,,,,,f,0.151200001,space,0.771,,,,,,,,0,83,83,7,1,,
5cc82b9ea8367900164d8775,2023-06-16_10h16.22.180,phx_ver10,2022.2.5,Win32,60.09615385,,,,,,,,,,,,131,testing_3,sh2j,au,sh2j_au,sh2j_1_aushau.wav,sh2j_8_aujau.wav,,FALSE,FALSE,,,,,,,,,,,,,,j,0.3458,space,0.775,,,,,,,,0,84,84,130,1,,
5cc82b9ea8367900164d8775,2023-06-16_10h16.22.180,phx_ver10,2022.2.5,Win32,60.09615385,,,,,,,,,,,,13,testing_2,zh2x,ai,zh2x_ai,zh2x_1_aizhai.wav,zh2x_1_aizhai.wav,,TRUE,FALSE,,,,,,,,,,,,,,f,0.2847,space,0.7054,,,,,,,,0,85,85,12,1,,
5cc82b9ea8367900164d8775,2023-06-16_10h16.22.180,phx_ver10,2022.2.5,Win32,60.09615385,,,,,,,,,,,,55,testing_3,zh2j,ai,zh2j_ai,zh2j_1_aizhai.wav,zh2j_8_aijai.wav,,FALSE,FALSE,,,,,,,,,,,,,,f,0.2675,space,0.799900001,,,,,,,,0,86,86,54,1,,
5cc82b9ea8367900164d8775,2023-06-16_10h16.22.180,phx_ver10,2022.2.5,Win32,60.09615385,,,,,,,,,,,,85,testing_3,j2x,e,j2x_e,j2x_1_eje.wav,j2x_1_eje.wav,,TRUE,FALSE,,,,,,,,,,,,,,f,0.053700001,space,0.789,,,,,,,,0,87,87,84,1,,
5cc82b9ea8367900164d8775,2023-06-16_10h16.22.180,phx_ver10,2022.2.5,Win32,60.09615385,,,,,,,,,,,,70,testing_3,zh2j,i,zh2j_i,zh2j_8_iji.wav,zh2j_8_iji.wav,,TRUE,FALSE,,,,,,,,,,,,,,f,0.1016,space,0.917,,,,,,,,0,88,88,69,1,,
5cc82b9ea8367900164d8775,2023-06-16_10h16.22.180,phx_ver10,2022.2.5,Win32,60.09615385,,,,,,,,,,,,79,testing_3,j2x,ai,j2x_ai,j2x_1_aijai.wav,j2x_8_aixai.wav,,FALSE,FALSE,,,,,,,,,,,,,,j,0.268,space,0.750400001,,,,,,,,0,89,89,78,1,,
5cc82b9ea8367900164d8775,2023-06-16_10h16.22.180,phx_ver10,2022.2.5,Win32,60.09615385,,,,,,,,,,,,97,testing_3,sh2x,a,sh2x_a,sh2x_1_asha.wav,sh2x_1_asha.wav,,TRUE,FALSE,,,,,,,,,,,,,,f,0.083900001,space,0.5713,,,,,,,,0,90,90,96,1,,
5cc82b9ea8367900164d8775,2023-06-16_10h16.22.180,phx_ver10,2022.2.5,Win32,60.09615385,,,,,,,,,,,,134,testing_3,sh2j,e,sh2j_e,sh2j_8_eje.wav,sh2j_8_eje.wav,,TRUE,FALSE,,,,,,,,,,,,,,f,0.017599999,space,0.4786,,,,,,,,0,91,91,133,1,,
5cc82b9ea8367900164d8775,2023-06-16_10h16.22.180,phx_ver10,2022.2.5,Win32,60.09615385,,,,,,,,,,,,62,testing_3,zh2j,e,zh2j_e,zh2j_8_eje.wav,zh2j_8_eje.wav,,TRUE,FALSE,,,,,,,,,,,,,,f,0.0045,space,0.534599999,,,,,,,,0,92,92,61,1,,
5cc82b9ea8367900164d8775,2023-06-16_10h16.22.180,phx_ver10,2022.2.5,Win32,60.09615385,,,,,,,,,,,,90,testing_3,j2x,ei,j2x_ei,j2x_8_eixei.wav,j2x_8_eixei.wav,,TRUE,FALSE,,,,,,,,,,,,,,f,0.1175,space,0.6505,,,,,,,,0,93,93,89,1,,
5cc82b9ea8367900164d8775,2023-06-16_10h16.22.180,phx_ver10,2022.2.5,Win32,60.09615385,,,,,,,,,,,,94,testing_3,j2x,i,j2x_i,j2x_8_ixi.wav,j2x_8_ixi.wav,,TRUE,FALSE,,,,,,,,,,,,,,f,0.051400001,space,0.5682,,,,,,,,0,94,94,93,1,,
5cc82b9ea8367900164d8775,2023-06-16_10h16.22.180,phx_ver10,2022.2.5,Win32,60.09615385,,,,,,,,,,,,133,testing_3,sh2j,e,sh2j_e,sh2j_1_eshe.wav,sh2j_1_eshe.wav,,TRUE,FALSE,,,,,,,,,,,,,,f,0.1541,space,0.649400001,,,,,,,,0,95,95,132,1,,
5cc82b9ea8367900164d8775,2023-06-16_10h16.22.180,phx_ver10,2022.2.5,Win32,60.09615385,,,,,,,,,,,,77,testing_3,j2x,ai,j2x_ai,j2x_1_aijai.wav,j2x_1_aijai.wav,,TRUE,FALSE,,,,,,,,,,,,,,f,0.1349,space,0.483900001,,,,,,,,0,96,96,76,1,,
5cc82b9ea8367900164d8775,2023-06-16_10h16.22.180,phx_ver10,2022.2.5,Win32,60.09615385,,,,,,,,,,,,102,testing_3,sh2x,ai,sh2x_ai,sh2x_8_aixai.wav,sh2x_8_aixai.wav,,TRUE,FALSE,,,,,,,,,,,,,,f,0.107,space,0.5181,,,,,,,,0,97,97,101,1,,
5cc82b9ea8367900164d8775,2023-06-16_10h16.22.180,phx_ver10,2022.2.5,Win32,60.09615385,,,,,,,,,,,,120,testing_3,sh2x,i,sh2x_i,sh2x_8_ixi.wav,sh2x_1_ishi.wav,,FALSE,FALSE,,,,,,,,,,,,,,f,0.0851,space,0.6455,,,,,,,,0,98,98,119,1,,
5cc82b9ea8367900164d8775,2023-06-16_10h16.22.180,phx_ver10,2022.2.5,Win32,60.09615385,,,,,,,,,,,,88,testing_3,j2x,e,j2x_e,j2x_8_exe.wav,j2x_1_eje.wav,,FALSE,FALSE,,,,,,,,,,,,,,j,0.5851,space,1.089400001,,,,,,,,0,99,99,87,1,,
5cc82b9ea8367900164d8775,2023-06-16_10h16.22.180,phx_ver10,2022.2.5,Win32,60.09615385,,,,,,,,,,,,59,testing_3,zh2j,au,zh2j_au,zh2j_1_auzhau.wav,zh2j_8_aujau.wav,,FALSE,FALSE,,,,,,,,,,,,,,f,0.1063,space,0.5213,,,,,,,,0,100,100,58,1,,
5cc82b9ea8367900164d8775,2023-06-16_10h16.22.180,phx_ver10,2022.2.5,Win32,60.09615385,,,,,,,,,,,,68,testing_3,zh2j,ei,zh2j_ei,zh2j_8_eijei.wav,zh2j_1_eizhei.wav,,FALSE,FALSE,,,,,,,,,,,,,,f,0.1008,space,0.484400001,,,,,,,,0,101,101,67,1,,
5cc82b9ea8367900164d8775,2023-06-16_10h16.22.180,phx_ver10,2022.2.5,Win32,60.09615385,,,,,,,,,,,,28,testing_3,zh2sh,a,zh2sh_a,zh2sh_8_asha.wav,zh2sh_1_azha.wav,,FALSE,FALSE,,,,,,,,,,,,,,j,0.3035,space,0.8421,,,,,,,,0,102,102,27,1,,
5cc82b9ea8367900164d8775,2023-06-16_10h16.22.180,phx_ver10,2022.2.5,Win32,60.09615385,,,,,,,,,,,,113,testing_3,sh2x,ei,sh2x_ei,sh2x_1_eishei.wav,sh2x_1_eishei.wav,,TRUE,FALSE,,,,,,,,,,,,,,f,0.000700001,space,0.445400001,,,,,,,,0,103,103,112,1,,
5cc82b9ea8367900164d8775,2023-06-16_10h16.22.180,phx_ver10,2022.2.5,Win32,60.09615385,,,,,,,,,,,,143,testing_3,sh2j,i,sh2j_i,sh2j_1_ishi.wav,sh2j_8_iji.wav,,FALSE,FALSE,,,,,,,,,,,,,,j,0.355,space,0.8544,,,,,,,,0,104,104,142,1,,
5cc82b9ea8367900164d8775,2023-06-16_10h16.22.180,phx_ver10,2022.2.5,Win32,60.09615385,,,,,,,,,,,,129,testing_3,sh2j,au,sh2j_au,sh2j_1_aushau.wav,sh2j_1_aushau.wav,,TRUE,FALSE,,,,,,,,,,,,,,f,0.0901,space,0.516900001,,,,,,,,0,105,105,128,1,,
5cc82b9ea8367900164d8775,2023-06-16_10h16.22.180,phx_ver10,2022.2.5,Win32,60.09615385,,,,,,,,,,,,60,testing_3,zh2j,au,zh2j_au,zh2j_8_aujau.wav,zh2j_1_auzhau.wav,,FALSE,FALSE,,,,,,,,,,,,,,f,0.6061,space,0.967,,,,,,,,0,106,106,59,1,,
5cc82b9ea8367900164d8775,2023-06-16_10h16.22.180,phx_ver10,2022.2.5,Win32,60.09615385,,,,,,,,,,,,52,testing_3,zh2j,a,zh2j_a,zh2j_8_aja.wav,zh2j_1_azha.wav,,FALSE,FALSE,,,,,,,,,,,,,,f,0.117400001,space,0.683900001,,,,,,,,0,107,107,51,1,,
5cc82b9ea8367900164d8775,2023-06-16_10h16.22.180,phx_ver10,2022.2.5,Win32,60.09615385,,,,,,,,,,,,20,testing_2,zh2x,au,zh2x_au,zh2x_8_auxau.wav,zh2x_1_auzhau.wav,,FALSE,FALSE,,,,,,,,,,,,,,j,0.920900001,space,1.4022,,,,,,,,0,108,108,19,1,,
5cc82b9ea8367900164d8775,2023-06-16_10h16.22.180,phx_ver10,2022.2.5,Win32,60.09615385,,,,,,,,,,,,141,testing_3,sh2j,i,sh2j_i,sh2j_1_ishi.wav,sh2j_1_ishi.wav,,TRUE,FALSE,,,,,,,,,,,,,,f,0.0687,space,0.5248,,,,,,,,0,109,109,140,1,,
5cc82b9ea8367900164d8775,2023-06-16_10h16.22.180,phx_ver10,2022.2.5,Win32,60.09615385,,,,,,,,,,,,45,testing_3,zh2sh,i,zh2sh_i,zh2sh_1_izhi.wav,zh2sh_1_izhi.wav,,TRUE,FALSE,,,,,,,,,,,,,,f,0.004099999,space,0.4507,,,,,,,,0,110,110,44,1,,
5cc82b9ea8367900164d8775,2023-06-16_10h16.22.180,phx_ver10,2022.2.5,Win32,60.09615385,,,,,,,,,,,,73,testing_3,j2x,a,j2x_a,j2x_1_aja.wav,j2x_1_aja.wav,,TRUE,FALSE,,,,,,,,,,,,,,f,0.685,space,1.1406,,,,,,,,0,111,111,72,1,,
5cc82b9ea8367900164d8775,2023-06-16_10h16.22.180,phx_ver10,2022.2.5,Win32,60.09615385,,,,,,,,,,,,64,testing_3,zh2j,e,zh2j_e,zh2j_8_eje.wav,zh2j_1_ezhe.wav,,FALSE,FALSE,,,,,,,,,,,,,,f,0.157099999,space,0.717799999,,,,,,,,0,112,112,63,1,,
5cc82b9ea8367900164d8775,2023-06-16_10h16.22.180,phx_ver10,2022.2.5,Win32,60.09615385,,,,,,,,,,,,86,testing_3,j2x,e,j2x_e,j2x_8_exe.wav,j2x_8_exe.wav,,TRUE,FALSE,,,,,,,,,,,,,,f,0.5186,space,0.9509,,,,,,,,0,113,113,85,1,,
5cc82b9ea8367900164d8775,2023-06-16_10h16.22.180,phx_ver10,2022.2.5,Win32,60.09615385,,,,,,,,,,,,27,testing_3,zh2sh,a,zh2sh_a,zh2sh_1_azha.wav,zh2sh_8_asha.wav,,FALSE,FALSE,,,,,,,,,,,,,,j,0.8005,space,1.2668,,,,,,,,0,114,114,26,1,,
5cc82b9ea8367900164d8775,2023-06-16_10h16.22.180,phx_ver10,2022.2.5,Win32,60.09615385,,,,,,,,,,,,47,testing_3,zh2sh,i,zh2sh_i,zh2sh_1_izhi.wav,zh2sh_8_ishi.wav,,FALSE,FALSE,,,,,,,,,,,,,,f,0.4374,space,0.8548,,,,,,,,0,115,115,46,1,,
5cc82b9ea8367900164d8775,2023-06-16_10h16.22.180,phx_ver10,2022.2.5,Win32,60.09615385,,,,,,,,,,,,130,testing_3,sh2j,au,sh2j_au,sh2j_8_aujau.wav,sh2j_8_aujau.wav,,TRUE,FALSE,,,,,,,,,,,,,,j,0.367099999,space,0.985200001,,,,,,,,0,116,116,129,1,,
5cc82b9ea8367900164d8775,2023-06-16_10h16.22.180,phx_ver10,2022.2.5,Win32,60.09615385,,,,,,,,,,,,144,testing_3,sh2j,i,sh2j_i,sh2j_8_iji.wav,sh2j_1_ishi.wav,,FALSE,FALSE,,,,,,,,,,,,,,f,0.1845,space,0.729099999,,,,,,,,0,117,117,143,1,,
5cc82b9ea8367900164d8775,2023-06-16_10h16.22.180,phx_ver10,2022.2.5,Win32,60.09615385,,,,,,,,,,,,117,testing_3,sh2x,i,sh2x_i,sh2x_1_ishi.wav,sh2x_1_ishi.wav,,TRUE,FALSE,,,,,,,,,,,,,,f,0.3708,space,1.183400001,,,,,,,,0,118,118,116,1,,
5cc82b9ea8367900164d8775,2023-06-16_10h16.22.180,phx_ver10,2022.2.5,Win32,60.09615385,,,,,,,,,,,,78,testing_3,j2x,ai,j2x_ai,j2x_8_aixai.wav,j2x_8_aixai.wav,,TRUE,FALSE,,,,,,,,,,,,,,f,0.1672,space,0.6171,,,,,,,,0,119,119,77,1,,
5cc82b9ea8367900164d8775,2023-06-16_10h16.22.180,phx_ver10,2022.2.5,Win32,60.09615385,,,,,,,,,,,,57,testing_3,zh2j,au,zh2j_au,zh2j_1_auzhau.wav,zh2j_1_auzhau.wav,,TRUE,FALSE,,,,,,,,,,,,,,f,0.0847,space,0.568,,,,,,,,0,120,120,56,1,,
5cc82b9ea8367900164d8775,2023-06-16_10h16.22.180,phx_ver10,2022.2.5,Win32,60.09615385,,,,,,,,,,,,56,testing_3,zh2j,ai,zh2j_ai,zh2j_8_aijai.wav,zh2j_1_aizhai.wav,,FALSE,FALSE,,,,,,,,,,,,,,j,1.284099999,space,1.8238,,,,,,,,0,121,121,55,1,,
5cc82b9ea8367900164d8775,2023-06-16_10h16.22.180,phx_ver10,2022.2.5,Win32,60.09615385,,,,,,,,,,,,142,testing_3,sh2j,i,sh2j_i,sh2j_8_iji.wav,sh2j_8_iji.wav,,TRUE,FALSE,,,,,,,,,,,,,,f,0.134099999,space,2.304599999,,,,,,,,0,122,122,141,1,,
5cc82b9ea8367900164d8775,2023-06-16_10h16.22.180,phx_ver10,2022.2.5,Win32,60.09615385,,,,,,,,,,,,14,testing_2,zh2x,ai,zh2x_ai,zh2x_8_aixai.wav,zh2x_8_aixai.wav,,TRUE,FALSE,,,,,,,,,,,,,,f,0.6392,space,1.018599999,,,,,,,,0,123,123,13,1,,
5cc82b9ea8367900164d8775,2023-06-16_10h16.22.180,phx_ver10,2022.2.5,Win32,60.09615385,,,,,,,,,,,,92,testing_3,j2x,ei,j2x_ei,j2x_8_eixei.wav,j2x_1_eijei.wav,,FALSE,FALSE,,,,,,,,,,,,,,j,0.5548,space,0.968900001,,,,,,,,0,124,124,91,1,,
5cc82b9ea8367900164d8775,2023-06-16_10h16.22.180,phx_ver10,2022.2.5,Win32,60.09615385,,,,,,,,,,,,99,testing_3,sh2x,a,sh2x_a,sh2x_1_asha.wav,sh2x_8_axa.wav,,FALSE,FALSE,,,,,,,,,,,,,,j,0.3166,space,0.7712,,,,,,,,0,125,125,98,1,,
5cc82b9ea8367900164d8775,2023-06-16_10h16.22.180,phx_ver10,2022.2.5,Win32,60.09615385,,,,,,,,,,,,135,testing_3,sh2j,e,sh2j_e,sh2j_1_eshe.wav,sh2j_8_eje.wav,,FALSE,FALSE,,,,,,,,,,,,,,j,0.251900001,space,0.656599999,,,,,,,,0,126,126,134,1,,
5cc82b9ea8367900164d8775,2023-06-16_10h16.22.180,phx_ver10,2022.2.5,Win32,60.09615385,,,,,,,,,,,,4,testing_1,zh2x,a,zh2x_a,zh2x_8_axa.wav,zh2x_1_azha.wav,,FALSE,TRUE,,,,,,,,,,,,,,f,0.7193,space,1.5087,,,,,,,,0,127,127,3,1,,
5cc82b9ea8367900164d8775,2023-06-16_10h16.22.180,phx_ver10,2022.2.5,Win32,60.09615385,,,,,,,,,,,,139,testing_3,sh2j,ei,sh2j_ei,sh2j_1_eishei.wav,sh2j_8_eijei.wav,,FALSE,FALSE,,,,,,,,,,,,,,j,0.267799999,space,0.8195,,,,,,,,0,128,128,138,1,,
5cc82b9ea8367900164d8775,2023-06-16_10h16.22.180,phx_ver10,2022.2.5,Win32,60.09615385,,,,,,,,,,,,39,testing_3,zh2sh,e,zh2sh_e,zh2sh_1_ezhe.wav,zh2sh_8_eshe.wav,,FALSE,FALSE,,,,,,,,,,,,,,f,0.0243,space,0.3887,,,,,,,,0,129,129,38,1,,
5cc82b9ea8367900164d8775,2023-06-16_10h16.22.180,phx_ver10,2022.2.5,Win32,60.09615385,,,,,,,,,,,,46,testing_3,zh2sh,i,zh2sh_i,zh2sh_8_ishi.wav,zh2sh_8_ishi.wav,,TRUE,FALSE,,,,,,,,,,,,,,f,0.0759,space,0.4849,,,,,,,,0,130,130,45,1,,
5cc82b9ea8367900164d8775,2023-06-16_10h16.22.180,phx_ver10,2022.2.5,Win32,60.09615385,,,,,,,,,,,,7,testing_1,zh2x,e,zh2x_e,zh2x_1_ezhe.wav,zh2x_8_exe.wav,,FALSE,TRUE,,,,,,,,,,,,,,f,0.317400001,space,0.6013,,,,,,,,0,131,131,6,1,,
5cc82b9ea8367900164d8775,2023-06-16_10h16.22.180,phx_ver10,2022.2.5,Win32,60.09615385,,,,,,,,,,,,3,testing_1,zh2x,a,zh2x_a,zh2x_1_azha.wav,zh2x_8_axa.wav,,FALSE,TRUE,,,,,,,,,,,,,,j,0.217400001,space,0.8169,,,,,,,,0,132,132,2,1,,
5cc82b9ea8367900164d8775,2023-06-16_10h16.22.180,phx_ver10,2022.2.5,Win32,60.09615385,,,,,,,,,,,,136,testing_3,sh2j,e,sh2j_e,sh2j_8_eje.wav,sh2j_1_eshe.wav,,FALSE,FALSE,,,,,,,,,,,,,,j,0.5375,space,1.0172,,,,,,,,0,133,133,135,1,,
5cc82b9ea8367900164d8775,2023-06-16_10h16.22.180,phx_ver10,2022.2.5,Win32,60.09615385,,,,,,,,,,,,50,testing_3,zh2j,a,zh2j_a,zh2j_8_aja.wav,zh2j_8_aja.wav,,TRUE,FALSE,,,,,,,,,,,,,,f,0.1012,space,0.501099999,,,,,,,,0,134,134,49,1,,
5cc82b9ea8367900164d8775,2023-06-16_10h16.22.180,phx_ver10,2022.2.5,Win32,60.09615385,,,,,,,,,,,,35,testing_3,zh2sh,au,zh2sh_au,zh2sh_1_auzhau.wav,zh2sh_8_aushau.wav,,FALSE,FALSE,,,,,,,,,,,,,,j,0.7564,space,1.2024,,,,,,,,0,135,135,34,1,,
5cc82b9ea8367900164d8775,2023-06-16_10h16.22.180,phx_ver10,2022.2.5,Win32,60.09615385,,,,,,,,,,,,67,testing_3,zh2j,ei,zh2j_ei,zh2j_1_eizhei.wav,zh2j_8_eijei.wav,,FALSE,FALSE,,,,,,,,,,,,,,f,0.034099999,space,0.389900001,,,,,,,,0,136,136,66,1,,
5cc82b9ea8367900164d8775,2023-06-16_10h16.22.180,phx_ver10,2022.2.5,Win32,60.09615385,,,,,,,,,,,,12,testing_1,zh2x,i,zh2x_i,zh2x_8_ixi.wav,zh2x_1_izhi.wav,,FALSE,TRUE,,,,,,,,,,,,,,f,0.5736,space,0.95,,,,,,,,0,137,137,11,1,,
5cc82b9ea8367900164d8775,2023-06-16_10h16.22.180,phx_ver10,2022.2.5,Win32,60.09615385,,,,,,,,,,,,1,testing_1,zh2x,a,zh2x_a,zh2x_1_azha.wav,zh2x_1_azha_copy.wav,,TRUE,TRUE,,,,,,,,,,,,,,f,0.4508,space,0.834700001,,,,,,,,0,138,138,0,1,,
5cc82b9ea8367900164d8775,2023-06-16_10h16.22.180,phx_ver10,2022.2.5,Win32,60.09615385,,,,,,,,,,,,5,testing_1,zh2x,e,zh2x_e,zh2x_1_ezhe.wav,zh2x_1_ezhe_copy.wav,,TRUE,TRUE,,,,,,,,,,,,,,f,0.4331,space,0.8448,,,,,,,,0,139,139,4,1,,
5cc82b9ea8367900164d8775,2023-06-16_10h16.22.180,phx_ver10,2022.2.5,Win32,60.09615385,,,,,,,,,,,,98,testing_3,sh2x,a,sh2x_a,sh2x_8_axa.wav,sh2x_8_axa.wav,,TRUE,FALSE,,,,,,,,,,,,,,f,0.083799999,space,0.8496,,,,,,,,0,140,140,97,1,,
5cc82b9ea8367900164d8775,2023-06-16_10h16.22.180,phx_ver10,2022.2.5,Win32,60.09615385,,,,,,,,,,,,63,testing_3,zh2j,e,zh2j_e,zh2j_1_ezhe.wav,zh2j_8_eje.wav,,FALSE,FALSE,,,,,,,,,,,,,,f,0.0344,space,0.75,,,,,,,,0,141,141,62,1,,
5cc82b9ea8367900164d8775,2023-06-16_10h16.22.180,phx_ver10,2022.2.5,Win32,60.09615385,,,,,,,,,,,,51,testing_3,zh2j,a,zh2j_a,zh2j_1_azha.wav,zh2j_8_aja.wav,,FALSE,FALSE,,,,,,,,,,,,,,f,1.8502,space,2.144,,,,,,,,0,142,142,50,1,,
5cc82b9ea8367900164d8775,2023-06-16_10h16.22.180,phx_ver10,2022.2.5,Win32,60.09615385,,,,,,,,,,,,61,testing_3,zh2j,e,zh2j_e,zh2j_1_ezhe.wav,zh2j_1_ezhe.wav,,TRUE,FALSE,,,,,,,,,,,,,,f,0.395,space,1.187400001,,,,,,,,0,143,143,60,1,,
5cc82b9ea8367900164d8775,2023-06-16_10h16.22.180,phx_ver10,2022.2.5,Win32,60.09615385,,,,,,,,,,,,,,,,,,,,,,,,,,,,,,,,,,,,,,,,,,,,,,,,,,,space,4.664299999
