participant,date,expName,psychopyVersion,OS,frameRate,space_1.keys,space_1.rt,space_2.keys,space_2.rt,space_train.keys,space_train.rt,training.thisRepN,training.thisTrialN,training.thisN,training.thisIndex,training.ran,token_id,task,continuum,vowel,series,sound_1,sound_2,img,same,trained,FJ_attn.keys,FJ_attn.rt,space_attn.keys,space_attn.rt,if_attn_test.thisRepN,if_attn_test.thisTrialN,if_attn_test.thisN,if_attn_test.thisIndex,if_attn_test.ran,space_trans_1.keys,space_trans_1.rt,space_trans_11.keys,space_trans_11.rt,FJ_test.keys,FJ_test.rt,space_test.keys,space_test.rt,testing_pre.thisRepN,testing_pre.thisTrialN,testing_pre.thisN,testing_pre.thisIndex,testing_pre.ran,space_trans_2.keys,space_trans_2.rt,testing_all.thisRepN,testing_all.thisTrialN,testing_all.thisN,testing_all.thisIndex,testing_all.ran,space_ending.keys,space_ending.rt
5cc9c62a55b70600013702d3,2023-06-16_10h16.21.259,phx_ver10,2022.2.5,MacIntel,60.0024001,,,,,,,,,,,,,,,,,,,,,,,,,,,,,,,,,,,,,,,,,,,,,,,,,,,,
5cc9c62a55b70600013702d3,2023-06-16_10h16.21.259,phx_ver10,2022.2.5,MacIntel,60.0024001,space,1.2932,,,,,,,,,,,,,,,,,,,,,,,,,,,,,,,,,,,,,,,,,,,,,,,,,,
5cc9c62a55b70600013702d3,2023-06-16_10h16.21.259,phx_ver10,2022.2.5,MacIntel,60.0024001,,,space,0.061,,,,,,,,,,,,,,,,,,,,,,,,,,,,,,,,,,,,,,,,,,,,,,,,
5cc9c62a55b70600013702d3,2023-06-16_10h16.21.259,phx_ver10,2022.2.5,MacIntel,60.0024001,,,,,space,0.7613,0,0,0,9,1,10,training,zh2x,a,zh2x_a,zh2x_6_axa.wav,,axa.jpg,,,,,,,,,,,,,,,,,,,,,,,,,,,,,,,,,
5cc9c62a55b70600013702d3,2023-06-16_10h16.21.259,phx_ver10,2022.2.5,MacIntel,60.0024001,,,,,space,0.6696,0,1,1,23,1,24,training,zh2x,e,zh2x_e,zh2x_4_ezhe.wav,,ezhe.jpg,,,,,,,,,,,,,,,,,,,,,,,,,,,,,,,,,
5cc9c62a55b70600013702d3,2023-06-16_10h16.21.259,phx_ver10,2022.2.5,MacIntel,60.0024001,,,,,space,0.4516,0,2,2,0,1,1,training,zh2x,a,zh2x_a,zh2x_1_azha.wav,,azha.jpg,,,,,,,,,,,,,,,,,,,,,,,,,,,,,,,,,
5cc9c62a55b70600013702d3,2023-06-16_10h16.21.259,phx_ver10,2022.2.5,MacIntel,60.0024001,,,,,space,0.3863,0,3,3,4,1,5,training,zh2x,a,zh2x_a,zh2x_2_azha.wav,,azha.jpg,,,,,,,,,,,,,,,,,,,,,,,,,,,,,,,,,
5cc9c62a55b70600013702d3,2023-06-16_10h16.21.259,phx_ver10,2022.2.5,MacIntel,60.0024001,,,,,space,0.3821,0,4,4,8,1,9,training,zh2x,a,zh2x_a,zh2x_5_axa.wav,,axa.jpg,,,,,,,,,,,,,,,,,,,,,,,,,,,,,,,,,
5cc9c62a55b70600013702d3,2023-06-16_10h16.21.259,phx_ver10,2022.2.5,MacIntel,60.0024001,,,,,space,0.466,0,5,5,40,1,41,training,zh2x,i,zh2x_i,zh2x_5_ixi.wav,,ixi.jpg,,,,,,,,,,,,,,,,,,,,,,,,,,,,,,,,,
5cc9c62a55b70600013702d3,2023-06-16_10h16.21.259,phx_ver10,2022.2.5,MacIntel,60.0024001,,,,,,,,,,,,,attn_test,,,,zh2x_8_axa.wav,zh2x_8_ixi.wav,axa.jpg,LEFT,,f,0.3867,space,1.9953,0,0,0,0,1,,,,,,,,,,,,,,,,,,,,,,
5cc9c62a55b70600013702d3,2023-06-16_10h16.21.259,phx_ver10,2022.2.5,MacIntel,60.0024001,,,,,space,0.602,0,6,6,27,1,28,training,zh2x,e,zh2x_e,zh2x_7_exe.wav,,exe.jpg,,,,,,,,,,,,,,,,,,,,,,,,,,,,,,,,,
5cc9c62a55b70600013702d3,2023-06-16_10h16.21.259,phx_ver10,2022.2.5,MacIntel,60.0024001,,,,,space,0.4026,0,7,7,16,1,17,training,zh2x,e,zh2x_e,zh2x_1_ezhe.wav,,ezhe.jpg,,,,,,,,,,,,,,,,,,,,,,,,,,,,,,,,,
5cc9c62a55b70600013702d3,2023-06-16_10h16.21.259,phx_ver10,2022.2.5,MacIntel,60.0024001,,,,,space,0.2823,0,8,8,46,1,47,training,zh2x,i,zh2x_i,zh2x_7_ixi.wav,,ixi.jpg,,,,,,,,,,,,,,,,,,,,,,,,,,,,,,,,,
5cc9c62a55b70600013702d3,2023-06-16_10h16.21.259,phx_ver10,2022.2.5,MacIntel,60.0024001,,,,,space,0.2378,0,9,9,11,1,12,training,zh2x,a,zh2x_a,zh2x_7_axa.wav,,axa.jpg,,,,,,,,,,,,,,,,,,,,,,,,,,,,,,,,,
5cc9c62a55b70600013702d3,2023-06-16_10h16.21.259,phx_ver10,2022.2.5,MacIntel,60.0024001,,,,,space,0.2861,0,10,10,21,1,22,training,zh2x,e,zh2x_e,zh2x_3_ezhe.wav,,ezhe.jpg,,,,,,,,,,,,,,,,,,,,,,,,,,,,,,,,,
5cc9c62a55b70600013702d3,2023-06-16_10h16.21.259,phx_ver10,2022.2.5,MacIntel,60.0024001,,,,,space,0.3332,0,11,11,39,1,40,training,zh2x,i,zh2x_i,zh2x_4_izhi.wav,,izhi.jpg,,,,,,,,,,,,,,,,,,,,,,,,,,,,,,,,,
5cc9c62a55b70600013702d3,2023-06-16_10h16.21.259,phx_ver10,2022.2.5,MacIntel,60.0024001,,,,,,,,,,,,,attn_test,,,,zh2x_1_izhi.wav,zh2x_1_ezhe.wav,ezhe.jpg,RIGHT,,j,0.2151,space,2.1815,0,0,0,0,1,,,,,,,,,,,,,,,,,,,,,,
5cc9c62a55b70600013702d3,2023-06-16_10h16.21.259,phx_ver10,2022.2.5,MacIntel,60.0024001,,,,,space,1.4079,0,12,12,6,1,7,training,zh2x,a,zh2x_a,zh2x_3_azha.wav,,azha.jpg,,,,,,,,,,,,,,,,,,,,,,,,,,,,,,,,,
5cc9c62a55b70600013702d3,2023-06-16_10h16.21.259,phx_ver10,2022.2.5,MacIntel,60.0024001,,,,,space,0.4383,0,13,13,47,1,48,training,zh2x,i,zh2x_i,zh2x_8_ixi.wav,,ixi.jpg,,,,,,,,,,,,,,,,,,,,,,,,,,,,,,,,,
5cc9c62a55b70600013702d3,2023-06-16_10h16.21.259,phx_ver10,2022.2.5,MacIntel,60.0024001,,,,,space,0.399,0,14,14,44,1,45,training,zh2x,i,zh2x_i,zh2x_7_ixi.wav,,ixi.jpg,,,,,,,,,,,,,,,,,,,,,,,,,,,,,,,,,
5cc9c62a55b70600013702d3,2023-06-16_10h16.21.259,phx_ver10,2022.2.5,MacIntel,60.0024001,,,,,space,0.3574,0,15,15,25,1,26,training,zh2x,e,zh2x_e,zh2x_6_exe.wav,,exe.jpg,,,,,,,,,,,,,,,,,,,,,,,,,,,,,,,,,
5cc9c62a55b70600013702d3,2023-06-16_10h16.21.259,phx_ver10,2022.2.5,MacIntel,60.0024001,,,,,space,0.482,0,16,16,35,1,36,training,zh2x,i,zh2x_i,zh2x_2_izhi.wav,,izhi.jpg,,,,,,,,,,,,,,,,,,,,,,,,,,,,,,,,,
5cc9c62a55b70600013702d3,2023-06-16_10h16.21.259,phx_ver10,2022.2.5,MacIntel,60.0024001,,,,,space,0.4546,0,17,17,10,1,11,training,zh2x,a,zh2x_a,zh2x_6_axa.wav,,axa.jpg,,,,,,,,,,,,,,,,,,,,,,,,,,,,,,,,,
5cc9c62a55b70600013702d3,2023-06-16_10h16.21.259,phx_ver10,2022.2.5,MacIntel,60.0024001,,,,,,,,,,,,,attn_test,,,,zh2x_8_ixi.wav,zh2x_1_izhi.wav,ixi.jpg,LEFT,,f,0.023,space,0.6693,0,0,0,0,1,,,,,,,,,,,,,,,,,,,,,,
5cc9c62a55b70600013702d3,2023-06-16_10h16.21.259,phx_ver10,2022.2.5,MacIntel,60.0024001,,,,,space,0.4487,0,18,18,32,1,33,training,zh2x,i,zh2x_i,zh2x_1_izhi.wav,,izhi.jpg,,,,,,,,,,,,,,,,,,,,,,,,,,,,,,,,,
5cc9c62a55b70600013702d3,2023-06-16_10h16.21.259,phx_ver10,2022.2.5,MacIntel,60.0024001,,,,,space,0.3708,0,19,19,7,1,8,training,zh2x,a,zh2x_a,zh2x_4_azha.wav,,azha.jpg,,,,,,,,,,,,,,,,,,,,,,,,,,,,,,,,,
5cc9c62a55b70600013702d3,2023-06-16_10h16.21.259,phx_ver10,2022.2.5,MacIntel,60.0024001,,,,,space,0.3741,0,20,20,33,1,34,training,zh2x,i,zh2x_i,zh2x_2_izhi.wav,,izhi.jpg,,,,,,,,,,,,,,,,,,,,,,,,,,,,,,,,,
5cc9c62a55b70600013702d3,2023-06-16_10h16.21.259,phx_ver10,2022.2.5,MacIntel,60.0024001,,,,,space,0.3869,0,21,21,30,1,31,training,zh2x,e,zh2x_e,zh2x_7_exe.wav,,exe.jpg,,,,,,,,,,,,,,,,,,,,,,,,,,,,,,,,,
5cc9c62a55b70600013702d3,2023-06-16_10h16.21.259,phx_ver10,2022.2.5,MacIntel,60.0024001,,,,,space,0.5231,0,22,22,17,1,18,training,zh2x,e,zh2x_e,zh2x_2_ezhe.wav,,ezhe.jpg,,,,,,,,,,,,,,,,,,,,,,,,,,,,,,,,,
5cc9c62a55b70600013702d3,2023-06-16_10h16.21.259,phx_ver10,2022.2.5,MacIntel,60.0024001,,,,,space,0.2173,0,23,23,38,1,39,training,zh2x,i,zh2x_i,zh2x_3_izhi.wav,,izhi.jpg,,,,,,,,,,,,,,,,,,,,,,,,,,,,,,,,,
5cc9c62a55b70600013702d3,2023-06-16_10h16.21.259,phx_ver10,2022.2.5,MacIntel,60.0024001,,,,,,,,,,,,,attn_test,,,,zh2x_1_izhi.wav,zh2x_1_ezhe.wav,izhi.jpg,LEFT,,j,2.3266,space,3.4402,0,0,0,0,1,,,,,,,,,,,,,,,,,,,,,,
5cc9c62a55b70600013702d3,2023-06-16_10h16.21.259,phx_ver10,2022.2.5,MacIntel,60.0024001,,,,,space,0.2742,0,24,24,15,1,16,training,zh2x,a,zh2x_a,zh2x_8_axa.wav,,axa.jpg,,,,,,,,,,,,,,,,,,,,,,,,,,,,,,,,,
5cc9c62a55b70600013702d3,2023-06-16_10h16.21.259,phx_ver10,2022.2.5,MacIntel,60.0024001,,,,,space,0.3655,0,25,25,42,1,43,training,zh2x,i,zh2x_i,zh2x_6_ixi.wav,,ixi.jpg,,,,,,,,,,,,,,,,,,,,,,,,,,,,,,,,,
5cc9c62a55b70600013702d3,2023-06-16_10h16.21.259,phx_ver10,2022.2.5,MacIntel,60.0024001,,,,,space,0.3104,0,26,26,2,1,3,training,zh2x,a,zh2x_a,zh2x_2_azha.wav,,azha.jpg,,,,,,,,,,,,,,,,,,,,,,,,,,,,,,,,,
5cc9c62a55b70600013702d3,2023-06-16_10h16.21.259,phx_ver10,2022.2.5,MacIntel,60.0024001,,,,,space,0.3145,0,27,27,43,1,44,training,zh2x,i,zh2x_i,zh2x_7_ixi.wav,,ixi.jpg,,,,,,,,,,,,,,,,,,,,,,,,,,,,,,,,,
5cc9c62a55b70600013702d3,2023-06-16_10h16.21.259,phx_ver10,2022.2.5,MacIntel,60.0024001,,,,,space,0.3535,0,28,28,34,1,35,training,zh2x,i,zh2x_i,zh2x_2_izhi.wav,,izhi.jpg,,,,,,,,,,,,,,,,,,,,,,,,,,,,,,,,,
5cc9c62a55b70600013702d3,2023-06-16_10h16.21.259,phx_ver10,2022.2.5,MacIntel,60.0024001,,,,,space,0.4155,0,29,29,3,1,4,training,zh2x,a,zh2x_a,zh2x_2_azha.wav,,azha.jpg,,,,,,,,,,,,,,,,,,,,,,,,,,,,,,,,,
5cc9c62a55b70600013702d3,2023-06-16_10h16.21.259,phx_ver10,2022.2.5,MacIntel,60.0024001,,,,,,,,,,,,,attn_test,,,,zh2x_8_ixi.wav,zh2x_1_azha.wav,azha.jpg,RIGHT,,j,0.0013,space,0.5529,0,0,0,0,1,,,,,,,,,,,,,,,,,,,,,,
5cc9c62a55b70600013702d3,2023-06-16_10h16.21.259,phx_ver10,2022.2.5,MacIntel,60.0024001,,,,,space,0.4197,0,30,30,20,1,21,training,zh2x,e,zh2x_e,zh2x_2_ezhe.wav,,ezhe.jpg,,,,,,,,,,,,,,,,,,,,,,,,,,,,,,,,,
5cc9c62a55b70600013702d3,2023-06-16_10h16.21.259,phx_ver10,2022.2.5,MacIntel,60.0024001,,,,,space,0.3168,0,31,31,37,1,38,training,zh2x,i,zh2x_i,zh2x_3_izhi.wav,,izhi.jpg,,,,,,,,,,,,,,,,,,,,,,,,,,,,,,,,,
5cc9c62a55b70600013702d3,2023-06-16_10h16.21.259,phx_ver10,2022.2.5,MacIntel,60.0024001,,,,,space,0.2497,0,32,32,12,1,13,training,zh2x,a,zh2x_a,zh2x_7_axa.wav,,axa.jpg,,,,,,,,,,,,,,,,,,,,,,,,,,,,,,,,,
5cc9c62a55b70600013702d3,2023-06-16_10h16.21.259,phx_ver10,2022.2.5,MacIntel,60.0024001,,,,,space,0.254,0,33,33,13,1,14,training,zh2x,a,zh2x_a,zh2x_7_axa.wav,,axa.jpg,,,,,,,,,,,,,,,,,,,,,,,,,,,,,,,,,
5cc9c62a55b70600013702d3,2023-06-16_10h16.21.259,phx_ver10,2022.2.5,MacIntel,60.0024001,,,,,space,0.1188,0,34,34,41,1,42,training,zh2x,i,zh2x_i,zh2x_6_ixi.wav,,ixi.jpg,,,,,,,,,,,,,,,,,,,,,,,,,,,,,,,,,
5cc9c62a55b70600013702d3,2023-06-16_10h16.21.259,phx_ver10,2022.2.5,MacIntel,60.0024001,,,,,space,0.2727,0,35,35,22,1,23,training,zh2x,e,zh2x_e,zh2x_3_ezhe.wav,,ezhe.jpg,,,,,,,,,,,,,,,,,,,,,,,,,,,,,,,,,
5cc9c62a55b70600013702d3,2023-06-16_10h16.21.259,phx_ver10,2022.2.5,MacIntel,60.0024001,,,,,,,,,,,,,attn_test,,,,zh2x_8_ixi.wav,zh2x_1_ezhe.wav,ixi.jpg,LEFT,,f,0.916,space,1.9498,0,0,0,0,1,,,,,,,,,,,,,,,,,,,,,,
5cc9c62a55b70600013702d3,2023-06-16_10h16.21.259,phx_ver10,2022.2.5,MacIntel,60.0024001,,,,,space,0.2948,0,36,36,18,1,19,training,zh2x,e,zh2x_e,zh2x_2_ezhe.wav,,ezhe.jpg,,,,,,,,,,,,,,,,,,,,,,,,,,,,,,,,,
5cc9c62a55b70600013702d3,2023-06-16_10h16.21.259,phx_ver10,2022.2.5,MacIntel,60.0024001,,,,,space,0.3018,0,37,37,19,1,20,training,zh2x,e,zh2x_e,zh2x_2_ezhe.wav,,ezhe.jpg,,,,,,,,,,,,,,,,,,,,,,,,,,,,,,,,,
5cc9c62a55b70600013702d3,2023-06-16_10h16.21.259,phx_ver10,2022.2.5,MacIntel,60.0024001,,,,,space,0.3869,0,38,38,26,1,27,training,zh2x,e,zh2x_e,zh2x_6_exe.wav,,exe.jpg,,,,,,,,,,,,,,,,,,,,,,,,,,,,,,,,,
5cc9c62a55b70600013702d3,2023-06-16_10h16.21.259,phx_ver10,2022.2.5,MacIntel,60.0024001,,,,,space,0.2666,0,39,39,31,1,32,training,zh2x,e,zh2x_e,zh2x_8_exe.wav,,exe.jpg,,,,,,,,,,,,,,,,,,,,,,,,,,,,,,,,,
5cc9c62a55b70600013702d3,2023-06-16_10h16.21.259,phx_ver10,2022.2.5,MacIntel,60.0024001,,,,,space,0.3184,0,40,40,5,1,6,training,zh2x,a,zh2x_a,zh2x_3_azha.wav,,azha.jpg,,,,,,,,,,,,,,,,,,,,,,,,,,,,,,,,,
5cc9c62a55b70600013702d3,2023-06-16_10h16.21.259,phx_ver10,2022.2.5,MacIntel,60.0024001,,,,,space,0.3383,0,41,41,45,1,46,training,zh2x,i,zh2x_i,zh2x_7_ixi.wav,,ixi.jpg,,,,,,,,,,,,,,,,,,,,,,,,,,,,,,,,,
5cc9c62a55b70600013702d3,2023-06-16_10h16.21.259,phx_ver10,2022.2.5,MacIntel,60.0024001,,,,,,,,,,,,,attn_test,,,,zh2x_8_exe.wav,zh2x_1_azha.wav,exe.jpg,LEFT,,f,0.0706,space,0.9617,0,0,0,0,1,,,,,,,,,,,,,,,,,,,,,,
5cc9c62a55b70600013702d3,2023-06-16_10h16.21.259,phx_ver10,2022.2.5,MacIntel,60.0024001,,,,,space,0.2499,0,42,42,24,1,25,training,zh2x,e,zh2x_e,zh2x_5_exe.wav,,exe.jpg,,,,,,,,,,,,,,,,,,,,,,,,,,,,,,,,,
5cc9c62a55b70600013702d3,2023-06-16_10h16.21.259,phx_ver10,2022.2.5,MacIntel,60.0024001,,,,,space,0.3182,0,43,43,14,1,15,training,zh2x,a,zh2x_a,zh2x_7_axa.wav,,axa.jpg,,,,,,,,,,,,,,,,,,,,,,,,,,,,,,,,,
5cc9c62a55b70600013702d3,2023-06-16_10h16.21.259,phx_ver10,2022.2.5,MacIntel,60.0024001,,,,,space,0.3309,0,44,44,36,1,37,training,zh2x,i,zh2x_i,zh2x_2_izhi.wav,,izhi.jpg,,,,,,,,,,,,,,,,,,,,,,,,,,,,,,,,,
5cc9c62a55b70600013702d3,2023-06-16_10h16.21.259,phx_ver10,2022.2.5,MacIntel,60.0024001,,,,,space,0.1882,0,45,45,29,1,30,training,zh2x,e,zh2x_e,zh2x_7_exe.wav,,exe.jpg,,,,,,,,,,,,,,,,,,,,,,,,,,,,,,,,,
5cc9c62a55b70600013702d3,2023-06-16_10h16.21.259,phx_ver10,2022.2.5,MacIntel,60.0024001,,,,,space,0.3178,0,46,46,28,1,29,training,zh2x,e,zh2x_e,zh2x_7_exe.wav,,exe.jpg,,,,,,,,,,,,,,,,,,,,,,,,,,,,,,,,,
5cc9c62a55b70600013702d3,2023-06-16_10h16.21.259,phx_ver10,2022.2.5,MacIntel,60.0024001,,,,,space,0.3209,0,47,47,1,1,2,training,zh2x,a,zh2x_a,zh2x_2_azha.wav,,azha.jpg,,,,,,,,,,,,,,,,,,,,,,,,,,,,,,,,,
5cc9c62a55b70600013702d3,2023-06-16_10h16.21.259,phx_ver10,2022.2.5,MacIntel,60.0024001,,,,,,,,,,,,,attn_test,,,,zh2x_8_axa.wav,zh2x_8_ixi.wav,axa.jpg,LEFT,,f,0.966,space,1.3811,,,,,,,,,,,,,,,,,,,,,,,,,,,
5cc9c62a55b70600013702d3,2023-06-16_10h16.21.259,phx_ver10,2022.2.5,MacIntel,60.0024001,,,,,,,,,,,,,,,,,,,,,,,,,,,,,,,space,0.1166,,,,,,,,,,,,,,,,,,,,
5cc9c62a55b70600013702d3,2023-06-16_10h16.21.259,phx_ver10,2022.2.5,MacIntel,60.0024001,,,,,,,,,,,,,,,,,,,,,,,,,,,,,,,,,space,2.5484,,,,,,,,,,,,,,,,,,
5cc9c62a55b70600013702d3,2023-06-16_10h16.21.259,phx_ver10,2022.2.5,MacIntel,60.0024001,,,,,,,,,,,,4,testing_pre,,,,eihei.wav,eihei.wav,,TRUE,,,,,,,,,,,,,,,f,0.0304,space,0.8108,0,0,0,3,1,,,,,,,,,
5cc9c62a55b70600013702d3,2023-06-16_10h16.21.259,phx_ver10,2022.2.5,MacIntel,60.0024001,,,,,,,,,,,,5,testing_pre,,,,ihi.wav,ifi.wav,,FALSE,,,,,,,,,,,,,,,j,0.2298,space,0.6626,0,1,1,4,1,,,,,,,,,
5cc9c62a55b70600013702d3,2023-06-16_10h16.21.259,phx_ver10,2022.2.5,MacIntel,60.0024001,,,,,,,,,,,,1,testing_pre,,,,ifi.wav,ifi.wav,,TRUE,,,,,,,,,,,,,,,f,0.3137,space,0.8128,0,2,2,0,1,,,,,,,,,
5cc9c62a55b70600013702d3,2023-06-16_10h16.21.259,phx_ver10,2022.2.5,MacIntel,60.0024001,,,,,,,,,,,,3,testing_pre,,,,afa.wav,aha.wav,,FALSE,,,,,,,,,,,,,,,j,0.346,space,1.0196,0,3,3,2,1,,,,,,,,,
5cc9c62a55b70600013702d3,2023-06-16_10h16.21.259,phx_ver10,2022.2.5,MacIntel,60.0024001,,,,,,,,,,,,2,testing_pre,,,,auhau.wav,aufau.wav,,FALSE,,,,,,,,,,,,,,,j,0.2328,space,0.6898,0,4,4,1,1,,,,,,,,,
5cc9c62a55b70600013702d3,2023-06-16_10h16.21.259,phx_ver10,2022.2.5,MacIntel,60.0024001,,,,,,,,,,,,,,,,,,,,,,,,,,,,,,,,,,,,,,,,,,,,space,0.4646,,,,,,,
5cc9c62a55b70600013702d3,2023-06-16_10h16.21.259,phx_ver10,2022.2.5,MacIntel,60.0024001,,,,,,,,,,,,62,testing_3,zh2j,e,zh2j_e,zh2j_8_eje.wav,zh2j_8_eje.wav,,TRUE,FALSE,,,,,,,,,,,,,,f,0.2184,space,0.7256,,,,,,,,0,0,0,61,1,,
5cc9c62a55b70600013702d3,2023-06-16_10h16.21.259,phx_ver10,2022.2.5,MacIntel,60.0024001,,,,,,,,,,,,141,testing_3,sh2j,i,sh2j_i,sh2j_1_ishi.wav,sh2j_1_ishi.wav,,TRUE,FALSE,,,,,,,,,,,,,,f,0.3375,space,0.6951,,,,,,,,0,1,1,140,1,,
5cc9c62a55b70600013702d3,2023-06-16_10h16.21.259,phx_ver10,2022.2.5,MacIntel,60.0024001,,,,,,,,,,,,8,testing_1,zh2x,e,zh2x_e,zh2x_8_exe.wav,zh2x_1_ezhe.wav,,FALSE,TRUE,,,,,,,,,,,,,,f,0.3145,space,0.676,,,,,,,,0,2,2,7,1,,
5cc9c62a55b70600013702d3,2023-06-16_10h16.21.259,phx_ver10,2022.2.5,MacIntel,60.0024001,,,,,,,,,,,,71,testing_3,zh2j,i,zh2j_i,zh2j_1_izhi.wav,zh2j_8_iji.wav,,FALSE,FALSE,,,,,,,,,,,,,,f,0.3551,space,0.9484,,,,,,,,0,3,3,70,1,,
5cc9c62a55b70600013702d3,2023-06-16_10h16.21.259,phx_ver10,2022.2.5,MacIntel,60.0024001,,,,,,,,,,,,77,testing_3,j2x,ai,j2x_ai,j2x_1_aijai.wav,j2x_1_aijai.wav,,TRUE,FALSE,,,,,,,,,,,,,,f,0.5826,space,0.879,,,,,,,,0,4,4,76,1,,
5cc9c62a55b70600013702d3,2023-06-16_10h16.21.259,phx_ver10,2022.2.5,MacIntel,60.0024001,,,,,,,,,,,,115,testing_3,sh2x,ei,sh2x_ei,sh2x_1_eishei.wav,sh2x_8_eixei.wav,,FALSE,FALSE,,,,,,,,,,,,,,f,0.4134,space,0.7097,,,,,,,,0,5,5,114,1,,
5cc9c62a55b70600013702d3,2023-06-16_10h16.21.259,phx_ver10,2022.2.5,MacIntel,60.0024001,,,,,,,,,,,,19,testing_2,zh2x,au,zh2x_au,zh2x_1_auzhau.wav,zh2x_8_auxau.wav,,FALSE,FALSE,,,,,,,,,,,,,,j,0.2991,space,0.6624,,,,,,,,0,6,6,18,1,,
5cc9c62a55b70600013702d3,2023-06-16_10h16.21.259,phx_ver10,2022.2.5,MacIntel,60.0024001,,,,,,,,,,,,39,testing_3,zh2sh,e,zh2sh_e,zh2sh_1_ezhe.wav,zh2sh_8_eshe.wav,,FALSE,FALSE,,,,,,,,,,,,,,j,0.4044,space,0.6747,,,,,,,,0,7,7,38,1,,
5cc9c62a55b70600013702d3,2023-06-16_10h16.21.259,phx_ver10,2022.2.5,MacIntel,60.0024001,,,,,,,,,,,,15,testing_2,zh2x,ai,zh2x_ai,zh2x_1_aizhai.wav,zh2x_8_aixai.wav,,FALSE,FALSE,,,,,,,,,,,,,,j,0.3747,space,0.7015,,,,,,,,0,8,8,14,1,,
5cc9c62a55b70600013702d3,2023-06-16_10h16.21.259,phx_ver10,2022.2.5,MacIntel,60.0024001,,,,,,,,,,,,16,testing_2,zh2x,ai,zh2x_ai,zh2x_8_aixai.wav,zh2x_1_aizhai.wav,,FALSE,FALSE,,,,,,,,,,,,,,j,0.3377,space,0.6759,,,,,,,,0,9,9,15,1,,
5cc9c62a55b70600013702d3,2023-06-16_10h16.21.259,phx_ver10,2022.2.5,MacIntel,60.0024001,,,,,,,,,,,,74,testing_3,j2x,a,j2x_a,j2x_8_axa.wav,j2x_8_axa.wav,,TRUE,FALSE,,,,,,,,,,,,,,f,0.305,space,0.5895,,,,,,,,0,10,10,73,1,,
5cc9c62a55b70600013702d3,2023-06-16_10h16.21.259,phx_ver10,2022.2.5,MacIntel,60.0024001,,,,,,,,,,,,14,testing_2,zh2x,ai,zh2x_ai,zh2x_8_aixai.wav,zh2x_8_aixai.wav,,TRUE,FALSE,,,,,,,,,,,,,,f,0.3413,space,0.6254,,,,,,,,0,11,11,13,1,,
5cc9c62a55b70600013702d3,2023-06-16_10h16.21.259,phx_ver10,2022.2.5,MacIntel,60.0024001,,,,,,,,,,,,35,testing_3,zh2sh,au,zh2sh_au,zh2sh_1_auzhau.wav,zh2sh_8_aushau.wav,,FALSE,FALSE,,,,,,,,,,,,,,j,0.3544,space,0.6512,,,,,,,,0,12,12,34,1,,
5cc9c62a55b70600013702d3,2023-06-16_10h16.21.259,phx_ver10,2022.2.5,MacIntel,60.0024001,,,,,,,,,,,,134,testing_3,sh2j,e,sh2j_e,sh2j_8_eje.wav,sh2j_8_eje.wav,,TRUE,FALSE,,,,,,,,,,,,,,f,0.3153,space,0.6009,,,,,,,,0,13,13,133,1,,
5cc9c62a55b70600013702d3,2023-06-16_10h16.21.259,phx_ver10,2022.2.5,MacIntel,60.0024001,,,,,,,,,,,,122,testing_3,sh2j,a,sh2j_a,sh2j_8_aja.wav,sh2j_8_aja.wav,,TRUE,FALSE,,,,,,,,,,,,,,f,0.373,space,0.6364,,,,,,,,0,14,14,121,1,,
5cc9c62a55b70600013702d3,2023-06-16_10h16.21.259,phx_ver10,2022.2.5,MacIntel,60.0024001,,,,,,,,,,,,72,testing_3,zh2j,i,zh2j_i,zh2j_8_iji.wav,zh2j_1_izhi.wav,,FALSE,FALSE,,,,,,,,,,,,,,f,0.3622,space,0.6166,,,,,,,,0,15,15,71,1,,
5cc9c62a55b70600013702d3,2023-06-16_10h16.21.259,phx_ver10,2022.2.5,MacIntel,60.0024001,,,,,,,,,,,,107,testing_3,sh2x,au,sh2x_au,sh2x_1_aushau.wav,sh2x_8_auxau.wav,,FALSE,FALSE,,,,,,,,,,,,,,j,0.3477,space,0.6165,,,,,,,,0,16,16,106,1,,
5cc9c62a55b70600013702d3,2023-06-16_10h16.21.259,phx_ver10,2022.2.5,MacIntel,60.0024001,,,,,,,,,,,,13,testing_2,zh2x,ai,zh2x_ai,zh2x_1_aizhai.wav,zh2x_1_aizhai.wav,,TRUE,FALSE,,,,,,,,,,,,,,f,0.2993,space,0.5547,,,,,,,,0,17,17,12,1,,
5cc9c62a55b70600013702d3,2023-06-16_10h16.21.259,phx_ver10,2022.2.5,MacIntel,60.0024001,,,,,,,,,,,,27,testing_3,zh2sh,a,zh2sh_a,zh2sh_1_azha.wav,zh2sh_8_asha.wav,,FALSE,FALSE,,,,,,,,,,,,,,j,0.3166,space,0.6296,,,,,,,,0,18,18,26,1,,
5cc9c62a55b70600013702d3,2023-06-16_10h16.21.259,phx_ver10,2022.2.5,MacIntel,60.0024001,,,,,,,,,,,,120,testing_3,sh2x,i,sh2x_i,sh2x_8_ixi.wav,sh2x_1_ishi.wav,,FALSE,FALSE,,,,,,,,,,,,,,f,0.1705,space,0.4844,,,,,,,,0,19,19,119,1,,
5cc9c62a55b70600013702d3,2023-06-16_10h16.21.259,phx_ver10,2022.2.5,MacIntel,60.0024001,,,,,,,,,,,,52,testing_3,zh2j,a,zh2j_a,zh2j_8_aja.wav,zh2j_1_azha.wav,,FALSE,FALSE,,,,,,,,,,,,,,f,0.2992,space,0.5672,,,,,,,,0,20,20,51,1,,
5cc9c62a55b70600013702d3,2023-06-16_10h16.21.259,phx_ver10,2022.2.5,MacIntel,60.0024001,,,,,,,,,,,,113,testing_3,sh2x,ei,sh2x_ei,sh2x_1_eishei.wav,sh2x_1_eishei.wav,,TRUE,FALSE,,,,,,,,,,,,,,f,0.2373,space,0.5497,,,,,,,,0,21,21,112,1,,
5cc9c62a55b70600013702d3,2023-06-16_10h16.21.259,phx_ver10,2022.2.5,MacIntel,60.0024001,,,,,,,,,,,,64,testing_3,zh2j,e,zh2j_e,zh2j_8_eje.wav,zh2j_1_ezhe.wav,,FALSE,FALSE,,,,,,,,,,,,,,f,0.3486,space,0.583,,,,,,,,0,22,22,63,1,,
5cc9c62a55b70600013702d3,2023-06-16_10h16.21.259,phx_ver10,2022.2.5,MacIntel,60.0024001,,,,,,,,,,,,70,testing_3,zh2j,i,zh2j_i,zh2j_8_iji.wav,zh2j_8_iji.wav,,TRUE,FALSE,,,,,,,,,,,,,,f,0.3722,space,0.6433,,,,,,,,0,23,23,69,1,,
5cc9c62a55b70600013702d3,2023-06-16_10h16.21.259,phx_ver10,2022.2.5,MacIntel,60.0024001,,,,,,,,,,,,123,testing_3,sh2j,a,sh2j_a,sh2j_1_asha.wav,sh2j_8_aja.wav,,FALSE,FALSE,,,,,,,,,,,,,,j,0.3677,space,0.6188,,,,,,,,0,24,24,122,1,,
5cc9c62a55b70600013702d3,2023-06-16_10h16.21.259,phx_ver10,2022.2.5,MacIntel,60.0024001,,,,,,,,,,,,6,testing_1,zh2x,e,zh2x_e,zh2x_8_exe.wav,zh2x_8_exe_copy.wav,,TRUE,TRUE,,,,,,,,,,,,,,f,0.6525,space,0.8631,,,,,,,,0,25,25,5,1,,
5cc9c62a55b70600013702d3,2023-06-16_10h16.21.259,phx_ver10,2022.2.5,MacIntel,60.0024001,,,,,,,,,,,,104,testing_3,sh2x,ai,sh2x_ai,sh2x_8_aixai.wav,sh2x_1_aishai.wav,,FALSE,FALSE,,,,,,,,,,,,,,f,0.3729,space,0.6034,,,,,,,,0,26,26,103,1,,
5cc9c62a55b70600013702d3,2023-06-16_10h16.21.259,phx_ver10,2022.2.5,MacIntel,60.0024001,,,,,,,,,,,,130,testing_3,sh2j,au,sh2j_au,sh2j_8_aujau.wav,sh2j_8_aujau.wav,,TRUE,FALSE,,,,,,,,,,,,,,f,0.2338,space,0.5177,,,,,,,,0,27,27,129,1,,
5cc9c62a55b70600013702d3,2023-06-16_10h16.21.259,phx_ver10,2022.2.5,MacIntel,60.0024001,,,,,,,,,,,,22,testing_2,zh2x,ei,zh2x_ei,zh2x_8_eixei.wav,zh2x_8_eixei.wav,,TRUE,FALSE,,,,,,,,,,,,,,f,0.2359,space,0.4864,,,,,,,,0,28,28,21,1,,
5cc9c62a55b70600013702d3,2023-06-16_10h16.21.259,phx_ver10,2022.2.5,MacIntel,60.0024001,,,,,,,,,,,,89,testing_3,j2x,ei,j2x_ei,j2x_1_eijei.wav,j2x_1_eijei.wav,,TRUE,FALSE,,,,,,,,,,,,,,f,0.2981,space,0.5308,,,,,,,,0,29,29,88,1,,
5cc9c62a55b70600013702d3,2023-06-16_10h16.21.259,phx_ver10,2022.2.5,MacIntel,60.0024001,,,,,,,,,,,,65,testing_3,zh2j,ei,zh2j_ei,zh2j_1_eizhei.wav,zh2j_1_eizhei.wav,,TRUE,FALSE,,,,,,,,,,,,,,f,0.0256,space,0.467,,,,,,,,0,30,30,64,1,,
5cc9c62a55b70600013702d3,2023-06-16_10h16.21.259,phx_ver10,2022.2.5,MacIntel,60.0024001,,,,,,,,,,,,25,testing_3,zh2sh,a,zh2sh_a,zh2sh_1_azha.wav,zh2sh_1_azha.wav,,TRUE,FALSE,,,,,,,,,,,,,,f,0.2709,space,0.5187,,,,,,,,0,31,31,24,1,,
5cc9c62a55b70600013702d3,2023-06-16_10h16.21.259,phx_ver10,2022.2.5,MacIntel,60.0024001,,,,,,,,,,,,53,testing_3,zh2j,ai,zh2j_ai,zh2j_1_aizhai.wav,zh2j_1_aizhai.wav,,TRUE,FALSE,,,,,,,,,,,,,,f,0.3128,space,0.5185,,,,,,,,0,32,32,52,1,,
5cc9c62a55b70600013702d3,2023-06-16_10h16.21.259,phx_ver10,2022.2.5,MacIntel,60.0024001,,,,,,,,,,,,23,testing_2,zh2x,ei,zh2x_ei,zh2x_1_eizhei.wav,zh2x_8_eixei.wav,,FALSE,FALSE,,,,,,,,,,,,,,j,0.269,space,0.5937,,,,,,,,0,33,33,22,1,,
5cc9c62a55b70600013702d3,2023-06-16_10h16.21.259,phx_ver10,2022.2.5,MacIntel,60.0024001,,,,,,,,,,,,92,testing_3,j2x,ei,j2x_ei,j2x_8_eixei.wav,j2x_1_eijei.wav,,FALSE,FALSE,,,,,,,,,,,,,,j,0.3029,space,0.5882,,,,,,,,0,34,34,91,1,,
5cc9c62a55b70600013702d3,2023-06-16_10h16.21.259,phx_ver10,2022.2.5,MacIntel,60.0024001,,,,,,,,,,,,76,testing_3,j2x,a,j2x_a,j2x_8_axa.wav,j2x_1_aja.wav,,FALSE,FALSE,,,,,,,,,,,,,,j,0.2031,space,0.5492,,,,,,,,0,35,35,75,1,,
5cc9c62a55b70600013702d3,2023-06-16_10h16.21.259,phx_ver10,2022.2.5,MacIntel,60.0024001,,,,,,,,,,,,67,testing_3,zh2j,ei,zh2j_ei,zh2j_1_eizhei.wav,zh2j_8_eijei.wav,,FALSE,FALSE,,,,,,,,,,,,,,f,0.186,space,0.4833,,,,,,,,0,36,36,66,1,,
5cc9c62a55b70600013702d3,2023-06-16_10h16.21.259,phx_ver10,2022.2.5,MacIntel,60.0024001,,,,,,,,,,,,32,testing_3,zh2sh,ai,zh2sh_ai,zh2sh_8_aishai.wav,zh2sh_1_aizhai.wav,,FALSE,FALSE,,,,,,,,,,,,,,j,0.288,space,0.7146,,,,,,,,0,37,37,31,1,,
5cc9c62a55b70600013702d3,2023-06-16_10h16.21.259,phx_ver10,2022.2.5,MacIntel,60.0024001,,,,,,,,,,,,43,testing_3,zh2sh,ei,zh2sh_ei,zh2sh_1_eizhei.wav,zh2sh_8_eishei.wav,,FALSE,FALSE,,,,,,,,,,,,,,j,0.3052,space,0.5747,,,,,,,,0,38,38,42,1,,
5cc9c62a55b70600013702d3,2023-06-16_10h16.21.259,phx_ver10,2022.2.5,MacIntel,60.0024001,,,,,,,,,,,,79,testing_3,j2x,ai,j2x_ai,j2x_1_aijai.wav,j2x_8_aixai.wav,,FALSE,FALSE,,,,,,,,,,,,,,j,0.3372,space,0.6006,,,,,,,,0,39,39,78,1,,
5cc9c62a55b70600013702d3,2023-06-16_10h16.21.259,phx_ver10,2022.2.5,MacIntel,60.0024001,,,,,,,,,,,,60,testing_3,zh2j,au,zh2j_au,zh2j_8_aujau.wav,zh2j_1_auzhau.wav,,FALSE,FALSE,,,,,,,,,,,,,,f,0.2953,space,0.6502,,,,,,,,0,40,40,59,1,,
5cc9c62a55b70600013702d3,2023-06-16_10h16.21.259,phx_ver10,2022.2.5,MacIntel,60.0024001,,,,,,,,,,,,91,testing_3,j2x,ei,j2x_ei,j2x_1_eijei.wav,j2x_8_eixei.wav,,FALSE,FALSE,,,,,,,,,,,,,,j,0.3497,space,0.9352,,,,,,,,0,41,41,90,1,,
5cc9c62a55b70600013702d3,2023-06-16_10h16.21.259,phx_ver10,2022.2.5,MacIntel,60.0024001,,,,,,,,,,,,86,testing_3,j2x,e,j2x_e,j2x_8_exe.wav,j2x_8_exe.wav,,TRUE,FALSE,,,,,,,,,,,,,,f,0.3322,space,0.6661,,,,,,,,0,42,42,85,1,,
5cc9c62a55b70600013702d3,2023-06-16_10h16.21.259,phx_ver10,2022.2.5,MacIntel,60.0024001,,,,,,,,,,,,44,testing_3,zh2sh,ei,zh2sh_ei,zh2sh_8_eishei.wav,zh2sh_1_eizhei.wav,,FALSE,FALSE,,,,,,,,,,,,,,j,0.3017,space,0.553,,,,,,,,0,43,43,43,1,,
5cc9c62a55b70600013702d3,2023-06-16_10h16.21.259,phx_ver10,2022.2.5,MacIntel,60.0024001,,,,,,,,,,,,105,testing_3,sh2x,au,sh2x_au,sh2x_1_aushau.wav,sh2x_1_aushau.wav,,TRUE,FALSE,,,,,,,,,,,,,,f,0.2532,space,0.6523,,,,,,,,0,44,44,104,1,,
5cc9c62a55b70600013702d3,2023-06-16_10h16.21.259,phx_ver10,2022.2.5,MacIntel,60.0024001,,,,,,,,,,,,17,testing_2,zh2x,au,zh2x_au,zh2x_1_auzhau.wav,zh2x_1_auzhau.wav,,TRUE,FALSE,,,,,,,,,,,,,,f,0.3318,space,0.6842,,,,,,,,0,45,45,16,1,,
5cc9c62a55b70600013702d3,2023-06-16_10h16.21.259,phx_ver10,2022.2.5,MacIntel,60.0024001,,,,,,,,,,,,144,testing_3,sh2j,i,sh2j_i,sh2j_8_iji.wav,sh2j_1_ishi.wav,,FALSE,FALSE,,,,,,,,,,,,,,j,0.3173,space,0.6019,,,,,,,,0,46,46,143,1,,
5cc9c62a55b70600013702d3,2023-06-16_10h16.21.259,phx_ver10,2022.2.5,MacIntel,60.0024001,,,,,,,,,,,,125,testing_3,sh2j,ai,sh2j_ai,sh2j_1_aishai.wav,sh2j_1_aishai.wav,,TRUE,FALSE,,,,,,,,,,,,,,f,0.1328,space,0.5331,,,,,,,,0,47,47,124,1,,
5cc9c62a55b70600013702d3,2023-06-16_10h16.21.259,phx_ver10,2022.2.5,MacIntel,60.0024001,,,,,,,,,,,,31,testing_3,zh2sh,ai,zh2sh_ai,zh2sh_1_aizhai.wav,zh2sh_8_aishai.wav,,FALSE,FALSE,,,,,,,,,,,,,,j,0.618,space,1.1481,,,,,,,,0,48,48,30,1,,
5cc9c62a55b70600013702d3,2023-06-16_10h16.21.259,phx_ver10,2022.2.5,MacIntel,60.0024001,,,,,,,,,,,,90,testing_3,j2x,ei,j2x_ei,j2x_8_eixei.wav,j2x_8_eixei.wav,,TRUE,FALSE,,,,,,,,,,,,,,f,0.4038,space,0.7221,,,,,,,,0,49,49,89,1,,
5cc9c62a55b70600013702d3,2023-06-16_10h16.21.259,phx_ver10,2022.2.5,MacIntel,60.0024001,,,,,,,,,,,,28,testing_3,zh2sh,a,zh2sh_a,zh2sh_8_asha.wav,zh2sh_1_azha.wav,,FALSE,FALSE,,,,,,,,,,,,,,j,0.2875,space,0.5926,,,,,,,,0,50,50,27,1,,
5cc9c62a55b70600013702d3,2023-06-16_10h16.21.259,phx_ver10,2022.2.5,MacIntel,60.0024001,,,,,,,,,,,,126,testing_3,sh2j,ai,sh2j_ai,sh2j_8_aijai.wav,sh2j_8_aijai.wav,,TRUE,FALSE,,,,,,,,,,,,,,f,0.3614,space,0.7095,,,,,,,,0,51,51,125,1,,
5cc9c62a55b70600013702d3,2023-06-16_10h16.21.259,phx_ver10,2022.2.5,MacIntel,60.0024001,,,,,,,,,,,,20,testing_2,zh2x,au,zh2x_au,zh2x_8_auxau.wav,zh2x_1_auzhau.wav,,FALSE,FALSE,,,,,,,,,,,,,,f,0.1868,space,0.7034,,,,,,,,0,52,52,19,1,,
5cc9c62a55b70600013702d3,2023-06-16_10h16.21.259,phx_ver10,2022.2.5,MacIntel,60.0024001,,,,,,,,,,,,128,testing_3,sh2j,ai,sh2j_ai,sh2j_8_aijai.wav,sh2j_1_aishai.wav,,FALSE,FALSE,,,,,,,,,,,,,,j,1.1847,space,1.5471,,,,,,,,0,53,53,127,1,,
5cc9c62a55b70600013702d3,2023-06-16_10h16.21.259,phx_ver10,2022.2.5,MacIntel,60.0024001,,,,,,,,,,,,48,testing_3,zh2sh,i,zh2sh_i,zh2sh_8_ishi.wav,zh2sh_1_izhi.wav,,FALSE,FALSE,,,,,,,,,,,,,,j,0.4936,space,1.1894,,,,,,,,0,54,54,47,1,,
5cc9c62a55b70600013702d3,2023-06-16_10h16.21.259,phx_ver10,2022.2.5,MacIntel,60.0024001,,,,,,,,,,,,12,testing_1,zh2x,i,zh2x_i,zh2x_8_ixi.wav,zh2x_1_izhi.wav,,FALSE,TRUE,,,,,,,,,,,,,,j,0.268,space,0.5837,,,,,,,,0,55,55,11,1,,
5cc9c62a55b70600013702d3,2023-06-16_10h16.21.259,phx_ver10,2022.2.5,MacIntel,60.0024001,,,,,,,,,,,,68,testing_3,zh2j,ei,zh2j_ei,zh2j_8_eijei.wav,zh2j_1_eizhei.wav,,FALSE,FALSE,,,,,,,,,,,,,,f,0.1826,space,0.513,,,,,,,,0,56,56,67,1,,
5cc9c62a55b70600013702d3,2023-06-16_10h16.21.259,phx_ver10,2022.2.5,MacIntel,60.0024001,,,,,,,,,,,,7,testing_1,zh2x,e,zh2x_e,zh2x_1_ezhe.wav,zh2x_8_exe.wav,,FALSE,TRUE,,,,,,,,,,,,,,f,1.2101,space,1.653,,,,,,,,0,57,57,6,1,,
5cc9c62a55b70600013702d3,2023-06-16_10h16.21.259,phx_ver10,2022.2.5,MacIntel,60.0024001,,,,,,,,,,,,121,testing_3,sh2j,a,sh2j_a,sh2j_1_asha.wav,sh2j_1_asha.wav,,TRUE,FALSE,,,,,,,,,,,,,,f,1.7031,space,2.0014,,,,,,,,0,58,58,120,1,,
5cc9c62a55b70600013702d3,2023-06-16_10h16.21.259,phx_ver10,2022.2.5,MacIntel,60.0024001,,,,,,,,,,,,102,testing_3,sh2x,ai,sh2x_ai,sh2x_8_aixai.wav,sh2x_8_aixai.wav,,TRUE,FALSE,,,,,,,,,,,,,,f,0.1341,space,0.4617,,,,,,,,0,59,59,101,1,,
5cc9c62a55b70600013702d3,2023-06-16_10h16.21.259,phx_ver10,2022.2.5,MacIntel,60.0024001,,,,,,,,,,,,98,testing_3,sh2x,a,sh2x_a,sh2x_8_axa.wav,sh2x_8_axa.wav,,TRUE,FALSE,,,,,,,,,,,,,,f,0.2057,space,0.5391,,,,,,,,0,60,60,97,1,,
5cc9c62a55b70600013702d3,2023-06-16_10h16.21.259,phx_ver10,2022.2.5,MacIntel,60.0024001,,,,,,,,,,,,137,testing_3,sh2j,ei,sh2j_ei,sh2j_1_eishei.wav,sh2j_1_eishei.wav,,TRUE,FALSE,,,,,,,,,,,,,,f,0.2894,space,0.6255,,,,,,,,0,61,61,136,1,,
5cc9c62a55b70600013702d3,2023-06-16_10h16.21.259,phx_ver10,2022.2.5,MacIntel,60.0024001,,,,,,,,,,,,54,testing_3,zh2j,ai,zh2j_ai,zh2j_8_aijai.wav,zh2j_8_aijai.wav,,TRUE,FALSE,,,,,,,,,,,,,,f,0.2655,space,0.5827,,,,,,,,0,62,62,53,1,,
5cc9c62a55b70600013702d3,2023-06-16_10h16.21.259,phx_ver10,2022.2.5,MacIntel,60.0024001,,,,,,,,,,,,81,testing_3,j2x,au,j2x_au,j2x_1_aujau.wav,j2x_1_aujau.wav,,TRUE,FALSE,,,,,,,,,,,,,,f,0.3081,space,0.8221,,,,,,,,0,63,63,80,1,,
5cc9c62a55b70600013702d3,2023-06-16_10h16.21.259,phx_ver10,2022.2.5,MacIntel,60.0024001,,,,,,,,,,,,88,testing_3,j2x,e,j2x_e,j2x_8_exe.wav,j2x_1_eje.wav,,FALSE,FALSE,,,,,,,,,,,,,,j,0.6024,space,0.9503,,,,,,,,0,64,64,87,1,,
5cc9c62a55b70600013702d3,2023-06-16_10h16.21.259,phx_ver10,2022.2.5,MacIntel,60.0024001,,,,,,,,,,,,139,testing_3,sh2j,ei,sh2j_ei,sh2j_1_eishei.wav,sh2j_8_eijei.wav,,FALSE,FALSE,,,,,,,,,,,,,,j,0.5291,space,0.7954,,,,,,,,0,65,65,138,1,,
5cc9c62a55b70600013702d3,2023-06-16_10h16.21.259,phx_ver10,2022.2.5,MacIntel,60.0024001,,,,,,,,,,,,114,testing_3,sh2x,ei,sh2x_ei,sh2x_8_eixei.wav,sh2x_8_eixei.wav,,TRUE,FALSE,,,,,,,,,,,,,,f,0.3414,space,0.7075,,,,,,,,0,66,66,113,1,,
5cc9c62a55b70600013702d3,2023-06-16_10h16.21.259,phx_ver10,2022.2.5,MacIntel,60.0024001,,,,,,,,,,,,103,testing_3,sh2x,ai,sh2x_ai,sh2x_1_aishai.wav,sh2x_8_aixai.wav,,FALSE,FALSE,,,,,,,,,,,,,,f,0.1856,space,0.5205,,,,,,,,0,67,67,102,1,,
5cc9c62a55b70600013702d3,2023-06-16_10h16.21.259,phx_ver10,2022.2.5,MacIntel,60.0024001,,,,,,,,,,,,30,testing_3,zh2sh,ai,zh2sh_ai,zh2sh_8_aishai.wav,zh2sh_8_aishai.wav,,TRUE,FALSE,,,,,,,,,,,,,,f,0.3286,space,0.6277,,,,,,,,0,68,68,29,1,,
5cc9c62a55b70600013702d3,2023-06-16_10h16.21.259,phx_ver10,2022.2.5,MacIntel,60.0024001,,,,,,,,,,,,101,testing_3,sh2x,ai,sh2x_ai,sh2x_1_aishai.wav,sh2x_1_aishai.wav,,TRUE,FALSE,,,,,,,,,,,,,,f,0.6008,space,0.8509,,,,,,,,0,69,69,100,1,,
5cc9c62a55b70600013702d3,2023-06-16_10h16.21.259,phx_ver10,2022.2.5,MacIntel,60.0024001,,,,,,,,,,,,108,testing_3,sh2x,au,sh2x_au,sh2x_8_auxau.wav,sh2x_1_aushau.wav,,FALSE,FALSE,,,,,,,,,,,,,,f,0.3843,space,0.6867,,,,,,,,0,70,70,107,1,,
5cc9c62a55b70600013702d3,2023-06-16_10h16.21.259,phx_ver10,2022.2.5,MacIntel,60.0024001,,,,,,,,,,,,80,testing_3,j2x,ai,j2x_ai,j2x_8_aixai.wav,j2x_1_aijai.wav,,FALSE,FALSE,,,,,,,,,,,,,,j,0.2363,space,0.6705,,,,,,,,0,71,71,79,1,,
5cc9c62a55b70600013702d3,2023-06-16_10h16.21.259,phx_ver10,2022.2.5,MacIntel,60.0024001,,,,,,,,,,,,55,testing_3,zh2j,ai,zh2j_ai,zh2j_1_aizhai.wav,zh2j_8_aijai.wav,,FALSE,FALSE,,,,,,,,,,,,,,f,0.3527,space,0.6473,,,,,,,,0,72,72,54,1,,
5cc9c62a55b70600013702d3,2023-06-16_10h16.21.259,phx_ver10,2022.2.5,MacIntel,60.0024001,,,,,,,,,,,,99,testing_3,sh2x,a,sh2x_a,sh2x_1_asha.wav,sh2x_8_axa.wav,,FALSE,FALSE,,,,,,,,,,,,,,f,0.2622,space,0.7155,,,,,,,,0,73,73,98,1,,
5cc9c62a55b70600013702d3,2023-06-16_10h16.21.259,phx_ver10,2022.2.5,MacIntel,60.0024001,,,,,,,,,,,,138,testing_3,sh2j,ei,sh2j_ei,sh2j_8_eijei.wav,sh2j_8_eijei.wav,,TRUE,FALSE,,,,,,,,,,,,,,f,0.2719,space,0.7374,,,,,,,,0,74,74,137,1,,
5cc9c62a55b70600013702d3,2023-06-16_10h16.21.259,phx_ver10,2022.2.5,MacIntel,60.0024001,,,,,,,,,,,,118,testing_3,sh2x,i,sh2x_i,sh2x_8_ixi.wav,sh2x_8_ixi.wav,,TRUE,FALSE,,,,,,,,,,,,,,f,0.3025,space,0.7856,,,,,,,,0,75,75,117,1,,
5cc9c62a55b70600013702d3,2023-06-16_10h16.21.259,phx_ver10,2022.2.5,MacIntel,60.0024001,,,,,,,,,,,,106,testing_3,sh2x,au,sh2x_au,sh2x_8_auxau.wav,sh2x_8_auxau.wav,,TRUE,FALSE,,,,,,,,,,,,,,f,0.1838,space,0.4802,,,,,,,,0,76,76,105,1,,
5cc9c62a55b70600013702d3,2023-06-16_10h16.21.259,phx_ver10,2022.2.5,MacIntel,60.0024001,,,,,,,,,,,,42,testing_3,zh2sh,ei,zh2sh_ei,zh2sh_8_eishei.wav,zh2sh_8_eishei.wav,,TRUE,FALSE,,,,,,,,,,,,,,f,0.3843,space,0.6981,,,,,,,,0,77,77,41,1,,
5cc9c62a55b70600013702d3,2023-06-16_10h16.21.259,phx_ver10,2022.2.5,MacIntel,60.0024001,,,,,,,,,,,,96,testing_3,j2x,i,j2x_i,j2x_8_ixi.wav,j2x_1_iji.wav,,FALSE,FALSE,,,,,,,,,,,,,,j,0.2282,space,0.6153,,,,,,,,0,78,78,95,1,,
5cc9c62a55b70600013702d3,2023-06-16_10h16.21.259,phx_ver10,2022.2.5,MacIntel,60.0024001,,,,,,,,,,,,38,testing_3,zh2sh,e,zh2sh_e,zh2sh_8_eshe.wav,zh2sh_8_eshe.wav,,TRUE,FALSE,,,,,,,,,,,,,,f,0.2837,space,0.5978,,,,,,,,0,79,79,37,1,,
5cc9c62a55b70600013702d3,2023-06-16_10h16.21.259,phx_ver10,2022.2.5,MacIntel,60.0024001,,,,,,,,,,,,18,testing_2,zh2x,au,zh2x_au,zh2x_8_auxau.wav,zh2x_8_auxau.wav,,TRUE,FALSE,,,,,,,,,,,,,,f,0.15,space,0.4839,,,,,,,,0,80,80,17,1,,
5cc9c62a55b70600013702d3,2023-06-16_10h16.21.259,phx_ver10,2022.2.5,MacIntel,60.0024001,,,,,,,,,,,,110,testing_3,sh2x,e,sh2x_e,sh2x_8_exe.wav,sh2x_8_exe.wav,,TRUE,FALSE,,,,,,,,,,,,,,f,0.1073,space,0.4779,,,,,,,,0,81,81,109,1,,
5cc9c62a55b70600013702d3,2023-06-16_10h16.21.259,phx_ver10,2022.2.5,MacIntel,60.0024001,,,,,,,,,,,,129,testing_3,sh2j,au,sh2j_au,sh2j_1_aushau.wav,sh2j_1_aushau.wav,,TRUE,FALSE,,,,,,,,,,,,,,f,0.0178,space,0.402,,,,,,,,0,82,82,128,1,,
5cc9c62a55b70600013702d3,2023-06-16_10h16.21.259,phx_ver10,2022.2.5,MacIntel,60.0024001,,,,,,,,,,,,59,testing_3,zh2j,au,zh2j_au,zh2j_1_auzhau.wav,zh2j_8_aujau.wav,,FALSE,FALSE,,,,,,,,,,,,,,f,0.2208,space,0.5027,,,,,,,,0,83,83,58,1,,
5cc9c62a55b70600013702d3,2023-06-16_10h16.21.259,phx_ver10,2022.2.5,MacIntel,60.0024001,,,,,,,,,,,,140,testing_3,sh2j,ei,sh2j_ei,sh2j_8_eijei.wav,sh2j_1_eishei.wav,,FALSE,FALSE,,,,,,,,,,,,,,j,0.2063,space,0.5382,,,,,,,,0,84,84,139,1,,
5cc9c62a55b70600013702d3,2023-06-16_10h16.21.259,phx_ver10,2022.2.5,MacIntel,60.0024001,,,,,,,,,,,,24,testing_2,zh2x,ei,zh2x_ei,zh2x_8_eixei.wav,zh2x_1_eizhei.wav,,FALSE,FALSE,,,,,,,,,,,,,,j,0.1372,space,0.4733,,,,,,,,0,85,85,23,1,,
5cc9c62a55b70600013702d3,2023-06-16_10h16.21.259,phx_ver10,2022.2.5,MacIntel,60.0024001,,,,,,,,,,,,10,testing_1,zh2x,i,zh2x_i,zh2x_8_ixi.wav,zh2x_8_ixi_copy.wav,,TRUE,TRUE,,,,,,,,,,,,,,f,0.0683,space,0.4718,,,,,,,,0,86,86,9,1,,
5cc9c62a55b70600013702d3,2023-06-16_10h16.21.259,phx_ver10,2022.2.5,MacIntel,60.0024001,,,,,,,,,,,,46,testing_3,zh2sh,i,zh2sh_i,zh2sh_8_ishi.wav,zh2sh_8_ishi.wav,,TRUE,FALSE,,,,,,,,,,,,,,f,0.0395,space,0.5241,,,,,,,,0,87,87,45,1,,
5cc9c62a55b70600013702d3,2023-06-16_10h16.21.259,phx_ver10,2022.2.5,MacIntel,60.0024001,,,,,,,,,,,,124,testing_3,sh2j,a,sh2j_a,sh2j_8_aja.wav,sh2j_1_asha.wav,,FALSE,FALSE,,,,,,,,,,,,,,j,0.1839,space,0.5717,,,,,,,,0,88,88,123,1,,
5cc9c62a55b70600013702d3,2023-06-16_10h16.21.259,phx_ver10,2022.2.5,MacIntel,60.0024001,,,,,,,,,,,,56,testing_3,zh2j,ai,zh2j_ai,zh2j_8_aijai.wav,zh2j_1_aizhai.wav,,FALSE,FALSE,,,,,,,,,,,,,,f,0.2845,space,0.6045,,,,,,,,0,89,89,55,1,,
5cc9c62a55b70600013702d3,2023-06-16_10h16.21.259,phx_ver10,2022.2.5,MacIntel,60.0024001,,,,,,,,,,,,131,testing_3,sh2j,au,sh2j_au,sh2j_1_aushau.wav,sh2j_8_aujau.wav,,FALSE,FALSE,,,,,,,,,,,,,,j,1.1698,space,1.451,,,,,,,,0,90,90,130,1,,
5cc9c62a55b70600013702d3,2023-06-16_10h16.21.259,phx_ver10,2022.2.5,MacIntel,60.0024001,,,,,,,,,,,,73,testing_3,j2x,a,j2x_a,j2x_1_aja.wav,j2x_1_aja.wav,,TRUE,FALSE,,,,,,,,,,,,,,f,0.2517,space,0.6023,,,,,,,,0,91,91,72,1,,
5cc9c62a55b70600013702d3,2023-06-16_10h16.21.259,phx_ver10,2022.2.5,MacIntel,60.0024001,,,,,,,,,,,,135,testing_3,sh2j,e,sh2j_e,sh2j_1_eshe.wav,sh2j_8_eje.wav,,FALSE,FALSE,,,,,,,,,,,,,,j,0.2852,space,0.5841,,,,,,,,0,92,92,134,1,,
5cc9c62a55b70600013702d3,2023-06-16_10h16.21.259,phx_ver10,2022.2.5,MacIntel,60.0024001,,,,,,,,,,,,2,testing_1,zh2x,a,zh2x_a,zh2x_8_axa.wav,zh2x_8_axa_copy.wav,,TRUE,TRUE,,,,,,,,,,,,,,f,0.2364,space,0.6177,,,,,,,,0,93,93,1,1,,
5cc9c62a55b70600013702d3,2023-06-16_10h16.21.259,phx_ver10,2022.2.5,MacIntel,60.0024001,,,,,,,,,,,,112,testing_3,sh2x,e,sh2x_e,sh2x_8_exe.wav,sh2x_1_eshe.wav,,FALSE,FALSE,,,,,,,,,,,,,,f,0.0736,space,0.4479,,,,,,,,0,94,94,111,1,,
5cc9c62a55b70600013702d3,2023-06-16_10h16.21.259,phx_ver10,2022.2.5,MacIntel,60.0024001,,,,,,,,,,,,1,testing_1,zh2x,a,zh2x_a,zh2x_1_azha.wav,zh2x_1_azha_copy.wav,,TRUE,TRUE,,,,,,,,,,,,,,f,0.1403,space,0.4915,,,,,,,,0,95,95,0,1,,
5cc9c62a55b70600013702d3,2023-06-16_10h16.21.259,phx_ver10,2022.2.5,MacIntel,60.0024001,,,,,,,,,,,,29,testing_3,zh2sh,ai,zh2sh_ai,zh2sh_1_aizhai.wav,zh2sh_1_aizhai.wav,,TRUE,FALSE,,,,,,,,,,,,,,f,0.3,space,0.6883,,,,,,,,0,96,96,28,1,,
5cc9c62a55b70600013702d3,2023-06-16_10h16.21.259,phx_ver10,2022.2.5,MacIntel,60.0024001,,,,,,,,,,,,119,testing_3,sh2x,i,sh2x_i,sh2x_1_ishi.wav,sh2x_8_ixi.wav,,FALSE,FALSE,,,,,,,,,,,,,,f,0.216,space,0.5865,,,,,,,,0,97,97,118,1,,
5cc9c62a55b70600013702d3,2023-06-16_10h16.21.259,phx_ver10,2022.2.5,MacIntel,60.0024001,,,,,,,,,,,,116,testing_3,sh2x,ei,sh2x_ei,sh2x_8_eixei.wav,sh2x_1_eishei.wav,,FALSE,FALSE,,,,,,,,,,,,,,f,0.1732,space,0.4864,,,,,,,,0,98,98,115,1,,
5cc9c62a55b70600013702d3,2023-06-16_10h16.21.259,phx_ver10,2022.2.5,MacIntel,60.0024001,,,,,,,,,,,,61,testing_3,zh2j,e,zh2j_e,zh2j_1_ezhe.wav,zh2j_1_ezhe.wav,,TRUE,FALSE,,,,,,,,,,,,,,f,0.2016,space,0.4992,,,,,,,,0,99,99,60,1,,
5cc9c62a55b70600013702d3,2023-06-16_10h16.21.259,phx_ver10,2022.2.5,MacIntel,60.0024001,,,,,,,,,,,,45,testing_3,zh2sh,i,zh2sh_i,zh2sh_1_izhi.wav,zh2sh_1_izhi.wav,,TRUE,FALSE,,,,,,,,,,,,,,f,0.2876,space,0.5672,,,,,,,,0,100,100,44,1,,
5cc9c62a55b70600013702d3,2023-06-16_10h16.21.259,phx_ver10,2022.2.5,MacIntel,60.0024001,,,,,,,,,,,,69,testing_3,zh2j,i,zh2j_i,zh2j_1_izhi.wav,zh2j_1_izhi.wav,,TRUE,FALSE,,,,,,,,,,,,,,f,0.133,space,0.4849,,,,,,,,0,101,101,68,1,,
5cc9c62a55b70600013702d3,2023-06-16_10h16.21.259,phx_ver10,2022.2.5,MacIntel,60.0024001,,,,,,,,,,,,9,testing_1,zh2x,i,zh2x_i,zh2x_1_izhi.wav,zh2x_1_izhi_copy.wav,,TRUE,TRUE,,,,,,,,,,,,,,f,0.1864,space,0.4926,,,,,,,,0,102,102,8,1,,
5cc9c62a55b70600013702d3,2023-06-16_10h16.21.259,phx_ver10,2022.2.5,MacIntel,60.0024001,,,,,,,,,,,,51,testing_3,zh2j,a,zh2j_a,zh2j_1_azha.wav,zh2j_8_aja.wav,,FALSE,FALSE,,,,,,,,,,,,,,f,0.0708,space,0.4079,,,,,,,,0,103,103,50,1,,
5cc9c62a55b70600013702d3,2023-06-16_10h16.21.259,phx_ver10,2022.2.5,MacIntel,60.0024001,,,,,,,,,,,,37,testing_3,zh2sh,e,zh2sh_e,zh2sh_1_ezhe.wav,zh2sh_1_ezhe.wav,,TRUE,FALSE,,,,,,,,,,,,,,f,0.3095,space,0.5347,,,,,,,,0,104,104,36,1,,
5cc9c62a55b70600013702d3,2023-06-16_10h16.21.259,phx_ver10,2022.2.5,MacIntel,60.0024001,,,,,,,,,,,,94,testing_3,j2x,i,j2x_i,j2x_8_ixi.wav,j2x_8_ixi.wav,,TRUE,FALSE,,,,,,,,,,,,,,f,0.1548,space,0.4828,,,,,,,,0,105,105,93,1,,
5cc9c62a55b70600013702d3,2023-06-16_10h16.21.259,phx_ver10,2022.2.5,MacIntel,60.0024001,,,,,,,,,,,,47,testing_3,zh2sh,i,zh2sh_i,zh2sh_1_izhi.wav,zh2sh_8_ishi.wav,,FALSE,FALSE,,,,,,,,,,,,,,j,0.1993,space,0.5285,,,,,,,,0,106,106,46,1,,
5cc9c62a55b70600013702d3,2023-06-16_10h16.21.259,phx_ver10,2022.2.5,MacIntel,60.0024001,,,,,,,,,,,,58,testing_3,zh2j,au,zh2j_au,zh2j_8_aujau.wav,zh2j_8_aujau.wav,,TRUE,FALSE,,,,,,,,,,,,,,f,0.1967,space,0.5172,,,,,,,,0,107,107,57,1,,
5cc9c62a55b70600013702d3,2023-06-16_10h16.21.259,phx_ver10,2022.2.5,MacIntel,60.0024001,,,,,,,,,,,,75,testing_3,j2x,a,j2x_a,j2x_1_aja.wav,j2x_8_axa.wav,,FALSE,FALSE,,,,,,,,,,,,,,j,0.2407,space,0.5229,,,,,,,,0,108,108,74,1,,
5cc9c62a55b70600013702d3,2023-06-16_10h16.21.259,phx_ver10,2022.2.5,MacIntel,60.0024001,,,,,,,,,,,,127,testing_3,sh2j,ai,sh2j_ai,sh2j_1_aishai.wav,sh2j_8_aijai.wav,,FALSE,FALSE,,,,,,,,,,,,,,j,0.3046,space,0.5714,,,,,,,,0,109,109,126,1,,
5cc9c62a55b70600013702d3,2023-06-16_10h16.21.259,phx_ver10,2022.2.5,MacIntel,60.0024001,,,,,,,,,,,,87,testing_3,j2x,e,j2x_e,j2x_1_eje.wav,j2x_8_exe.wav,,FALSE,FALSE,,,,,,,,,,,,,,j,0.2052,space,0.5858,,,,,,,,0,110,110,86,1,,
5cc9c62a55b70600013702d3,2023-06-16_10h16.21.259,phx_ver10,2022.2.5,MacIntel,60.0024001,,,,,,,,,,,,3,testing_1,zh2x,a,zh2x_a,zh2x_1_azha.wav,zh2x_8_axa.wav,,FALSE,TRUE,,,,,,,,,,,,,,j,0.1836,space,0.5517,,,,,,,,0,111,111,2,1,,
5cc9c62a55b70600013702d3,2023-06-16_10h16.21.259,phx_ver10,2022.2.5,MacIntel,60.0024001,,,,,,,,,,,,26,testing_3,zh2sh,a,zh2sh_a,zh2sh_8_asha.wav,zh2sh_8_asha.wav,,TRUE,FALSE,,,,,,,,,,,,,,f,0.0719,space,0.4684,,,,,,,,0,112,112,25,1,,
5cc9c62a55b70600013702d3,2023-06-16_10h16.21.259,phx_ver10,2022.2.5,MacIntel,60.0024001,,,,,,,,,,,,84,testing_3,j2x,au,j2x_au,j2x_8_auxau.wav,j2x_1_aujau.wav,,FALSE,FALSE,,,,,,,,,,,,,,f,0.2177,space,0.5834,,,,,,,,0,113,113,83,1,,
5cc9c62a55b70600013702d3,2023-06-16_10h16.21.259,phx_ver10,2022.2.5,MacIntel,60.0024001,,,,,,,,,,,,95,testing_3,j2x,i,j2x_i,j2x_1_iji.wav,j2x_8_ixi.wav,,FALSE,FALSE,,,,,,,,,,,,,,f,0.5831,space,0.7327,,,,,,,,0,114,114,94,1,,
5cc9c62a55b70600013702d3,2023-06-16_10h16.21.259,phx_ver10,2022.2.5,MacIntel,60.0024001,,,,,,,,,,,,36,testing_3,zh2sh,au,zh2sh_au,zh2sh_8_aushau.wav,zh2sh_1_auzhau.wav,,FALSE,FALSE,,,,,,,,,,,,,,j,0.2743,space,0.5968,,,,,,,,0,115,115,35,1,,
5cc9c62a55b70600013702d3,2023-06-16_10h16.21.259,phx_ver10,2022.2.5,MacIntel,60.0024001,,,,,,,,,,,,109,testing_3,sh2x,e,sh2x_e,sh2x_1_eshe.wav,sh2x_1_eshe.wav,,TRUE,FALSE,,,,,,,,,,,,,,f,0.1346,space,0.4486,,,,,,,,0,116,116,108,1,,
5cc9c62a55b70600013702d3,2023-06-16_10h16.21.259,phx_ver10,2022.2.5,MacIntel,60.0024001,,,,,,,,,,,,78,testing_3,j2x,ai,j2x_ai,j2x_8_aixai.wav,j2x_8_aixai.wav,,TRUE,FALSE,,,,,,,,,,,,,,f,0.2187,space,0.5354,,,,,,,,0,117,117,77,1,,
5cc9c62a55b70600013702d3,2023-06-16_10h16.21.259,phx_ver10,2022.2.5,MacIntel,60.0024001,,,,,,,,,,,,83,testing_3,j2x,au,j2x_au,j2x_1_aujau.wav,j2x_8_auxau.wav,,FALSE,FALSE,,,,,,,,,,,,,,j,0.3681,space,0.6341,,,,,,,,0,118,118,82,1,,
5cc9c62a55b70600013702d3,2023-06-16_10h16.21.259,phx_ver10,2022.2.5,MacIntel,60.0024001,,,,,,,,,,,,66,testing_3,zh2j,ei,zh2j_ei,zh2j_8_eijei.wav,zh2j_8_eijei.wav,,TRUE,FALSE,,,,,,,,,,,,,,f,0.2189,space,0.5355,,,,,,,,0,119,119,65,1,,
5cc9c62a55b70600013702d3,2023-06-16_10h16.21.259,phx_ver10,2022.2.5,MacIntel,60.0024001,,,,,,,,,,,,117,testing_3,sh2x,i,sh2x_i,sh2x_1_ishi.wav,sh2x_1_ishi.wav,,TRUE,FALSE,,,,,,,,,,,,,,f,0.3521,space,0.8323,,,,,,,,0,120,120,116,1,,
5cc9c62a55b70600013702d3,2023-06-16_10h16.21.259,phx_ver10,2022.2.5,MacIntel,60.0024001,,,,,,,,,,,,97,testing_3,sh2x,a,sh2x_a,sh2x_1_asha.wav,sh2x_1_asha.wav,,TRUE,FALSE,,,,,,,,,,,,,,f,0.3491,space,0.8363,,,,,,,,0,121,121,96,1,,
5cc9c62a55b70600013702d3,2023-06-16_10h16.21.259,phx_ver10,2022.2.5,MacIntel,60.0024001,,,,,,,,,,,,57,testing_3,zh2j,au,zh2j_au,zh2j_1_auzhau.wav,zh2j_1_auzhau.wav,,TRUE,FALSE,,,,,,,,,,,,,,f,0.4512,space,0.8174,,,,,,,,0,122,122,56,1,,
5cc9c62a55b70600013702d3,2023-06-16_10h16.21.259,phx_ver10,2022.2.5,MacIntel,60.0024001,,,,,,,,,,,,50,testing_3,zh2j,a,zh2j_a,zh2j_8_aja.wav,zh2j_8_aja.wav,,TRUE,FALSE,,,,,,,,,,,,,,f,0.2011,space,0.5343,,,,,,,,0,123,123,49,1,,
5cc9c62a55b70600013702d3,2023-06-16_10h16.21.259,phx_ver10,2022.2.5,MacIntel,60.0024001,,,,,,,,,,,,143,testing_3,sh2j,i,sh2j_i,sh2j_1_ishi.wav,sh2j_8_iji.wav,,FALSE,FALSE,,,,,,,,,,,,,,j,0.1678,space,0.6005,,,,,,,,0,124,124,142,1,,
5cc9c62a55b70600013702d3,2023-06-16_10h16.21.259,phx_ver10,2022.2.5,MacIntel,60.0024001,,,,,,,,,,,,34,testing_3,zh2sh,au,zh2sh_au,zh2sh_8_aushau.wav,zh2sh_8_aushau.wav,,TRUE,FALSE,,,,,,,,,,,,,,f,0.3308,space,0.6503,,,,,,,,0,125,125,33,1,,
5cc9c62a55b70600013702d3,2023-06-16_10h16.21.259,phx_ver10,2022.2.5,MacIntel,60.0024001,,,,,,,,,,,,49,testing_3,zh2j,a,zh2j_a,zh2j_1_azha.wav,zh2j_1_azha.wav,,TRUE,FALSE,,,,,,,,,,,,,,f,0.1691,space,0.4986,,,,,,,,0,126,126,48,1,,
5cc9c62a55b70600013702d3,2023-06-16_10h16.21.259,phx_ver10,2022.2.5,MacIntel,60.0024001,,,,,,,,,,,,93,testing_3,j2x,i,j2x_i,j2x_1_iji.wav,j2x_1_iji.wav,,TRUE,FALSE,,,,,,,,,,,,,,f,0.3194,space,0.7189,,,,,,,,0,127,127,92,1,,
5cc9c62a55b70600013702d3,2023-06-16_10h16.21.259,phx_ver10,2022.2.5,MacIntel,60.0024001,,,,,,,,,,,,40,testing_3,zh2sh,e,zh2sh_e,zh2sh_8_eshe.wav,zh2sh_1_ezhe.wav,,FALSE,FALSE,,,,,,,,,,,,,,f,0.9685,space,1.2656,,,,,,,,0,128,128,39,1,,
5cc9c62a55b70600013702d3,2023-06-16_10h16.21.259,phx_ver10,2022.2.5,MacIntel,60.0024001,,,,,,,,,,,,11,testing_1,zh2x,i,zh2x_i,zh2x_1_izhi.wav,zh2x_8_ixi.wav,,FALSE,TRUE,,,,,,,,,,,,,,f,0.2096,space,0.642,,,,,,,,0,129,129,10,1,,
5cc9c62a55b70600013702d3,2023-06-16_10h16.21.259,phx_ver10,2022.2.5,MacIntel,60.0024001,,,,,,,,,,,,136,testing_3,sh2j,e,sh2j_e,sh2j_8_eje.wav,sh2j_1_eshe.wav,,FALSE,FALSE,,,,,,,,,,,,,,j,0.4812,space,1.1709,,,,,,,,0,130,130,135,1,,
5cc9c62a55b70600013702d3,2023-06-16_10h16.21.259,phx_ver10,2022.2.5,MacIntel,60.0024001,,,,,,,,,,,,133,testing_3,sh2j,e,sh2j_e,sh2j_1_eshe.wav,sh2j_1_eshe.wav,,TRUE,FALSE,,,,,,,,,,,,,,f,0.3218,space,0.6878,,,,,,,,0,131,131,132,1,,
5cc9c62a55b70600013702d3,2023-06-16_10h16.21.259,phx_ver10,2022.2.5,MacIntel,60.0024001,,,,,,,,,,,,63,testing_3,zh2j,e,zh2j_e,zh2j_1_ezhe.wav,zh2j_8_eje.wav,,FALSE,FALSE,,,,,,,,,,,,,,f,0.0756,space,0.4012,,,,,,,,0,132,132,62,1,,
5cc9c62a55b70600013702d3,2023-06-16_10h16.21.259,phx_ver10,2022.2.5,MacIntel,60.0024001,,,,,,,,,,,,21,testing_2,zh2x,ei,zh2x_ei,zh2x_1_eizhei.wav,zh2x_1_eizhei.wav,,TRUE,FALSE,,,,,,,,,,,,,,f,0.9698,space,1.1503,,,,,,,,0,133,133,20,1,,
5cc9c62a55b70600013702d3,2023-06-16_10h16.21.259,phx_ver10,2022.2.5,MacIntel,60.0024001,,,,,,,,,,,,111,testing_3,sh2x,e,sh2x_e,sh2x_1_eshe.wav,sh2x_8_exe.wav,,FALSE,FALSE,,,,,,,,,,,,,,f,0.0705,space,0.3876,,,,,,,,0,134,134,110,1,,
5cc9c62a55b70600013702d3,2023-06-16_10h16.21.259,phx_ver10,2022.2.5,MacIntel,60.0024001,,,,,,,,,,,,132,testing_3,sh2j,au,sh2j_au,sh2j_8_aujau.wav,sh2j_1_aushau.wav,,FALSE,FALSE,,,,,,,,,,,,,,f,0.236,space,0.5344,,,,,,,,0,135,135,131,1,,
5cc9c62a55b70600013702d3,2023-06-16_10h16.21.259,phx_ver10,2022.2.5,MacIntel,60.0024001,,,,,,,,,,,,41,testing_3,zh2sh,ei,zh2sh_ei,zh2sh_1_eizhei.wav,zh2sh_1_eizhei.wav,,TRUE,FALSE,,,,,,,,,,,,,,f,0.2402,space,0.8579,,,,,,,,0,136,136,40,1,,
5cc9c62a55b70600013702d3,2023-06-16_10h16.21.259,phx_ver10,2022.2.5,MacIntel,60.0024001,,,,,,,,,,,,142,testing_3,sh2j,i,sh2j_i,sh2j_8_iji.wav,sh2j_8_iji.wav,,TRUE,FALSE,,,,,,,,,,,,,,f,0.1363,space,0.4889,,,,,,,,0,137,137,141,1,,
5cc9c62a55b70600013702d3,2023-06-16_10h16.21.259,phx_ver10,2022.2.5,MacIntel,60.0024001,,,,,,,,,,,,85,testing_3,j2x,e,j2x_e,j2x_1_eje.wav,j2x_1_eje.wav,,TRUE,FALSE,,,,,,,,,,,,,,f,0.2683,space,0.4831,,,,,,,,0,138,138,84,1,,
5cc9c62a55b70600013702d3,2023-06-16_10h16.21.259,phx_ver10,2022.2.5,MacIntel,60.0024001,,,,,,,,,,,,82,testing_3,j2x,au,j2x_au,j2x_8_auxau.wav,j2x_8_auxau.wav,,TRUE,FALSE,,,,,,,,,,,,,,f,0.0855,space,0.3801,,,,,,,,0,139,139,81,1,,
5cc9c62a55b70600013702d3,2023-06-16_10h16.21.259,phx_ver10,2022.2.5,MacIntel,60.0024001,,,,,,,,,,,,33,testing_3,zh2sh,au,zh2sh_au,zh2sh_1_auzhau.wav,zh2sh_1_auzhau.wav,,TRUE,FALSE,,,,,,,,,,,,,,f,0.235,space,0.5945,,,,,,,,0,140,140,32,1,,
5cc9c62a55b70600013702d3,2023-06-16_10h16.21.259,phx_ver10,2022.2.5,MacIntel,60.0024001,,,,,,,,,,,,5,testing_1,zh2x,e,zh2x_e,zh2x_1_ezhe.wav,zh2x_1_ezhe_copy.wav,,TRUE,TRUE,,,,,,,,,,,,,,f,0.0657,space,0.4315,,,,,,,,0,141,141,4,1,,
5cc9c62a55b70600013702d3,2023-06-16_10h16.21.259,phx_ver10,2022.2.5,MacIntel,60.0024001,,,,,,,,,,,,100,testing_3,sh2x,a,sh2x_a,sh2x_8_axa.wav,sh2x_1_asha.wav,,FALSE,FALSE,,,,,,,,,,,,,,f,0.3214,space,0.658,,,,,,,,0,142,142,99,1,,
5cc9c62a55b70600013702d3,2023-06-16_10h16.21.259,phx_ver10,2022.2.5,MacIntel,60.0024001,,,,,,,,,,,,4,testing_1,zh2x,a,zh2x_a,zh2x_8_axa.wav,zh2x_1_azha.wav,,FALSE,TRUE,,,,,,,,,,,,,,f,1.0019,space,1.3905,,,,,,,,0,143,143,3,1,,
5cc9c62a55b70600013702d3,2023-06-16_10h16.21.259,phx_ver10,2022.2.5,MacIntel,60.0024001,,,,,,,,,,,,,,,,,,,,,,,,,,,,,,,,,,,,,,,,,,,,,,,,,,,space,2.7346
