participant,date,expName,psychopyVersion,OS,frameRate,space_1.keys,space_1.rt,space_2.keys,space_2.rt,space_train.keys,space_train.rt,training.thisRepN,training.thisTrialN,training.thisN,training.thisIndex,training.ran,token_id,task,continuum,vowel,series,sound_1,sound_2,img,same,trained,FJ_attn.keys,FJ_attn.rt,space_attn.keys,space_attn.rt,if_attn_test.thisRepN,if_attn_test.thisTrialN,if_attn_test.thisN,if_attn_test.thisIndex,if_attn_test.ran,space_trans_1.keys,space_trans_1.rt,space_trans_11.keys,space_trans_11.rt,FJ_test.keys,FJ_test.rt,space_test.keys,space_test.rt,testing_pre.thisRepN,testing_pre.thisTrialN,testing_pre.thisN,testing_pre.thisIndex,testing_pre.ran,space_trans_2.keys,space_trans_2.rt,testing_all.thisRepN,testing_all.thisTrialN,testing_all.thisN,testing_all.thisIndex,testing_all.ran,space_ending.keys,space_ending.rt
5d03d07ff00f5100014d1204,2023-06-16_10h12.23.114,phx_ver10,2022.2.5,Win32,59.99160118,,,,,,,,,,,,,,,,,,,,,,,,,,,,,,,,,,,,,,,,,,,,,,,,,,,,
5d03d07ff00f5100014d1204,2023-06-16_10h12.23.114,phx_ver10,2022.2.5,Win32,59.99160118,space,2.9446,,,,,,,,,,,,,,,,,,,,,,,,,,,,,,,,,,,,,,,,,,,,,,,,,,
5d03d07ff00f5100014d1204,2023-06-16_10h12.23.114,phx_ver10,2022.2.5,Win32,59.99160118,,,space,0.5468,,,,,,,,,,,,,,,,,,,,,,,,,,,,,,,,,,,,,,,,,,,,,,,,
5d03d07ff00f5100014d1204,2023-06-16_10h12.23.114,phx_ver10,2022.2.5,Win32,59.99160118,,,,,space,2.9357,0,0,0,7,1,8,training,zh2x,a,zh2x_a,zh2x_4_azha.wav,,azha.jpg,,,,,,,,,,,,,,,,,,,,,,,,,,,,,,,,,
5d03d07ff00f5100014d1204,2023-06-16_10h12.23.114,phx_ver10,2022.2.5,Win32,59.99160118,,,,,space,1.7663,0,1,1,5,1,6,training,zh2x,a,zh2x_a,zh2x_3_azha.wav,,azha.jpg,,,,,,,,,,,,,,,,,,,,,,,,,,,,,,,,,
5d03d07ff00f5100014d1204,2023-06-16_10h12.23.114,phx_ver10,2022.2.5,Win32,59.99160118,,,,,space,3.3636,0,2,2,17,1,18,training,zh2x,e,zh2x_e,zh2x_2_ezhe.wav,,ezhe.jpg,,,,,,,,,,,,,,,,,,,,,,,,,,,,,,,,,
5d03d07ff00f5100014d1204,2023-06-16_10h12.23.114,phx_ver10,2022.2.5,Win32,59.99160118,,,,,space,1.1352,0,3,3,4,1,5,training,zh2x,a,zh2x_a,zh2x_2_azha.wav,,azha.jpg,,,,,,,,,,,,,,,,,,,,,,,,,,,,,,,,,
5d03d07ff00f5100014d1204,2023-06-16_10h12.23.114,phx_ver10,2022.2.5,Win32,59.99160118,,,,,space,0.9053,0,4,4,21,1,22,training,zh2x,e,zh2x_e,zh2x_3_ezhe.wav,,ezhe.jpg,,,,,,,,,,,,,,,,,,,,,,,,,,,,,,,,,
5d03d07ff00f5100014d1204,2023-06-16_10h12.23.114,phx_ver10,2022.2.5,Win32,59.99160118,,,,,space,1.7184,0,5,5,35,1,36,training,zh2x,i,zh2x_i,zh2x_2_izhi.wav,,izhi.jpg,,,,,,,,,,,,,,,,,,,,,,,,,,,,,,,,,
5d03d07ff00f5100014d1204,2023-06-16_10h12.23.114,phx_ver10,2022.2.5,Win32,59.99160118,,,,,,,,,,,,,attn_test,,,,zh2x_1_azha.wav,zh2x_8_axa.wav,azha.jpg,LEFT,,f,0.2011,space,3.2459,0,0,0,0,1,,,,,,,,,,,,,,,,,,,,,,
5d03d07ff00f5100014d1204,2023-06-16_10h12.23.114,phx_ver10,2022.2.5,Win32,59.99160118,,,,,space,0.7764,0,6,6,38,1,39,training,zh2x,i,zh2x_i,zh2x_3_izhi.wav,,izhi.jpg,,,,,,,,,,,,,,,,,,,,,,,,,,,,,,,,,
5d03d07ff00f5100014d1204,2023-06-16_10h12.23.114,phx_ver10,2022.2.5,Win32,59.99160118,,,,,space,0.3575,0,7,7,32,1,33,training,zh2x,i,zh2x_i,zh2x_1_izhi.wav,,izhi.jpg,,,,,,,,,,,,,,,,,,,,,,,,,,,,,,,,,
5d03d07ff00f5100014d1204,2023-06-16_10h12.23.114,phx_ver10,2022.2.5,Win32,59.99160118,,,,,space,0.404,0,8,8,36,1,37,training,zh2x,i,zh2x_i,zh2x_2_izhi.wav,,izhi.jpg,,,,,,,,,,,,,,,,,,,,,,,,,,,,,,,,,
5d03d07ff00f5100014d1204,2023-06-16_10h12.23.114,phx_ver10,2022.2.5,Win32,59.99160118,,,,,space,0.7043,0,9,9,28,1,29,training,zh2x,e,zh2x_e,zh2x_7_exe.wav,,exe.jpg,,,,,,,,,,,,,,,,,,,,,,,,,,,,,,,,,
5d03d07ff00f5100014d1204,2023-06-16_10h12.23.114,phx_ver10,2022.2.5,Win32,59.99160118,,,,,space,0.487,0,10,10,6,1,7,training,zh2x,a,zh2x_a,zh2x_3_azha.wav,,azha.jpg,,,,,,,,,,,,,,,,,,,,,,,,,,,,,,,,,
5d03d07ff00f5100014d1204,2023-06-16_10h12.23.114,phx_ver10,2022.2.5,Win32,59.99160118,,,,,space,0.6026,0,11,11,27,1,28,training,zh2x,e,zh2x_e,zh2x_7_exe.wav,,exe.jpg,,,,,,,,,,,,,,,,,,,,,,,,,,,,,,,,,
5d03d07ff00f5100014d1204,2023-06-16_10h12.23.114,phx_ver10,2022.2.5,Win32,59.99160118,,,,,,,,,,,,,attn_test,,,,zh2x_1_izhi.wav,zh2x_8_ixi.wav,izhi.jpg,LEFT,,f,0.5847,space,1.001,0,0,0,0,1,,,,,,,,,,,,,,,,,,,,,,
5d03d07ff00f5100014d1204,2023-06-16_10h12.23.114,phx_ver10,2022.2.5,Win32,59.99160118,,,,,space,0.4211,0,12,12,33,1,34,training,zh2x,i,zh2x_i,zh2x_2_izhi.wav,,izhi.jpg,,,,,,,,,,,,,,,,,,,,,,,,,,,,,,,,,
5d03d07ff00f5100014d1204,2023-06-16_10h12.23.114,phx_ver10,2022.2.5,Win32,59.99160118,,,,,space,0.5181,0,13,13,14,1,15,training,zh2x,a,zh2x_a,zh2x_7_axa.wav,,axa.jpg,,,,,,,,,,,,,,,,,,,,,,,,,,,,,,,,,
5d03d07ff00f5100014d1204,2023-06-16_10h12.23.114,phx_ver10,2022.2.5,Win32,59.99160118,,,,,space,0.4581,0,14,14,29,1,30,training,zh2x,e,zh2x_e,zh2x_7_exe.wav,,exe.jpg,,,,,,,,,,,,,,,,,,,,,,,,,,,,,,,,,
5d03d07ff00f5100014d1204,2023-06-16_10h12.23.114,phx_ver10,2022.2.5,Win32,59.99160118,,,,,space,0.6385,0,15,15,45,1,46,training,zh2x,i,zh2x_i,zh2x_7_ixi.wav,,ixi.jpg,,,,,,,,,,,,,,,,,,,,,,,,,,,,,,,,,
5d03d07ff00f5100014d1204,2023-06-16_10h12.23.114,phx_ver10,2022.2.5,Win32,59.99160118,,,,,space,0.554,0,16,16,0,1,1,training,zh2x,a,zh2x_a,zh2x_1_azha.wav,,azha.jpg,,,,,,,,,,,,,,,,,,,,,,,,,,,,,,,,,
5d03d07ff00f5100014d1204,2023-06-16_10h12.23.114,phx_ver10,2022.2.5,Win32,59.99160118,,,,,space,0.4728,0,17,17,25,1,26,training,zh2x,e,zh2x_e,zh2x_6_exe.wav,,exe.jpg,,,,,,,,,,,,,,,,,,,,,,,,,,,,,,,,,
5d03d07ff00f5100014d1204,2023-06-16_10h12.23.114,phx_ver10,2022.2.5,Win32,59.99160118,,,,,,,,,,,,,attn_test,,,,zh2x_1_azha.wav,zh2x_8_axa.wav,axa.jpg,RIGHT,,j,1.2541,space,1.592,0,0,0,0,1,,,,,,,,,,,,,,,,,,,,,,
5d03d07ff00f5100014d1204,2023-06-16_10h12.23.114,phx_ver10,2022.2.5,Win32,59.99160118,,,,,space,0.5928,0,18,18,20,1,21,training,zh2x,e,zh2x_e,zh2x_2_ezhe.wav,,ezhe.jpg,,,,,,,,,,,,,,,,,,,,,,,,,,,,,,,,,
5d03d07ff00f5100014d1204,2023-06-16_10h12.23.114,phx_ver10,2022.2.5,Win32,59.99160118,,,,,space,0.5677,0,19,19,44,1,45,training,zh2x,i,zh2x_i,zh2x_7_ixi.wav,,ixi.jpg,,,,,,,,,,,,,,,,,,,,,,,,,,,,,,,,,
5d03d07ff00f5100014d1204,2023-06-16_10h12.23.114,phx_ver10,2022.2.5,Win32,59.99160118,,,,,space,0.6847,0,20,20,23,1,24,training,zh2x,e,zh2x_e,zh2x_4_ezhe.wav,,ezhe.jpg,,,,,,,,,,,,,,,,,,,,,,,,,,,,,,,,,
5d03d07ff00f5100014d1204,2023-06-16_10h12.23.114,phx_ver10,2022.2.5,Win32,59.99160118,,,,,space,0.4174,0,21,21,41,1,42,training,zh2x,i,zh2x_i,zh2x_6_ixi.wav,,ixi.jpg,,,,,,,,,,,,,,,,,,,,,,,,,,,,,,,,,
5d03d07ff00f5100014d1204,2023-06-16_10h12.23.114,phx_ver10,2022.2.5,Win32,59.99160118,,,,,space,0.3839,0,22,22,12,1,13,training,zh2x,a,zh2x_a,zh2x_7_axa.wav,,axa.jpg,,,,,,,,,,,,,,,,,,,,,,,,,,,,,,,,,
5d03d07ff00f5100014d1204,2023-06-16_10h12.23.114,phx_ver10,2022.2.5,Win32,59.99160118,,,,,space,0.2684,0,23,23,8,1,9,training,zh2x,a,zh2x_a,zh2x_5_axa.wav,,axa.jpg,,,,,,,,,,,,,,,,,,,,,,,,,,,,,,,,,
5d03d07ff00f5100014d1204,2023-06-16_10h12.23.114,phx_ver10,2022.2.5,Win32,59.99160118,,,,,,,,,,,,,attn_test,,,,zh2x_8_exe.wav,zh2x_8_axa.wav,axa.jpg,RIGHT,,j,0.4021,space,0.7674,0,0,0,0,1,,,,,,,,,,,,,,,,,,,,,,
5d03d07ff00f5100014d1204,2023-06-16_10h12.23.114,phx_ver10,2022.2.5,Win32,59.99160118,,,,,space,0.7507,0,24,24,24,1,25,training,zh2x,e,zh2x_e,zh2x_5_exe.wav,,exe.jpg,,,,,,,,,,,,,,,,,,,,,,,,,,,,,,,,,
5d03d07ff00f5100014d1204,2023-06-16_10h12.23.114,phx_ver10,2022.2.5,Win32,59.99160118,,,,,space,0.4262,0,25,25,37,1,38,training,zh2x,i,zh2x_i,zh2x_3_izhi.wav,,izhi.jpg,,,,,,,,,,,,,,,,,,,,,,,,,,,,,,,,,
5d03d07ff00f5100014d1204,2023-06-16_10h12.23.114,phx_ver10,2022.2.5,Win32,59.99160118,,,,,space,0.3673,0,26,26,2,1,3,training,zh2x,a,zh2x_a,zh2x_2_azha.wav,,azha.jpg,,,,,,,,,,,,,,,,,,,,,,,,,,,,,,,,,
5d03d07ff00f5100014d1204,2023-06-16_10h12.23.114,phx_ver10,2022.2.5,Win32,59.99160118,,,,,space,0.3655,0,27,27,40,1,41,training,zh2x,i,zh2x_i,zh2x_5_ixi.wav,,ixi.jpg,,,,,,,,,,,,,,,,,,,,,,,,,,,,,,,,,
5d03d07ff00f5100014d1204,2023-06-16_10h12.23.114,phx_ver10,2022.2.5,Win32,59.99160118,,,,,space,0.2868,0,28,28,34,1,35,training,zh2x,i,zh2x_i,zh2x_2_izhi.wav,,izhi.jpg,,,,,,,,,,,,,,,,,,,,,,,,,,,,,,,,,
5d03d07ff00f5100014d1204,2023-06-16_10h12.23.114,phx_ver10,2022.2.5,Win32,59.99160118,,,,,space,0.1897,0,29,29,18,1,19,training,zh2x,e,zh2x_e,zh2x_2_ezhe.wav,,ezhe.jpg,,,,,,,,,,,,,,,,,,,,,,,,,,,,,,,,,
5d03d07ff00f5100014d1204,2023-06-16_10h12.23.114,phx_ver10,2022.2.5,Win32,59.99160118,,,,,,,,,,,,,attn_test,,,,zh2x_1_izhi.wav,zh2x_1_ezhe.wav,ezhe.jpg,RIGHT,,j,0.0736,space,0.4844,0,0,0,0,1,,,,,,,,,,,,,,,,,,,,,,
5d03d07ff00f5100014d1204,2023-06-16_10h12.23.114,phx_ver10,2022.2.5,Win32,59.99160118,,,,,space,0.3015,0,30,30,22,1,23,training,zh2x,e,zh2x_e,zh2x_3_ezhe.wav,,ezhe.jpg,,,,,,,,,,,,,,,,,,,,,,,,,,,,,,,,,
5d03d07ff00f5100014d1204,2023-06-16_10h12.23.114,phx_ver10,2022.2.5,Win32,59.99160118,,,,,space,0.3342,0,31,31,39,1,40,training,zh2x,i,zh2x_i,zh2x_4_izhi.wav,,izhi.jpg,,,,,,,,,,,,,,,,,,,,,,,,,,,,,,,,,
5d03d07ff00f5100014d1204,2023-06-16_10h12.23.114,phx_ver10,2022.2.5,Win32,59.99160118,,,,,space,0.3913,0,32,32,16,1,17,training,zh2x,e,zh2x_e,zh2x_1_ezhe.wav,,ezhe.jpg,,,,,,,,,,,,,,,,,,,,,,,,,,,,,,,,,
5d03d07ff00f5100014d1204,2023-06-16_10h12.23.114,phx_ver10,2022.2.5,Win32,59.99160118,,,,,space,0.2682,0,33,33,15,1,16,training,zh2x,a,zh2x_a,zh2x_8_axa.wav,,axa.jpg,,,,,,,,,,,,,,,,,,,,,,,,,,,,,,,,,
5d03d07ff00f5100014d1204,2023-06-16_10h12.23.114,phx_ver10,2022.2.5,Win32,59.99160118,,,,,space,0.3012,0,34,34,10,1,11,training,zh2x,a,zh2x_a,zh2x_6_axa.wav,,axa.jpg,,,,,,,,,,,,,,,,,,,,,,,,,,,,,,,,,
5d03d07ff00f5100014d1204,2023-06-16_10h12.23.114,phx_ver10,2022.2.5,Win32,59.99160118,,,,,space,0.2679,0,35,35,1,1,2,training,zh2x,a,zh2x_a,zh2x_2_azha.wav,,azha.jpg,,,,,,,,,,,,,,,,,,,,,,,,,,,,,,,,,
5d03d07ff00f5100014d1204,2023-06-16_10h12.23.114,phx_ver10,2022.2.5,Win32,59.99160118,,,,,,,,,,,,,attn_test,,,,zh2x_8_exe.wav,zh2x_8_axa.wav,axa.jpg,RIGHT,,j,2.2884,space,2.7009,0,0,0,0,1,,,,,,,,,,,,,,,,,,,,,,
5d03d07ff00f5100014d1204,2023-06-16_10h12.23.114,phx_ver10,2022.2.5,Win32,59.99160118,,,,,space,0.3707,0,36,36,31,1,32,training,zh2x,e,zh2x_e,zh2x_8_exe.wav,,exe.jpg,,,,,,,,,,,,,,,,,,,,,,,,,,,,,,,,,
5d03d07ff00f5100014d1204,2023-06-16_10h12.23.114,phx_ver10,2022.2.5,Win32,59.99160118,,,,,space,0.5056,0,37,37,11,1,12,training,zh2x,a,zh2x_a,zh2x_7_axa.wav,,axa.jpg,,,,,,,,,,,,,,,,,,,,,,,,,,,,,,,,,
5d03d07ff00f5100014d1204,2023-06-16_10h12.23.114,phx_ver10,2022.2.5,Win32,59.99160118,,,,,space,0.4048,0,38,38,46,1,47,training,zh2x,i,zh2x_i,zh2x_7_ixi.wav,,ixi.jpg,,,,,,,,,,,,,,,,,,,,,,,,,,,,,,,,,
5d03d07ff00f5100014d1204,2023-06-16_10h12.23.114,phx_ver10,2022.2.5,Win32,59.99160118,,,,,space,0.2015,0,39,39,43,1,44,training,zh2x,i,zh2x_i,zh2x_7_ixi.wav,,ixi.jpg,,,,,,,,,,,,,,,,,,,,,,,,,,,,,,,,,
5d03d07ff00f5100014d1204,2023-06-16_10h12.23.114,phx_ver10,2022.2.5,Win32,59.99160118,,,,,space,0.2675,0,40,40,13,1,14,training,zh2x,a,zh2x_a,zh2x_7_axa.wav,,axa.jpg,,,,,,,,,,,,,,,,,,,,,,,,,,,,,,,,,
5d03d07ff00f5100014d1204,2023-06-16_10h12.23.114,phx_ver10,2022.2.5,Win32,59.99160118,,,,,space,0.3375,0,41,41,19,1,20,training,zh2x,e,zh2x_e,zh2x_2_ezhe.wav,,ezhe.jpg,,,,,,,,,,,,,,,,,,,,,,,,,,,,,,,,,
5d03d07ff00f5100014d1204,2023-06-16_10h12.23.114,phx_ver10,2022.2.5,Win32,59.99160118,,,,,,,,,,,,,attn_test,,,,zh2x_8_axa.wav,zh2x_8_ixi.wav,axa.jpg,LEFT,,f,0.0513,space,0.8558,0,0,0,0,1,,,,,,,,,,,,,,,,,,,,,,
5d03d07ff00f5100014d1204,2023-06-16_10h12.23.114,phx_ver10,2022.2.5,Win32,59.99160118,,,,,space,0.3192,0,42,42,42,1,43,training,zh2x,i,zh2x_i,zh2x_6_ixi.wav,,ixi.jpg,,,,,,,,,,,,,,,,,,,,,,,,,,,,,,,,,
5d03d07ff00f5100014d1204,2023-06-16_10h12.23.114,phx_ver10,2022.2.5,Win32,59.99160118,,,,,space,0.2891,0,43,43,47,1,48,training,zh2x,i,zh2x_i,zh2x_8_ixi.wav,,ixi.jpg,,,,,,,,,,,,,,,,,,,,,,,,,,,,,,,,,
5d03d07ff00f5100014d1204,2023-06-16_10h12.23.114,phx_ver10,2022.2.5,Win32,59.99160118,,,,,space,0.364,0,44,44,30,1,31,training,zh2x,e,zh2x_e,zh2x_7_exe.wav,,exe.jpg,,,,,,,,,,,,,,,,,,,,,,,,,,,,,,,,,
5d03d07ff00f5100014d1204,2023-06-16_10h12.23.114,phx_ver10,2022.2.5,Win32,59.99160118,,,,,space,0.3323,0,45,45,9,1,10,training,zh2x,a,zh2x_a,zh2x_6_axa.wav,,axa.jpg,,,,,,,,,,,,,,,,,,,,,,,,,,,,,,,,,
5d03d07ff00f5100014d1204,2023-06-16_10h12.23.114,phx_ver10,2022.2.5,Win32,59.99160118,,,,,space,0.2878,0,46,46,26,1,27,training,zh2x,e,zh2x_e,zh2x_6_exe.wav,,exe.jpg,,,,,,,,,,,,,,,,,,,,,,,,,,,,,,,,,
5d03d07ff00f5100014d1204,2023-06-16_10h12.23.114,phx_ver10,2022.2.5,Win32,59.99160118,,,,,space,0.175,0,47,47,3,1,4,training,zh2x,a,zh2x_a,zh2x_2_azha.wav,,azha.jpg,,,,,,,,,,,,,,,,,,,,,,,,,,,,,,,,,
5d03d07ff00f5100014d1204,2023-06-16_10h12.23.114,phx_ver10,2022.2.5,Win32,59.99160118,,,,,,,,,,,,,attn_test,,,,zh2x_8_axa.wav,zh2x_1_azha.wav,azha.jpg,RIGHT,,f,0.3514,space,0.8517,,,,,,,,,,,,,,,,,,,,,,,,,,,
5d03d07ff00f5100014d1204,2023-06-16_10h12.23.114,phx_ver10,2022.2.5,Win32,59.99160118,,,,,,,,,,,,,,,,,,,,,,,,,,,,,,,space,0.6675,,,,,,,,,,,,,,,,,,,,
5d03d07ff00f5100014d1204,2023-06-16_10h12.23.114,phx_ver10,2022.2.5,Win32,59.99160118,,,,,,,,,,,,,,,,,,,,,,,,,,,,,,,,,space,3.0333,,,,,,,,,,,,,,,,,,
5d03d07ff00f5100014d1204,2023-06-16_10h12.23.114,phx_ver10,2022.2.5,Win32,59.99160118,,,,,,,,,,,,2,testing_pre,,,,auhau.wav,aufau.wav,,FALSE,,,,,,,,,,,,,,,j,0.1014,space,0.8681,0,0,0,1,1,,,,,,,,,
5d03d07ff00f5100014d1204,2023-06-16_10h12.23.114,phx_ver10,2022.2.5,Win32,59.99160118,,,,,,,,,,,,3,testing_pre,,,,afa.wav,aha.wav,,FALSE,,,,,,,,,,,,,,,j,0.0847,space,0.9174,0,1,1,2,1,,,,,,,,,
5d03d07ff00f5100014d1204,2023-06-16_10h12.23.114,phx_ver10,2022.2.5,Win32,59.99160118,,,,,,,,,,,,1,testing_pre,,,,ifi.wav,ifi.wav,,TRUE,,,,,,,,,,,,,,,f,0.0547,space,0.8074,0,2,2,0,1,,,,,,,,,
5d03d07ff00f5100014d1204,2023-06-16_10h12.23.114,phx_ver10,2022.2.5,Win32,59.99160118,,,,,,,,,,,,5,testing_pre,,,,ihi.wav,ifi.wav,,FALSE,,,,,,,,,,,,,,,j,0.1014,space,0.6613,0,3,3,4,1,,,,,,,,,
5d03d07ff00f5100014d1204,2023-06-16_10h12.23.114,phx_ver10,2022.2.5,Win32,59.99160118,,,,,,,,,,,,4,testing_pre,,,,eihei.wav,eihei.wav,,TRUE,,,,,,,,,,,,,,,f,0.3012,space,0.8342,0,4,4,3,1,,,,,,,,,
5d03d07ff00f5100014d1204,2023-06-16_10h12.23.114,phx_ver10,2022.2.5,Win32,59.99160118,,,,,,,,,,,,,,,,,,,,,,,,,,,,,,,,,,,,,,,,,,,,space,0.6922,,,,,,,
5d03d07ff00f5100014d1204,2023-06-16_10h12.23.114,phx_ver10,2022.2.5,Win32,59.99160118,,,,,,,,,,,,119,testing_3,sh2x,i,sh2x_i,sh2x_1_ishi.wav,sh2x_8_ixi.wav,,FALSE,FALSE,,,,,,,,,,,,,,f,0.8008,space,1.4846,,,,,,,,0,0,0,118,1,,
5d03d07ff00f5100014d1204,2023-06-16_10h12.23.114,phx_ver10,2022.2.5,Win32,59.99160118,,,,,,,,,,,,61,testing_3,zh2j,e,zh2j_e,zh2j_1_ezhe.wav,zh2j_1_ezhe.wav,,TRUE,FALSE,,,,,,,,,,,,,,f,0.0541,space,0.6564,,,,,,,,0,1,1,60,1,,
5d03d07ff00f5100014d1204,2023-06-16_10h12.23.114,phx_ver10,2022.2.5,Win32,59.99160118,,,,,,,,,,,,125,testing_3,sh2j,ai,sh2j_ai,sh2j_1_aishai.wav,sh2j_1_aishai.wav,,TRUE,FALSE,,,,,,,,,,,,,,f,0.1849,space,0.7514,,,,,,,,0,2,2,124,1,,
5d03d07ff00f5100014d1204,2023-06-16_10h12.23.114,phx_ver10,2022.2.5,Win32,59.99160118,,,,,,,,,,,,117,testing_3,sh2x,i,sh2x_i,sh2x_1_ishi.wav,sh2x_1_ishi.wav,,TRUE,FALSE,,,,,,,,,,,,,,f,0.0744,space,0.7717,,,,,,,,0,3,3,116,1,,
5d03d07ff00f5100014d1204,2023-06-16_10h12.23.114,phx_ver10,2022.2.5,Win32,59.99160118,,,,,,,,,,,,59,testing_3,zh2j,au,zh2j_au,zh2j_1_auzhau.wav,zh2j_8_aujau.wav,,FALSE,FALSE,,,,,,,,,,,,,,f,0.1051,space,1.3423,,,,,,,,0,4,4,58,1,,
5d03d07ff00f5100014d1204,2023-06-16_10h12.23.114,phx_ver10,2022.2.5,Win32,59.99160118,,,,,,,,,,,,9,testing_1,zh2x,i,zh2x_i,zh2x_1_izhi.wav,zh2x_1_izhi_copy.wav,,TRUE,TRUE,,,,,,,,,,,,,,f,0.1239,space,0.7651,,,,,,,,0,5,5,8,1,,
5d03d07ff00f5100014d1204,2023-06-16_10h12.23.114,phx_ver10,2022.2.5,Win32,59.99160118,,,,,,,,,,,,37,testing_3,zh2sh,e,zh2sh_e,zh2sh_1_ezhe.wav,zh2sh_1_ezhe.wav,,TRUE,FALSE,,,,,,,,,,,,,,f,0.1842,space,0.7676,,,,,,,,0,6,6,36,1,,
5d03d07ff00f5100014d1204,2023-06-16_10h12.23.114,phx_ver10,2022.2.5,Win32,59.99160118,,,,,,,,,,,,110,testing_3,sh2x,e,sh2x_e,sh2x_8_exe.wav,sh2x_8_exe.wav,,TRUE,FALSE,,,,,,,,,,,,,,f,0.117,space,0.6506,,,,,,,,0,7,7,109,1,,
5d03d07ff00f5100014d1204,2023-06-16_10h12.23.114,phx_ver10,2022.2.5,Win32,59.99160118,,,,,,,,,,,,19,testing_2,zh2x,au,zh2x_au,zh2x_1_auzhau.wav,zh2x_8_auxau.wav,,FALSE,FALSE,,,,,,,,,,,,,,j,0.0179,space,0.5677,,,,,,,,0,8,8,18,1,,
5d03d07ff00f5100014d1204,2023-06-16_10h12.23.114,phx_ver10,2022.2.5,Win32,59.99160118,,,,,,,,,,,,75,testing_3,j2x,a,j2x_a,j2x_1_aja.wav,j2x_8_axa.wav,,FALSE,FALSE,,,,,,,,,,,,,,j,0.0436,space,0.5582,,,,,,,,0,9,9,74,1,,
5d03d07ff00f5100014d1204,2023-06-16_10h12.23.114,phx_ver10,2022.2.5,Win32,59.99160118,,,,,,,,,,,,49,testing_3,zh2j,a,zh2j_a,zh2j_1_azha.wav,zh2j_1_azha.wav,,TRUE,FALSE,,,,,,,,,,,,,,f,0.1041,space,0.5671,,,,,,,,0,10,10,48,1,,
5d03d07ff00f5100014d1204,2023-06-16_10h12.23.114,phx_ver10,2022.2.5,Win32,59.99160118,,,,,,,,,,,,74,testing_3,j2x,a,j2x_a,j2x_8_axa.wav,j2x_8_axa.wav,,TRUE,FALSE,,,,,,,,,,,,,,f,0.0349,space,0.485,,,,,,,,0,11,11,73,1,,
5d03d07ff00f5100014d1204,2023-06-16_10h12.23.114,phx_ver10,2022.2.5,Win32,59.99160118,,,,,,,,,,,,6,testing_1,zh2x,e,zh2x_e,zh2x_8_exe.wav,zh2x_8_exe_copy.wav,,TRUE,TRUE,,,,,,,,,,,,,,f,0.0514,space,0.5512,,,,,,,,0,12,12,5,1,,
5d03d07ff00f5100014d1204,2023-06-16_10h12.23.114,phx_ver10,2022.2.5,Win32,59.99160118,,,,,,,,,,,,65,testing_3,zh2j,ei,zh2j_ei,zh2j_1_eizhei.wav,zh2j_1_eizhei.wav,,TRUE,FALSE,,,,,,,,,,,,,,f,0.3675,space,0.7516,,,,,,,,0,13,13,64,1,,
5d03d07ff00f5100014d1204,2023-06-16_10h12.23.114,phx_ver10,2022.2.5,Win32,59.99160118,,,,,,,,,,,,89,testing_3,j2x,ei,j2x_ei,j2x_1_eijei.wav,j2x_1_eijei.wav,,TRUE,FALSE,,,,,,,,,,,,,,f,0.1513,space,0.5012,,,,,,,,0,14,14,88,1,,
5d03d07ff00f5100014d1204,2023-06-16_10h12.23.114,phx_ver10,2022.2.5,Win32,59.99160118,,,,,,,,,,,,72,testing_3,zh2j,i,zh2j_i,zh2j_8_iji.wav,zh2j_1_izhi.wav,,FALSE,FALSE,,,,,,,,,,,,,,f,0.1512,space,0.7011,,,,,,,,0,15,15,71,1,,
5d03d07ff00f5100014d1204,2023-06-16_10h12.23.114,phx_ver10,2022.2.5,Win32,59.99160118,,,,,,,,,,,,39,testing_3,zh2sh,e,zh2sh_e,zh2sh_1_ezhe.wav,zh2sh_8_eshe.wav,,FALSE,FALSE,,,,,,,,,,,,,,j,0.0384,space,0.5208,,,,,,,,0,16,16,38,1,,
5d03d07ff00f5100014d1204,2023-06-16_10h12.23.114,phx_ver10,2022.2.5,Win32,59.99160118,,,,,,,,,,,,10,testing_1,zh2x,i,zh2x_i,zh2x_8_ixi.wav,zh2x_8_ixi_copy.wav,,TRUE,TRUE,,,,,,,,,,,,,,f,0.2352,space,0.6512,,,,,,,,0,17,17,9,1,,
5d03d07ff00f5100014d1204,2023-06-16_10h12.23.114,phx_ver10,2022.2.5,Win32,59.99160118,,,,,,,,,,,,81,testing_3,j2x,au,j2x_au,j2x_1_aujau.wav,j2x_1_aujau.wav,,TRUE,FALSE,,,,,,,,,,,,,,f,0.2082,space,0.5677,,,,,,,,0,18,18,80,1,,
5d03d07ff00f5100014d1204,2023-06-16_10h12.23.114,phx_ver10,2022.2.5,Win32,59.99160118,,,,,,,,,,,,123,testing_3,sh2j,a,sh2j_a,sh2j_1_asha.wav,sh2j_8_aja.wav,,FALSE,FALSE,,,,,,,,,,,,,,j,0.3394,space,0.7512,,,,,,,,0,19,19,122,1,,
5d03d07ff00f5100014d1204,2023-06-16_10h12.23.114,phx_ver10,2022.2.5,Win32,59.99160118,,,,,,,,,,,,24,testing_2,zh2x,ei,zh2x_ei,zh2x_8_eixei.wav,zh2x_1_eizhei.wav,,FALSE,FALSE,,,,,,,,,,,,,,j,0.1563,space,0.8343,,,,,,,,0,20,20,23,1,,
5d03d07ff00f5100014d1204,2023-06-16_10h12.23.114,phx_ver10,2022.2.5,Win32,59.99160118,,,,,,,,,,,,57,testing_3,zh2j,au,zh2j_au,zh2j_1_auzhau.wav,zh2j_1_auzhau.wav,,TRUE,FALSE,,,,,,,,,,,,,,f,0.0679,space,0.4842,,,,,,,,0,21,21,56,1,,
5d03d07ff00f5100014d1204,2023-06-16_10h12.23.114,phx_ver10,2022.2.5,Win32,59.99160118,,,,,,,,,,,,36,testing_3,zh2sh,au,zh2sh_au,zh2sh_8_aushau.wav,zh2sh_1_auzhau.wav,,FALSE,FALSE,,,,,,,,,,,,,,j,0.0347,space,0.4682,,,,,,,,0,22,22,35,1,,
5d03d07ff00f5100014d1204,2023-06-16_10h12.23.114,phx_ver10,2022.2.5,Win32,59.99160118,,,,,,,,,,,,33,testing_3,zh2sh,au,zh2sh_au,zh2sh_1_auzhau.wav,zh2sh_1_auzhau.wav,,TRUE,FALSE,,,,,,,,,,,,,,f,0.1011,space,0.4717,,,,,,,,0,23,23,32,1,,
5d03d07ff00f5100014d1204,2023-06-16_10h12.23.114,phx_ver10,2022.2.5,Win32,59.99160118,,,,,,,,,,,,84,testing_3,j2x,au,j2x_au,j2x_8_auxau.wav,j2x_1_aujau.wav,,FALSE,FALSE,,,,,,,,,,,,,,f,0.1354,space,0.4722,,,,,,,,0,24,24,83,1,,
5d03d07ff00f5100014d1204,2023-06-16_10h12.23.114,phx_ver10,2022.2.5,Win32,59.99160118,,,,,,,,,,,,43,testing_3,zh2sh,ei,zh2sh_ei,zh2sh_1_eizhei.wav,zh2sh_8_eishei.wav,,FALSE,FALSE,,,,,,,,,,,,,,j,0.0074,space,0.4014,,,,,,,,0,25,25,42,1,,
5d03d07ff00f5100014d1204,2023-06-16_10h12.23.114,phx_ver10,2022.2.5,Win32,59.99160118,,,,,,,,,,,,47,testing_3,zh2sh,i,zh2sh_i,zh2sh_1_izhi.wav,zh2sh_8_ishi.wav,,FALSE,FALSE,,,,,,,,,,,,,,j,0.3177,space,0.6821,,,,,,,,0,26,26,46,1,,
5d03d07ff00f5100014d1204,2023-06-16_10h12.23.114,phx_ver10,2022.2.5,Win32,59.99160118,,,,,,,,,,,,31,testing_3,zh2sh,ai,zh2sh_ai,zh2sh_1_aizhai.wav,zh2sh_8_aishai.wav,,FALSE,FALSE,,,,,,,,,,,,,,j,0.0872,space,0.4706,,,,,,,,0,27,27,30,1,,
5d03d07ff00f5100014d1204,2023-06-16_10h12.23.114,phx_ver10,2022.2.5,Win32,59.99160118,,,,,,,,,,,,111,testing_3,sh2x,e,sh2x_e,sh2x_1_eshe.wav,sh2x_8_exe.wav,,FALSE,FALSE,,,,,,,,,,,,,,j,0.4556,space,0.772,,,,,,,,0,28,28,110,1,,
5d03d07ff00f5100014d1204,2023-06-16_10h12.23.114,phx_ver10,2022.2.5,Win32,59.99160118,,,,,,,,,,,,16,testing_2,zh2x,ai,zh2x_ai,zh2x_8_aixai.wav,zh2x_1_aizhai.wav,,FALSE,FALSE,,,,,,,,,,,,,,j,0.0512,space,0.4347,,,,,,,,0,29,29,15,1,,
5d03d07ff00f5100014d1204,2023-06-16_10h12.23.114,phx_ver10,2022.2.5,Win32,59.99160118,,,,,,,,,,,,38,testing_3,zh2sh,e,zh2sh_e,zh2sh_8_eshe.wav,zh2sh_8_eshe.wav,,TRUE,FALSE,,,,,,,,,,,,,,f,0.074,space,0.4247,,,,,,,,0,30,30,37,1,,
5d03d07ff00f5100014d1204,2023-06-16_10h12.23.114,phx_ver10,2022.2.5,Win32,59.99160118,,,,,,,,,,,,139,testing_3,sh2j,ei,sh2j_ei,sh2j_1_eishei.wav,sh2j_8_eijei.wav,,FALSE,FALSE,,,,,,,,,,,,,,j,0.0539,space,0.5217,,,,,,,,0,31,31,138,1,,
5d03d07ff00f5100014d1204,2023-06-16_10h12.23.114,phx_ver10,2022.2.5,Win32,59.99160118,,,,,,,,,,,,137,testing_3,sh2j,ei,sh2j_ei,sh2j_1_eishei.wav,sh2j_1_eishei.wav,,TRUE,FALSE,,,,,,,,,,,,,,f,0.1217,space,1.1851,,,,,,,,0,32,32,136,1,,
5d03d07ff00f5100014d1204,2023-06-16_10h12.23.114,phx_ver10,2022.2.5,Win32,59.99160118,,,,,,,,,,,,76,testing_3,j2x,a,j2x_a,j2x_8_axa.wav,j2x_1_aja.wav,,FALSE,FALSE,,,,,,,,,,,,,,j,0.0385,space,0.385,,,,,,,,0,33,33,75,1,,
5d03d07ff00f5100014d1204,2023-06-16_10h12.23.114,phx_ver10,2022.2.5,Win32,59.99160118,,,,,,,,,,,,27,testing_3,zh2sh,a,zh2sh_a,zh2sh_1_azha.wav,zh2sh_8_asha.wav,,FALSE,FALSE,,,,,,,,,,,,,,j,0.4346,space,0.7847,,,,,,,,0,34,34,26,1,,
5d03d07ff00f5100014d1204,2023-06-16_10h12.23.114,phx_ver10,2022.2.5,Win32,59.99160118,,,,,,,,,,,,45,testing_3,zh2sh,i,zh2sh_i,zh2sh_1_izhi.wav,zh2sh_1_izhi.wav,,TRUE,FALSE,,,,,,,,,,,,,,f,0.0678,space,0.4181,,,,,,,,0,35,35,44,1,,
5d03d07ff00f5100014d1204,2023-06-16_10h12.23.114,phx_ver10,2022.2.5,Win32,59.99160118,,,,,,,,,,,,136,testing_3,sh2j,e,sh2j_e,sh2j_8_eje.wav,sh2j_1_eshe.wav,,FALSE,FALSE,,,,,,,,,,,,,,j,0.3268,space,0.7163,,,,,,,,0,36,36,135,1,,
5d03d07ff00f5100014d1204,2023-06-16_10h12.23.114,phx_ver10,2022.2.5,Win32,59.99160118,,,,,,,,,,,,121,testing_3,sh2j,a,sh2j_a,sh2j_1_asha.wav,sh2j_1_asha.wav,,TRUE,FALSE,,,,,,,,,,,,,,f,0.3365,space,0.5996,,,,,,,,0,37,37,120,1,,
5d03d07ff00f5100014d1204,2023-06-16_10h12.23.114,phx_ver10,2022.2.5,Win32,59.99160118,,,,,,,,,,,,126,testing_3,sh2j,ai,sh2j_ai,sh2j_8_aijai.wav,sh2j_8_aijai.wav,,TRUE,FALSE,,,,,,,,,,,,,,f,0.2424,space,0.5375,,,,,,,,0,38,38,125,1,,
5d03d07ff00f5100014d1204,2023-06-16_10h12.23.114,phx_ver10,2022.2.5,Win32,59.99160118,,,,,,,,,,,,78,testing_3,j2x,ai,j2x_ai,j2x_8_aixai.wav,j2x_8_aixai.wav,,TRUE,FALSE,,,,,,,,,,,,,,f,0.0085,space,0.3829,,,,,,,,0,39,39,77,1,,
5d03d07ff00f5100014d1204,2023-06-16_10h12.23.114,phx_ver10,2022.2.5,Win32,59.99160118,,,,,,,,,,,,17,testing_2,zh2x,au,zh2x_au,zh2x_1_auzhau.wav,zh2x_1_auzhau.wav,,TRUE,FALSE,,,,,,,,,,,,,,f,0.0407,space,0.3705,,,,,,,,0,40,40,16,1,,
5d03d07ff00f5100014d1204,2023-06-16_10h12.23.114,phx_ver10,2022.2.5,Win32,59.99160118,,,,,,,,,,,,116,testing_3,sh2x,ei,sh2x_ei,sh2x_8_eixei.wav,sh2x_1_eishei.wav,,FALSE,FALSE,,,,,,,,,,,,,,f,0.2736,space,0.5886,,,,,,,,0,41,41,115,1,,
5d03d07ff00f5100014d1204,2023-06-16_10h12.23.114,phx_ver10,2022.2.5,Win32,59.99160118,,,,,,,,,,,,100,testing_3,sh2x,a,sh2x_a,sh2x_8_axa.wav,sh2x_1_asha.wav,,FALSE,FALSE,,,,,,,,,,,,,,f,0.5559,space,0.8341,,,,,,,,0,42,42,99,1,,
5d03d07ff00f5100014d1204,2023-06-16_10h12.23.114,phx_ver10,2022.2.5,Win32,59.99160118,,,,,,,,,,,,48,testing_3,zh2sh,i,zh2sh_i,zh2sh_8_ishi.wav,zh2sh_1_izhi.wav,,FALSE,FALSE,,,,,,,,,,,,,,j,0.2207,space,0.5326,,,,,,,,0,43,43,47,1,,
5d03d07ff00f5100014d1204,2023-06-16_10h12.23.114,phx_ver10,2022.2.5,Win32,59.99160118,,,,,,,,,,,,21,testing_2,zh2x,ei,zh2x_ei,zh2x_1_eizhei.wav,zh2x_1_eizhei.wav,,TRUE,FALSE,,,,,,,,,,,,,,f,0.3172,space,0.6002,,,,,,,,0,44,44,20,1,,
5d03d07ff00f5100014d1204,2023-06-16_10h12.23.114,phx_ver10,2022.2.5,Win32,59.99160118,,,,,,,,,,,,23,testing_2,zh2x,ei,zh2x_ei,zh2x_1_eizhei.wav,zh2x_8_eixei.wav,,FALSE,FALSE,,,,,,,,,,,,,,j,0.0382,space,0.3681,,,,,,,,0,45,45,22,1,,
5d03d07ff00f5100014d1204,2023-06-16_10h12.23.114,phx_ver10,2022.2.5,Win32,59.99160118,,,,,,,,,,,,77,testing_3,j2x,ai,j2x_ai,j2x_1_aijai.wav,j2x_1_aijai.wav,,TRUE,FALSE,,,,,,,,,,,,,,f,0.0357,space,0.366,,,,,,,,0,46,46,76,1,,
5d03d07ff00f5100014d1204,2023-06-16_10h12.23.114,phx_ver10,2022.2.5,Win32,59.99160118,,,,,,,,,,,,80,testing_3,j2x,ai,j2x_ai,j2x_8_aixai.wav,j2x_1_aijai.wav,,FALSE,FALSE,,,,,,,,,,,,,,j,0.2552,space,0.5667,,,,,,,,0,47,47,79,1,,
5d03d07ff00f5100014d1204,2023-06-16_10h12.23.114,phx_ver10,2022.2.5,Win32,59.99160118,,,,,,,,,,,,127,testing_3,sh2j,ai,sh2j_ai,sh2j_1_aishai.wav,sh2j_8_aijai.wav,,FALSE,FALSE,,,,,,,,,,,,,,j,0.2355,space,0.5575,,,,,,,,0,48,48,126,1,,
5d03d07ff00f5100014d1204,2023-06-16_10h12.23.114,phx_ver10,2022.2.5,Win32,59.99160118,,,,,,,,,,,,7,testing_1,zh2x,e,zh2x_e,zh2x_1_ezhe.wav,zh2x_8_exe.wav,,FALSE,TRUE,,,,,,,,,,,,,,j,0.4665,space,0.8015,,,,,,,,0,49,49,6,1,,
5d03d07ff00f5100014d1204,2023-06-16_10h12.23.114,phx_ver10,2022.2.5,Win32,59.99160118,,,,,,,,,,,,104,testing_3,sh2x,ai,sh2x_ai,sh2x_8_aixai.wav,sh2x_1_aishai.wav,,FALSE,FALSE,,,,,,,,,,,,,,f,0.2367,space,0.5017,,,,,,,,0,50,50,103,1,,
5d03d07ff00f5100014d1204,2023-06-16_10h12.23.114,phx_ver10,2022.2.5,Win32,59.99160118,,,,,,,,,,,,114,testing_3,sh2x,ei,sh2x_ei,sh2x_8_eixei.wav,sh2x_8_eixei.wav,,TRUE,FALSE,,,,,,,,,,,,,,f,0.3504,space,0.6337,,,,,,,,0,51,51,113,1,,
5d03d07ff00f5100014d1204,2023-06-16_10h12.23.114,phx_ver10,2022.2.5,Win32,59.99160118,,,,,,,,,,,,54,testing_3,zh2j,ai,zh2j_ai,zh2j_8_aijai.wav,zh2j_8_aijai.wav,,TRUE,FALSE,,,,,,,,,,,,,,f,0.0041,space,0.3719,,,,,,,,0,52,52,53,1,,
5d03d07ff00f5100014d1204,2023-06-16_10h12.23.114,phx_ver10,2022.2.5,Win32,59.99160118,,,,,,,,,,,,97,testing_3,sh2x,a,sh2x_a,sh2x_1_asha.wav,sh2x_1_asha.wav,,TRUE,FALSE,,,,,,,,,,,,,,f,0.2837,space,0.5691,,,,,,,,0,53,53,96,1,,
5d03d07ff00f5100014d1204,2023-06-16_10h12.23.114,phx_ver10,2022.2.5,Win32,59.99160118,,,,,,,,,,,,107,testing_3,sh2x,au,sh2x_au,sh2x_1_aushau.wav,sh2x_8_auxau.wav,,FALSE,FALSE,,,,,,,,,,,,,,j,0.1009,space,0.4043,,,,,,,,0,54,54,106,1,,
5d03d07ff00f5100014d1204,2023-06-16_10h12.23.114,phx_ver10,2022.2.5,Win32,59.99160118,,,,,,,,,,,,94,testing_3,j2x,i,j2x_i,j2x_8_ixi.wav,j2x_8_ixi.wav,,TRUE,FALSE,,,,,,,,,,,,,,j,0.0836,space,0.4504,,,,,,,,0,55,55,93,1,,
5d03d07ff00f5100014d1204,2023-06-16_10h12.23.114,phx_ver10,2022.2.5,Win32,59.99160118,,,,,,,,,,,,68,testing_3,zh2j,ei,zh2j_ei,zh2j_8_eijei.wav,zh2j_1_eizhei.wav,,FALSE,FALSE,,,,,,,,,,,,,,f,0.3212,space,0.6033,,,,,,,,0,56,56,67,1,,
5d03d07ff00f5100014d1204,2023-06-16_10h12.23.114,phx_ver10,2022.2.5,Win32,59.99160118,,,,,,,,,,,,53,testing_3,zh2j,ai,zh2j_ai,zh2j_1_aizhai.wav,zh2j_1_aizhai.wav,,TRUE,FALSE,,,,,,,,,,,,,,f,0.1627,space,1.983,,,,,,,,0,57,57,52,1,,
5d03d07ff00f5100014d1204,2023-06-16_10h12.23.114,phx_ver10,2022.2.5,Win32,59.99160118,,,,,,,,,,,,35,testing_3,zh2sh,au,zh2sh_au,zh2sh_1_auzhau.wav,zh2sh_8_aushau.wav,,FALSE,FALSE,,,,,,,,,,,,,,j,1.0196,space,1.3499,,,,,,,,0,58,58,34,1,,
5d03d07ff00f5100014d1204,2023-06-16_10h12.23.114,phx_ver10,2022.2.5,Win32,59.99160118,,,,,,,,,,,,109,testing_3,sh2x,e,sh2x_e,sh2x_1_eshe.wav,sh2x_1_eshe.wav,,TRUE,FALSE,,,,,,,,,,,,,,f,0.0006,space,0.4069,,,,,,,,0,59,59,108,1,,
5d03d07ff00f5100014d1204,2023-06-16_10h12.23.114,phx_ver10,2022.2.5,Win32,59.99160118,,,,,,,,,,,,129,testing_3,sh2j,au,sh2j_au,sh2j_1_aushau.wav,sh2j_1_aushau.wav,,TRUE,FALSE,,,,,,,,,,,,,,f,0.1535,space,0.4667,,,,,,,,0,60,60,128,1,,
5d03d07ff00f5100014d1204,2023-06-16_10h12.23.114,phx_ver10,2022.2.5,Win32,59.99160118,,,,,,,,,,,,132,testing_3,sh2j,au,sh2j_au,sh2j_8_aujau.wav,sh2j_1_aushau.wav,,FALSE,FALSE,,,,,,,,,,,,,,j,0.3011,space,0.6342,,,,,,,,0,61,61,131,1,,
5d03d07ff00f5100014d1204,2023-06-16_10h12.23.114,phx_ver10,2022.2.5,Win32,59.99160118,,,,,,,,,,,,86,testing_3,j2x,e,j2x_e,j2x_8_exe.wav,j2x_8_exe.wav,,TRUE,FALSE,,,,,,,,,,,,,,f,0.3015,space,0.5524,,,,,,,,0,62,62,85,1,,
5d03d07ff00f5100014d1204,2023-06-16_10h12.23.114,phx_ver10,2022.2.5,Win32,59.99160118,,,,,,,,,,,,140,testing_3,sh2j,ei,sh2j_ei,sh2j_8_eijei.wav,sh2j_1_eishei.wav,,FALSE,FALSE,,,,,,,,,,,,,,j,0.3174,space,0.6196,,,,,,,,0,63,63,139,1,,
5d03d07ff00f5100014d1204,2023-06-16_10h12.23.114,phx_ver10,2022.2.5,Win32,59.99160118,,,,,,,,,,,,144,testing_3,sh2j,i,sh2j_i,sh2j_8_iji.wav,sh2j_1_ishi.wav,,FALSE,FALSE,,,,,,,,,,,,,,j,0.0835,space,0.4676,,,,,,,,0,64,64,143,1,,
5d03d07ff00f5100014d1204,2023-06-16_10h12.23.114,phx_ver10,2022.2.5,Win32,59.99160118,,,,,,,,,,,,46,testing_3,zh2sh,i,zh2sh_i,zh2sh_8_ishi.wav,zh2sh_8_ishi.wav,,TRUE,FALSE,,,,,,,,,,,,,,j,0.0011,space,0.4309,,,,,,,,0,65,65,45,1,,
5d03d07ff00f5100014d1204,2023-06-16_10h12.23.114,phx_ver10,2022.2.5,Win32,59.99160118,,,,,,,,,,,,85,testing_3,j2x,e,j2x_e,j2x_1_eje.wav,j2x_1_eje.wav,,TRUE,FALSE,,,,,,,,,,,,,,f,0.3337,space,0.6676,,,,,,,,0,66,66,84,1,,
5d03d07ff00f5100014d1204,2023-06-16_10h12.23.114,phx_ver10,2022.2.5,Win32,59.99160118,,,,,,,,,,,,13,testing_2,zh2x,ai,zh2x_ai,zh2x_1_aizhai.wav,zh2x_1_aizhai.wav,,TRUE,FALSE,,,,,,,,,,,,,,f,0.0228,space,0.3686,,,,,,,,0,67,67,12,1,,
5d03d07ff00f5100014d1204,2023-06-16_10h12.23.114,phx_ver10,2022.2.5,Win32,59.99160118,,,,,,,,,,,,15,testing_2,zh2x,ai,zh2x_ai,zh2x_1_aizhai.wav,zh2x_8_aixai.wav,,FALSE,FALSE,,,,,,,,,,,,,,j,0.2567,space,0.5543,,,,,,,,0,68,68,14,1,,
5d03d07ff00f5100014d1204,2023-06-16_10h12.23.114,phx_ver10,2022.2.5,Win32,59.99160118,,,,,,,,,,,,106,testing_3,sh2x,au,sh2x_au,sh2x_8_auxau.wav,sh2x_8_auxau.wav,,TRUE,FALSE,,,,,,,,,,,,,,f,0.1845,space,0.4574,,,,,,,,0,69,69,105,1,,
5d03d07ff00f5100014d1204,2023-06-16_10h12.23.114,phx_ver10,2022.2.5,Win32,59.99160118,,,,,,,,,,,,8,testing_1,zh2x,e,zh2x_e,zh2x_8_exe.wav,zh2x_1_ezhe.wav,,FALSE,TRUE,,,,,,,,,,,,,,j,0.0043,space,0.4035,,,,,,,,0,70,70,7,1,,
5d03d07ff00f5100014d1204,2023-06-16_10h12.23.114,phx_ver10,2022.2.5,Win32,59.99160118,,,,,,,,,,,,52,testing_3,zh2j,a,zh2j_a,zh2j_8_aja.wav,zh2j_1_azha.wav,,FALSE,FALSE,,,,,,,,,,,,,,f,0.1159,space,0.4151,,,,,,,,0,71,71,51,1,,
5d03d07ff00f5100014d1204,2023-06-16_10h12.23.114,phx_ver10,2022.2.5,Win32,59.99160118,,,,,,,,,,,,118,testing_3,sh2x,i,sh2x_i,sh2x_8_ixi.wav,sh2x_8_ixi.wav,,TRUE,FALSE,,,,,,,,,,,,,,f,0.2012,space,0.4672,,,,,,,,0,72,72,117,1,,
5d03d07ff00f5100014d1204,2023-06-16_10h12.23.114,phx_ver10,2022.2.5,Win32,59.99160118,,,,,,,,,,,,30,testing_3,zh2sh,ai,zh2sh_ai,zh2sh_8_aishai.wav,zh2sh_8_aishai.wav,,TRUE,FALSE,,,,,,,,,,,,,,f,0.117,space,0.404,,,,,,,,0,73,73,29,1,,
5d03d07ff00f5100014d1204,2023-06-16_10h12.23.114,phx_ver10,2022.2.5,Win32,59.99160118,,,,,,,,,,,,42,testing_3,zh2sh,ei,zh2sh_ei,zh2sh_8_eishei.wav,zh2sh_8_eishei.wav,,TRUE,FALSE,,,,,,,,,,,,,,f,0.3561,space,0.6173,,,,,,,,0,74,74,41,1,,
5d03d07ff00f5100014d1204,2023-06-16_10h12.23.114,phx_ver10,2022.2.5,Win32,59.99160118,,,,,,,,,,,,2,testing_1,zh2x,a,zh2x_a,zh2x_8_axa.wav,zh2x_8_axa_copy.wav,,TRUE,TRUE,,,,,,,,,,,,,,f,0.1409,space,0.4335,,,,,,,,0,75,75,1,1,,
5d03d07ff00f5100014d1204,2023-06-16_10h12.23.114,phx_ver10,2022.2.5,Win32,59.99160118,,,,,,,,,,,,115,testing_3,sh2x,ei,sh2x_ei,sh2x_1_eishei.wav,sh2x_8_eixei.wav,,FALSE,FALSE,,,,,,,,,,,,,,j,0.1079,space,0.45,,,,,,,,0,76,76,114,1,,
5d03d07ff00f5100014d1204,2023-06-16_10h12.23.114,phx_ver10,2022.2.5,Win32,59.99160118,,,,,,,,,,,,25,testing_3,zh2sh,a,zh2sh_a,zh2sh_1_azha.wav,zh2sh_1_azha.wav,,TRUE,FALSE,,,,,,,,,,,,,,f,0.3337,space,0.6168,,,,,,,,0,77,77,24,1,,
5d03d07ff00f5100014d1204,2023-06-16_10h12.23.114,phx_ver10,2022.2.5,Win32,59.99160118,,,,,,,,,,,,64,testing_3,zh2j,e,zh2j_e,zh2j_8_eje.wav,zh2j_1_ezhe.wav,,FALSE,FALSE,,,,,,,,,,,,,,f,0.0672,space,0.3504,,,,,,,,0,78,78,63,1,,
5d03d07ff00f5100014d1204,2023-06-16_10h12.23.114,phx_ver10,2022.2.5,Win32,59.99160118,,,,,,,,,,,,69,testing_3,zh2j,i,zh2j_i,zh2j_1_izhi.wav,zh2j_1_izhi.wav,,TRUE,FALSE,,,,,,,,,,,,,,f,0.3186,space,0.584,,,,,,,,0,79,79,68,1,,
5d03d07ff00f5100014d1204,2023-06-16_10h12.23.114,phx_ver10,2022.2.5,Win32,59.99160118,,,,,,,,,,,,113,testing_3,sh2x,ei,sh2x_ei,sh2x_1_eishei.wav,sh2x_1_eishei.wav,,TRUE,FALSE,,,,,,,,,,,,,,f,0.0705,space,0.371,,,,,,,,0,80,80,112,1,,
5d03d07ff00f5100014d1204,2023-06-16_10h12.23.114,phx_ver10,2022.2.5,Win32,59.99160118,,,,,,,,,,,,112,testing_3,sh2x,e,sh2x_e,sh2x_8_exe.wav,sh2x_1_eshe.wav,,FALSE,FALSE,,,,,,,,,,,,,,f,0.0528,space,0.3693,,,,,,,,0,81,81,111,1,,
5d03d07ff00f5100014d1204,2023-06-16_10h12.23.114,phx_ver10,2022.2.5,Win32,59.99160118,,,,,,,,,,,,14,testing_2,zh2x,ai,zh2x_ai,zh2x_8_aixai.wav,zh2x_8_aixai.wav,,TRUE,FALSE,,,,,,,,,,,,,,f,0.3496,space,0.6022,,,,,,,,0,82,82,13,1,,
5d03d07ff00f5100014d1204,2023-06-16_10h12.23.114,phx_ver10,2022.2.5,Win32,59.99160118,,,,,,,,,,,,83,testing_3,j2x,au,j2x_au,j2x_1_aujau.wav,j2x_8_auxau.wav,,FALSE,FALSE,,,,,,,,,,,,,,j,0.0154,space,0.4176,,,,,,,,0,83,83,82,1,,
5d03d07ff00f5100014d1204,2023-06-16_10h12.23.114,phx_ver10,2022.2.5,Win32,59.99160118,,,,,,,,,,,,92,testing_3,j2x,ei,j2x_ei,j2x_8_eixei.wav,j2x_1_eijei.wav,,FALSE,FALSE,,,,,,,,,,,,,,f,0.3393,space,0.6159,,,,,,,,0,84,84,91,1,,
5d03d07ff00f5100014d1204,2023-06-16_10h12.23.114,phx_ver10,2022.2.5,Win32,59.99160118,,,,,,,,,,,,90,testing_3,j2x,ei,j2x_ei,j2x_8_eixei.wav,j2x_8_eixei.wav,,TRUE,FALSE,,,,,,,,,,,,,,f,0.2491,space,0.5617,,,,,,,,0,85,85,89,1,,
5d03d07ff00f5100014d1204,2023-06-16_10h12.23.114,phx_ver10,2022.2.5,Win32,59.99160118,,,,,,,,,,,,58,testing_3,zh2j,au,zh2j_au,zh2j_8_aujau.wav,zh2j_8_aujau.wav,,TRUE,FALSE,,,,,,,,,,,,,,f,0.3185,space,0.7529,,,,,,,,0,86,86,57,1,,
5d03d07ff00f5100014d1204,2023-06-16_10h12.23.114,phx_ver10,2022.2.5,Win32,59.99160118,,,,,,,,,,,,26,testing_3,zh2sh,a,zh2sh_a,zh2sh_8_asha.wav,zh2sh_8_asha.wav,,TRUE,FALSE,,,,,,,,,,,,,,f,0.0358,space,0.3818,,,,,,,,0,87,87,25,1,,
5d03d07ff00f5100014d1204,2023-06-16_10h12.23.114,phx_ver10,2022.2.5,Win32,59.99160118,,,,,,,,,,,,79,testing_3,j2x,ai,j2x_ai,j2x_1_aijai.wav,j2x_8_aixai.wav,,FALSE,FALSE,,,,,,,,,,,,,,j,0.0007,space,0.5671,,,,,,,,0,88,88,78,1,,
5d03d07ff00f5100014d1204,2023-06-16_10h12.23.114,phx_ver10,2022.2.5,Win32,59.99160118,,,,,,,,,,,,131,testing_3,sh2j,au,sh2j_au,sh2j_1_aushau.wav,sh2j_8_aujau.wav,,FALSE,FALSE,,,,,,,,,,,,,,j,0.7563,space,1.0745,,,,,,,,0,89,89,130,1,,
5d03d07ff00f5100014d1204,2023-06-16_10h12.23.114,phx_ver10,2022.2.5,Win32,59.99160118,,,,,,,,,,,,18,testing_2,zh2x,au,zh2x_au,zh2x_8_auxau.wav,zh2x_8_auxau.wav,,TRUE,FALSE,,,,,,,,,,,,,,f,0.1503,space,0.4345,,,,,,,,0,90,90,17,1,,
5d03d07ff00f5100014d1204,2023-06-16_10h12.23.114,phx_ver10,2022.2.5,Win32,59.99160118,,,,,,,,,,,,91,testing_3,j2x,ei,j2x_ei,j2x_1_eijei.wav,j2x_8_eixei.wav,,FALSE,FALSE,,,,,,,,,,,,,,j,0.0007,space,0.2997,,,,,,,,0,91,91,90,1,,
5d03d07ff00f5100014d1204,2023-06-16_10h12.23.114,phx_ver10,2022.2.5,Win32,59.99160118,,,,,,,,,,,,28,testing_3,zh2sh,a,zh2sh_a,zh2sh_8_asha.wav,zh2sh_1_azha.wav,,FALSE,FALSE,,,,,,,,,,,,,,j,0.652,space,0.9184,,,,,,,,0,92,92,27,1,,
5d03d07ff00f5100014d1204,2023-06-16_10h12.23.114,phx_ver10,2022.2.5,Win32,59.99160118,,,,,,,,,,,,141,testing_3,sh2j,i,sh2j_i,sh2j_1_ishi.wav,sh2j_1_ishi.wav,,TRUE,FALSE,,,,,,,,,,,,,,f,0.2695,space,0.5167,,,,,,,,0,93,93,140,1,,
5d03d07ff00f5100014d1204,2023-06-16_10h12.23.114,phx_ver10,2022.2.5,Win32,59.99160118,,,,,,,,,,,,56,testing_3,zh2j,ai,zh2j_ai,zh2j_8_aijai.wav,zh2j_1_aizhai.wav,,FALSE,FALSE,,,,,,,,,,,,,,f,0.3713,space,0.6211,,,,,,,,0,94,94,55,1,,
5d03d07ff00f5100014d1204,2023-06-16_10h12.23.114,phx_ver10,2022.2.5,Win32,59.99160118,,,,,,,,,,,,103,testing_3,sh2x,ai,sh2x_ai,sh2x_1_aishai.wav,sh2x_8_aixai.wav,,FALSE,FALSE,,,,,,,,,,,,,,j,0.3493,space,0.6253,,,,,,,,0,95,95,102,1,,
5d03d07ff00f5100014d1204,2023-06-16_10h12.23.114,phx_ver10,2022.2.5,Win32,59.99160118,,,,,,,,,,,,130,testing_3,sh2j,au,sh2j_au,sh2j_8_aujau.wav,sh2j_8_aujau.wav,,TRUE,FALSE,,,,,,,,,,,,,,f,0.1673,space,0.5012,,,,,,,,0,96,96,129,1,,
5d03d07ff00f5100014d1204,2023-06-16_10h12.23.114,phx_ver10,2022.2.5,Win32,59.99160118,,,,,,,,,,,,70,testing_3,zh2j,i,zh2j_i,zh2j_8_iji.wav,zh2j_8_iji.wav,,TRUE,FALSE,,,,,,,,,,,,,,f,0.5812,space,1.2171,,,,,,,,0,97,97,69,1,,
5d03d07ff00f5100014d1204,2023-06-16_10h12.23.114,phx_ver10,2022.2.5,Win32,59.99160118,,,,,,,,,,,,134,testing_3,sh2j,e,sh2j_e,sh2j_8_eje.wav,sh2j_8_eje.wav,,TRUE,FALSE,,,,,,,,,,,,,,f,0.4509,space,2.2713,,,,,,,,0,98,98,133,1,,
5d03d07ff00f5100014d1204,2023-06-16_10h12.23.114,phx_ver10,2022.2.5,Win32,59.99160118,,,,,,,,,,,,71,testing_3,zh2j,i,zh2j_i,zh2j_1_izhi.wav,zh2j_8_iji.wav,,FALSE,FALSE,,,,,,,,,,,,,,f,0.1682,space,0.7345,,,,,,,,0,99,99,70,1,,
5d03d07ff00f5100014d1204,2023-06-16_10h12.23.114,phx_ver10,2022.2.5,Win32,59.99160118,,,,,,,,,,,,95,testing_3,j2x,i,j2x_i,j2x_1_iji.wav,j2x_8_ixi.wav,,FALSE,FALSE,,,,,,,,,,,,,,j,0.1188,space,0.4331,,,,,,,,0,100,100,94,1,,
5d03d07ff00f5100014d1204,2023-06-16_10h12.23.114,phx_ver10,2022.2.5,Win32,59.99160118,,,,,,,,,,,,73,testing_3,j2x,a,j2x_a,j2x_1_aja.wav,j2x_1_aja.wav,,TRUE,FALSE,,,,,,,,,,,,,,f,1.6545,space,2.1713,,,,,,,,0,101,101,72,1,,
5d03d07ff00f5100014d1204,2023-06-16_10h12.23.114,phx_ver10,2022.2.5,Win32,59.99160118,,,,,,,,,,,,34,testing_3,zh2sh,au,zh2sh_au,zh2sh_8_aushau.wav,zh2sh_8_aushau.wav,,TRUE,FALSE,,,,,,,,,,,,,,f,0.489,space,0.9387,,,,,,,,0,102,102,33,1,,
5d03d07ff00f5100014d1204,2023-06-16_10h12.23.114,phx_ver10,2022.2.5,Win32,59.99160118,,,,,,,,,,,,41,testing_3,zh2sh,ei,zh2sh_ei,zh2sh_1_eizhei.wav,zh2sh_1_eizhei.wav,,TRUE,FALSE,,,,,,,,,,,,,,f,0.2789,space,0.5708,,,,,,,,0,103,103,40,1,,
5d03d07ff00f5100014d1204,2023-06-16_10h12.23.114,phx_ver10,2022.2.5,Win32,59.99160118,,,,,,,,,,,,66,testing_3,zh2j,ei,zh2j_ei,zh2j_8_eijei.wav,zh2j_8_eijei.wav,,TRUE,FALSE,,,,,,,,,,,,,,f,0.1537,space,0.6712,,,,,,,,0,104,104,65,1,,
5d03d07ff00f5100014d1204,2023-06-16_10h12.23.114,phx_ver10,2022.2.5,Win32,59.99160118,,,,,,,,,,,,88,testing_3,j2x,e,j2x_e,j2x_8_exe.wav,j2x_1_eje.wav,,FALSE,FALSE,,,,,,,,,,,,,,j,1.0206,space,1.4819,,,,,,,,0,105,105,87,1,,
5d03d07ff00f5100014d1204,2023-06-16_10h12.23.114,phx_ver10,2022.2.5,Win32,59.99160118,,,,,,,,,,,,11,testing_1,zh2x,i,zh2x_i,zh2x_1_izhi.wav,zh2x_8_ixi.wav,,FALSE,TRUE,,,,,,,,,,,,,,f,1.3004,space,1.5147,,,,,,,,0,106,106,10,1,,
5d03d07ff00f5100014d1204,2023-06-16_10h12.23.114,phx_ver10,2022.2.5,Win32,59.99160118,,,,,,,,,,,,142,testing_3,sh2j,i,sh2j_i,sh2j_8_iji.wav,sh2j_8_iji.wav,,TRUE,FALSE,,,,,,,,,,,,,,f,0.1053,space,0.3876,,,,,,,,0,107,107,141,1,,
5d03d07ff00f5100014d1204,2023-06-16_10h12.23.114,phx_ver10,2022.2.5,Win32,59.99160118,,,,,,,,,,,,138,testing_3,sh2j,ei,sh2j_ei,sh2j_8_eijei.wav,sh2j_8_eijei.wav,,TRUE,FALSE,,,,,,,,,,,,,,f,0.2841,space,0.5363,,,,,,,,0,108,108,137,1,,
5d03d07ff00f5100014d1204,2023-06-16_10h12.23.114,phx_ver10,2022.2.5,Win32,59.99160118,,,,,,,,,,,,29,testing_3,zh2sh,ai,zh2sh_ai,zh2sh_1_aizhai.wav,zh2sh_1_aizhai.wav,,TRUE,FALSE,,,,,,,,,,,,,,f,0.1018,space,0.4179,,,,,,,,0,109,109,28,1,,
5d03d07ff00f5100014d1204,2023-06-16_10h12.23.114,phx_ver10,2022.2.5,Win32,59.99160118,,,,,,,,,,,,63,testing_3,zh2j,e,zh2j_e,zh2j_1_ezhe.wav,zh2j_8_eje.wav,,FALSE,FALSE,,,,,,,,,,,,,,f,0.0521,space,0.3522,,,,,,,,0,110,110,62,1,,
5d03d07ff00f5100014d1204,2023-06-16_10h12.23.114,phx_ver10,2022.2.5,Win32,59.99160118,,,,,,,,,,,,12,testing_1,zh2x,i,zh2x_i,zh2x_8_ixi.wav,zh2x_1_izhi.wav,,FALSE,TRUE,,,,,,,,,,,,,,j,2.4357,space,2.704,,,,,,,,0,111,111,11,1,,
5d03d07ff00f5100014d1204,2023-06-16_10h12.23.114,phx_ver10,2022.2.5,Win32,59.99160118,,,,,,,,,,,,44,testing_3,zh2sh,ei,zh2sh_ei,zh2sh_8_eishei.wav,zh2sh_1_eizhei.wav,,FALSE,FALSE,,,,,,,,,,,,,,j,0.0344,space,0.4012,,,,,,,,0,112,112,43,1,,
5d03d07ff00f5100014d1204,2023-06-16_10h12.23.114,phx_ver10,2022.2.5,Win32,59.99160118,,,,,,,,,,,,101,testing_3,sh2x,ai,sh2x_ai,sh2x_1_aishai.wav,sh2x_1_aishai.wav,,TRUE,FALSE,,,,,,,,,,,,,,f,0.0673,space,0.3483,,,,,,,,0,113,113,100,1,,
5d03d07ff00f5100014d1204,2023-06-16_10h12.23.114,phx_ver10,2022.2.5,Win32,59.99160118,,,,,,,,,,,,122,testing_3,sh2j,a,sh2j_a,sh2j_8_aja.wav,sh2j_8_aja.wav,,TRUE,FALSE,,,,,,,,,,,,,,f,0.0387,space,0.3034,,,,,,,,0,114,114,121,1,,
5d03d07ff00f5100014d1204,2023-06-16_10h12.23.114,phx_ver10,2022.2.5,Win32,59.99160118,,,,,,,,,,,,124,testing_3,sh2j,a,sh2j_a,sh2j_8_aja.wav,sh2j_1_asha.wav,,FALSE,FALSE,,,,,,,,,,,,,,j,0.2682,space,0.5342,,,,,,,,0,115,115,123,1,,
5d03d07ff00f5100014d1204,2023-06-16_10h12.23.114,phx_ver10,2022.2.5,Win32,59.99160118,,,,,,,,,,,,51,testing_3,zh2j,a,zh2j_a,zh2j_1_azha.wav,zh2j_8_aja.wav,,FALSE,FALSE,,,,,,,,,,,,,,f,0.1523,space,0.4682,,,,,,,,0,116,116,50,1,,
5d03d07ff00f5100014d1204,2023-06-16_10h12.23.114,phx_ver10,2022.2.5,Win32,59.99160118,,,,,,,,,,,,20,testing_2,zh2x,au,zh2x_au,zh2x_8_auxau.wav,zh2x_1_auzhau.wav,,FALSE,FALSE,,,,,,,,,,,,,,j,0.0056,space,0.3844,,,,,,,,0,117,117,19,1,,
5d03d07ff00f5100014d1204,2023-06-16_10h12.23.114,phx_ver10,2022.2.5,Win32,59.99160118,,,,,,,,,,,,102,testing_3,sh2x,ai,sh2x_ai,sh2x_8_aixai.wav,sh2x_8_aixai.wav,,TRUE,FALSE,,,,,,,,,,,,,,f,0.2213,space,0.5007,,,,,,,,0,118,118,101,1,,
5d03d07ff00f5100014d1204,2023-06-16_10h12.23.114,phx_ver10,2022.2.5,Win32,59.99160118,,,,,,,,,,,,133,testing_3,sh2j,e,sh2j_e,sh2j_1_eshe.wav,sh2j_1_eshe.wav,,TRUE,FALSE,,,,,,,,,,,,,,f,0.1372,space,0.3708,,,,,,,,0,119,119,132,1,,
5d03d07ff00f5100014d1204,2023-06-16_10h12.23.114,phx_ver10,2022.2.5,Win32,59.99160118,,,,,,,,,,,,96,testing_3,j2x,i,j2x_i,j2x_8_ixi.wav,j2x_1_iji.wav,,FALSE,FALSE,,,,,,,,,,,,,,j,0.0869,space,0.3538,,,,,,,,0,120,120,95,1,,
5d03d07ff00f5100014d1204,2023-06-16_10h12.23.114,phx_ver10,2022.2.5,Win32,59.99160118,,,,,,,,,,,,40,testing_3,zh2sh,e,zh2sh_e,zh2sh_8_eshe.wav,zh2sh_1_ezhe.wav,,FALSE,FALSE,,,,,,,,,,,,,,j,0.2118,space,0.4876,,,,,,,,0,121,121,39,1,,
5d03d07ff00f5100014d1204,2023-06-16_10h12.23.114,phx_ver10,2022.2.5,Win32,59.99160118,,,,,,,,,,,,98,testing_3,sh2x,a,sh2x_a,sh2x_8_axa.wav,sh2x_8_axa.wav,,TRUE,FALSE,,,,,,,,,,,,,,f,0.1284,space,0.37,,,,,,,,0,122,122,97,1,,
5d03d07ff00f5100014d1204,2023-06-16_10h12.23.114,phx_ver10,2022.2.5,Win32,59.99160118,,,,,,,,,,,,108,testing_3,sh2x,au,sh2x_au,sh2x_8_auxau.wav,sh2x_1_aushau.wav,,FALSE,FALSE,,,,,,,,,,,,,,j,0.0674,space,0.3844,,,,,,,,0,123,123,107,1,,
5d03d07ff00f5100014d1204,2023-06-16_10h12.23.114,phx_ver10,2022.2.5,Win32,59.99160118,,,,,,,,,,,,120,testing_3,sh2x,i,sh2x_i,sh2x_8_ixi.wav,sh2x_1_ishi.wav,,FALSE,FALSE,,,,,,,,,,,,,,j,0.2753,space,0.539,,,,,,,,0,124,124,119,1,,
5d03d07ff00f5100014d1204,2023-06-16_10h12.23.114,phx_ver10,2022.2.5,Win32,59.99160118,,,,,,,,,,,,60,testing_3,zh2j,au,zh2j_au,zh2j_8_aujau.wav,zh2j_1_auzhau.wav,,FALSE,FALSE,,,,,,,,,,,,,,f,0.0348,space,0.4353,,,,,,,,0,125,125,59,1,,
5d03d07ff00f5100014d1204,2023-06-16_10h12.23.114,phx_ver10,2022.2.5,Win32,59.99160118,,,,,,,,,,,,82,testing_3,j2x,au,j2x_au,j2x_8_auxau.wav,j2x_8_auxau.wav,,TRUE,FALSE,,,,,,,,,,,,,,f,0.0257,space,0.3238,,,,,,,,0,126,126,81,1,,
5d03d07ff00f5100014d1204,2023-06-16_10h12.23.114,phx_ver10,2022.2.5,Win32,59.99160118,,,,,,,,,,,,4,testing_1,zh2x,a,zh2x_a,zh2x_8_axa.wav,zh2x_1_azha.wav,,FALSE,TRUE,,,,,,,,,,,,,,j,0.0341,space,0.3842,,,,,,,,0,127,127,3,1,,
5d03d07ff00f5100014d1204,2023-06-16_10h12.23.114,phx_ver10,2022.2.5,Win32,59.99160118,,,,,,,,,,,,105,testing_3,sh2x,au,sh2x_au,sh2x_1_aushau.wav,sh2x_1_aushau.wav,,TRUE,FALSE,,,,,,,,,,,,,,f,0.1517,space,0.4352,,,,,,,,0,128,128,104,1,,
5d03d07ff00f5100014d1204,2023-06-16_10h12.23.114,phx_ver10,2022.2.5,Win32,59.99160118,,,,,,,,,,,,5,testing_1,zh2x,e,zh2x_e,zh2x_1_ezhe.wav,zh2x_1_ezhe_copy.wav,,TRUE,TRUE,,,,,,,,,,,,,,f,0.0011,space,0.3675,,,,,,,,0,129,129,4,1,,
5d03d07ff00f5100014d1204,2023-06-16_10h12.23.114,phx_ver10,2022.2.5,Win32,59.99160118,,,,,,,,,,,,135,testing_3,sh2j,e,sh2j_e,sh2j_1_eshe.wav,sh2j_8_eje.wav,,FALSE,FALSE,,,,,,,,,,,,,,j,0.015,space,0.3981,,,,,,,,0,130,130,134,1,,
5d03d07ff00f5100014d1204,2023-06-16_10h12.23.114,phx_ver10,2022.2.5,Win32,59.99160118,,,,,,,,,,,,87,testing_3,j2x,e,j2x_e,j2x_1_eje.wav,j2x_8_exe.wav,,FALSE,FALSE,,,,,,,,,,,,,,j,0.0673,space,0.5845,,,,,,,,0,131,131,86,1,,
5d03d07ff00f5100014d1204,2023-06-16_10h12.23.114,phx_ver10,2022.2.5,Win32,59.99160118,,,,,,,,,,,,22,testing_2,zh2x,ei,zh2x_ei,zh2x_8_eixei.wav,zh2x_8_eixei.wav,,TRUE,FALSE,,,,,,,,,,,,,,f,0.0904,space,0.3505,,,,,,,,0,132,132,21,1,,
5d03d07ff00f5100014d1204,2023-06-16_10h12.23.114,phx_ver10,2022.2.5,Win32,59.99160118,,,,,,,,,,,,1,testing_1,zh2x,a,zh2x_a,zh2x_1_azha.wav,zh2x_1_azha_copy.wav,,TRUE,TRUE,,,,,,,,,,,,,,f,0.1063,space,0.3696,,,,,,,,0,133,133,0,1,,
5d03d07ff00f5100014d1204,2023-06-16_10h12.23.114,phx_ver10,2022.2.5,Win32,59.99160118,,,,,,,,,,,,143,testing_3,sh2j,i,sh2j_i,sh2j_1_ishi.wav,sh2j_8_iji.wav,,FALSE,FALSE,,,,,,,,,,,,,,j,0.2707,space,0.5509,,,,,,,,0,134,134,142,1,,
5d03d07ff00f5100014d1204,2023-06-16_10h12.23.114,phx_ver10,2022.2.5,Win32,59.99160118,,,,,,,,,,,,50,testing_3,zh2j,a,zh2j_a,zh2j_8_aja.wav,zh2j_8_aja.wav,,TRUE,FALSE,,,,,,,,,,,,,,f,0.0454,space,0.3536,,,,,,,,0,135,135,49,1,,
5d03d07ff00f5100014d1204,2023-06-16_10h12.23.114,phx_ver10,2022.2.5,Win32,59.99160118,,,,,,,,,,,,32,testing_3,zh2sh,ai,zh2sh_ai,zh2sh_8_aishai.wav,zh2sh_1_aizhai.wav,,FALSE,FALSE,,,,,,,,,,,,,,j,0.0876,space,0.3525,,,,,,,,0,136,136,31,1,,
5d03d07ff00f5100014d1204,2023-06-16_10h12.23.114,phx_ver10,2022.2.5,Win32,59.99160118,,,,,,,,,,,,99,testing_3,sh2x,a,sh2x_a,sh2x_1_asha.wav,sh2x_8_axa.wav,,FALSE,FALSE,,,,,,,,,,,,,,j,0.7709,space,1.3038,,,,,,,,0,137,137,98,1,,
5d03d07ff00f5100014d1204,2023-06-16_10h12.23.114,phx_ver10,2022.2.5,Win32,59.99160118,,,,,,,,,,,,128,testing_3,sh2j,ai,sh2j_ai,sh2j_8_aijai.wav,sh2j_1_aishai.wav,,FALSE,FALSE,,,,,,,,,,,,,,j,0.1842,space,0.4679,,,,,,,,0,138,138,127,1,,
5d03d07ff00f5100014d1204,2023-06-16_10h12.23.114,phx_ver10,2022.2.5,Win32,59.99160118,,,,,,,,,,,,62,testing_3,zh2j,e,zh2j_e,zh2j_8_eje.wav,zh2j_8_eje.wav,,TRUE,FALSE,,,,,,,,,,,,,,f,0.0987,space,0.3898,,,,,,,,0,139,139,61,1,,
5d03d07ff00f5100014d1204,2023-06-16_10h12.23.114,phx_ver10,2022.2.5,Win32,59.99160118,,,,,,,,,,,,55,testing_3,zh2j,ai,zh2j_ai,zh2j_1_aizhai.wav,zh2j_8_aijai.wav,,FALSE,FALSE,,,,,,,,,,,,,,f,0.0692,space,0.3554,,,,,,,,0,140,140,54,1,,
5d03d07ff00f5100014d1204,2023-06-16_10h12.23.114,phx_ver10,2022.2.5,Win32,59.99160118,,,,,,,,,,,,3,testing_1,zh2x,a,zh2x_a,zh2x_1_azha.wav,zh2x_8_axa.wav,,FALSE,TRUE,,,,,,,,,,,,,,j,0.0215,space,0.3346,,,,,,,,0,141,141,2,1,,
5d03d07ff00f5100014d1204,2023-06-16_10h12.23.114,phx_ver10,2022.2.5,Win32,59.99160118,,,,,,,,,,,,93,testing_3,j2x,i,j2x_i,j2x_1_iji.wav,j2x_1_iji.wav,,TRUE,FALSE,,,,,,,,,,,,,,f,0.3399,space,0.5745,,,,,,,,0,142,142,92,1,,
5d03d07ff00f5100014d1204,2023-06-16_10h12.23.114,phx_ver10,2022.2.5,Win32,59.99160118,,,,,,,,,,,,67,testing_3,zh2j,ei,zh2j_ei,zh2j_1_eizhei.wav,zh2j_8_eijei.wav,,FALSE,FALSE,,,,,,,,,,,,,,f,0.3537,space,0.6206,,,,,,,,0,143,143,66,1,,
5d03d07ff00f5100014d1204,2023-06-16_10h12.23.114,phx_ver10,2022.2.5,Win32,59.99160118,,,,,,,,,,,,,,,,,,,,,,,,,,,,,,,,,,,,,,,,,,,,,,,,,,,space,2.6761
