participant,date,expName,psychopyVersion,OS,frameRate,space_1.keys,space_1.rt,space_2.keys,space_2.rt,space_train.keys,space_train.rt,training.thisRepN,training.thisTrialN,training.thisN,training.thisIndex,training.ran,token_id,task,continuum,vowel,series,sound_1,sound_2,img,same,trained,FJ_attn.keys,FJ_attn.rt,space_attn.keys,space_attn.rt,if_attn_test.thisRepN,if_attn_test.thisTrialN,if_attn_test.thisN,if_attn_test.thisIndex,if_attn_test.ran,space_trans_1.keys,space_trans_1.rt,space_trans_11.keys,space_trans_11.rt,FJ_test.keys,FJ_test.rt,space_test.keys,space_test.rt,testing_pre.thisRepN,testing_pre.thisTrialN,testing_pre.thisN,testing_pre.thisIndex,testing_pre.ran,space_trans_2.keys,space_trans_2.rt,testing_all.thisRepN,testing_all.thisTrialN,testing_all.thisN,testing_all.thisIndex,testing_all.ran,space_ending.keys,space_ending.rt
5d0792622c41d6000158022e,2023-06-16_09h55.25.062,phx_ver10,2022.2.5,Win32,61.39489194,,,,,,,,,,,,,,,,,,,,,,,,,,,,,,,,,,,,,,,,,,,,,,,,,,,,
5d0792622c41d6000158022e,2023-06-16_09h55.25.062,phx_ver10,2022.2.5,Win32,61.39489194,space,7.2686,,,,,,,,,,,,,,,,,,,,,,,,,,,,,,,,,,,,,,,,,,,,,,,,,,
5d0792622c41d6000158022e,2023-06-16_09h55.25.062,phx_ver10,2022.2.5,Win32,61.39489194,,,space,2.6844,,,,,,,,,,,,,,,,,,,,,,,,,,,,,,,,,,,,,,,,,,,,,,,,
5d0792622c41d6000158022e,2023-06-16_09h55.25.062,phx_ver10,2022.2.5,Win32,61.39489194,,,,,space,1.6687,0,0,0,9,1,10,training,zh2x,a,zh2x_a,zh2x_6_axa.wav,,axa.jpg,,,,,,,,,,,,,,,,,,,,,,,,,,,,,,,,,
5d0792622c41d6000158022e,2023-06-16_09h55.25.062,phx_ver10,2022.2.5,Win32,61.39489194,,,,,space,2.5868,0,1,1,33,1,34,training,zh2x,i,zh2x_i,zh2x_2_izhi.wav,,izhi.jpg,,,,,,,,,,,,,,,,,,,,,,,,,,,,,,,,,
5d0792622c41d6000158022e,2023-06-16_09h55.25.062,phx_ver10,2022.2.5,Win32,61.39489194,,,,,space,1.6572,0,2,2,30,1,31,training,zh2x,e,zh2x_e,zh2x_7_exe.wav,,exe.jpg,,,,,,,,,,,,,,,,,,,,,,,,,,,,,,,,,
5d0792622c41d6000158022e,2023-06-16_09h55.25.062,phx_ver10,2022.2.5,Win32,61.39489194,,,,,space,1.9067,0,3,3,19,1,20,training,zh2x,e,zh2x_e,zh2x_2_ezhe.wav,,ezhe.jpg,,,,,,,,,,,,,,,,,,,,,,,,,,,,,,,,,
5d0792622c41d6000158022e,2023-06-16_09h55.25.062,phx_ver10,2022.2.5,Win32,61.39489194,,,,,space,1.3447,0,4,4,4,1,5,training,zh2x,a,zh2x_a,zh2x_2_azha.wav,,azha.jpg,,,,,,,,,,,,,,,,,,,,,,,,,,,,,,,,,
5d0792622c41d6000158022e,2023-06-16_09h55.25.062,phx_ver10,2022.2.5,Win32,61.39489194,,,,,space,6.2188,0,5,5,29,1,30,training,zh2x,e,zh2x_e,zh2x_7_exe.wav,,exe.jpg,,,,,,,,,,,,,,,,,,,,,,,,,,,,,,,,,
5d0792622c41d6000158022e,2023-06-16_09h55.25.062,phx_ver10,2022.2.5,Win32,61.39489194,,,,,,,,,,,,,attn_test,,,,zh2x_1_ezhe.wav,zh2x_1_azha.wav,azha.jpg,RIGHT,,j,2.8352,space,3.7658,0,0,0,0,1,,,,,,,,,,,,,,,,,,,,,,
5d0792622c41d6000158022e,2023-06-16_09h55.25.062,phx_ver10,2022.2.5,Win32,61.39489194,,,,,space,1.6695,0,6,6,31,1,32,training,zh2x,e,zh2x_e,zh2x_8_exe.wav,,exe.jpg,,,,,,,,,,,,,,,,,,,,,,,,,,,,,,,,,
5d0792622c41d6000158022e,2023-06-16_09h55.25.062,phx_ver10,2022.2.5,Win32,61.39489194,,,,,space,1.0372,0,7,7,18,1,19,training,zh2x,e,zh2x_e,zh2x_2_ezhe.wav,,ezhe.jpg,,,,,,,,,,,,,,,,,,,,,,,,,,,,,,,,,
5d0792622c41d6000158022e,2023-06-16_09h55.25.062,phx_ver10,2022.2.5,Win32,61.39489194,,,,,space,0.2527,0,8,8,26,1,27,training,zh2x,e,zh2x_e,zh2x_6_exe.wav,,exe.jpg,,,,,,,,,,,,,,,,,,,,,,,,,,,,,,,,,
5d0792622c41d6000158022e,2023-06-16_09h55.25.062,phx_ver10,2022.2.5,Win32,61.39489194,,,,,space,0.1176,0,9,9,39,1,40,training,zh2x,i,zh2x_i,zh2x_4_izhi.wav,,izhi.jpg,,,,,,,,,,,,,,,,,,,,,,,,,,,,,,,,,
5d0792622c41d6000158022e,2023-06-16_09h55.25.062,phx_ver10,2022.2.5,Win32,61.39489194,,,,,space,0.2288,0,10,10,1,1,2,training,zh2x,a,zh2x_a,zh2x_2_azha.wav,,azha.jpg,,,,,,,,,,,,,,,,,,,,,,,,,,,,,,,,,
5d0792622c41d6000158022e,2023-06-16_09h55.25.062,phx_ver10,2022.2.5,Win32,61.39489194,,,,,space,0.0006,0,11,11,2,1,3,training,zh2x,a,zh2x_a,zh2x_2_azha.wav,,azha.jpg,,,,,,,,,,,,,,,,,,,,,,,,,,,,,,,,,
5d0792622c41d6000158022e,2023-06-16_09h55.25.062,phx_ver10,2022.2.5,Win32,61.39489194,,,,,,,,,,,,,attn_test,,,,zh2x_8_ixi.wav,zh2x_8_exe.wav,exe.jpg,RIGHT,,j,3.4567,space,4.4011,0,0,0,0,1,,,,,,,,,,,,,,,,,,,,,,
5d0792622c41d6000158022e,2023-06-16_09h55.25.062,phx_ver10,2022.2.5,Win32,61.39489194,,,,,space,2.1342,0,12,12,43,1,44,training,zh2x,i,zh2x_i,zh2x_7_ixi.wav,,ixi.jpg,,,,,,,,,,,,,,,,,,,,,,,,,,,,,,,,,
5d0792622c41d6000158022e,2023-06-16_09h55.25.062,phx_ver10,2022.2.5,Win32,61.39489194,,,,,space,3.0187,0,13,13,15,1,16,training,zh2x,a,zh2x_a,zh2x_8_axa.wav,,axa.jpg,,,,,,,,,,,,,,,,,,,,,,,,,,,,,,,,,
5d0792622c41d6000158022e,2023-06-16_09h55.25.062,phx_ver10,2022.2.5,Win32,61.39489194,,,,,space,1.0394,0,14,14,32,1,33,training,zh2x,i,zh2x_i,zh2x_1_izhi.wav,,izhi.jpg,,,,,,,,,,,,,,,,,,,,,,,,,,,,,,,,,
5d0792622c41d6000158022e,2023-06-16_09h55.25.062,phx_ver10,2022.2.5,Win32,61.39489194,,,,,space,0.1669,0,15,15,34,1,35,training,zh2x,i,zh2x_i,zh2x_2_izhi.wav,,izhi.jpg,,,,,,,,,,,,,,,,,,,,,,,,,,,,,,,,,
5d0792622c41d6000158022e,2023-06-16_09h55.25.062,phx_ver10,2022.2.5,Win32,61.39489194,,,,,space,0.9232,0,16,16,27,1,28,training,zh2x,e,zh2x_e,zh2x_7_exe.wav,,exe.jpg,,,,,,,,,,,,,,,,,,,,,,,,,,,,,,,,,
5d0792622c41d6000158022e,2023-06-16_09h55.25.062,phx_ver10,2022.2.5,Win32,61.39489194,,,,,space,0.1887,0,17,17,0,1,1,training,zh2x,a,zh2x_a,zh2x_1_azha.wav,,azha.jpg,,,,,,,,,,,,,,,,,,,,,,,,,,,,,,,,,
5d0792622c41d6000158022e,2023-06-16_09h55.25.062,phx_ver10,2022.2.5,Win32,61.39489194,,,,,,,,,,,,,attn_test,,,,zh2x_8_exe.wav,zh2x_1_ezhe.wav,exe.jpg,LEFT,,j,4.0571,space,4.9201,0,0,0,0,1,,,,,,,,,,,,,,,,,,,,,,
5d0792622c41d6000158022e,2023-06-16_09h55.25.062,phx_ver10,2022.2.5,Win32,61.39489194,,,,,space,0.751,0,18,18,5,1,6,training,zh2x,a,zh2x_a,zh2x_3_azha.wav,,azha.jpg,,,,,,,,,,,,,,,,,,,,,,,,,,,,,,,,,
5d0792622c41d6000158022e,2023-06-16_09h55.25.062,phx_ver10,2022.2.5,Win32,61.39489194,,,,,space,0.3403,0,19,19,28,1,29,training,zh2x,e,zh2x_e,zh2x_7_exe.wav,,exe.jpg,,,,,,,,,,,,,,,,,,,,,,,,,,,,,,,,,
5d0792622c41d6000158022e,2023-06-16_09h55.25.062,phx_ver10,2022.2.5,Win32,61.39489194,,,,,space,0.1672,0,20,20,45,1,46,training,zh2x,i,zh2x_i,zh2x_7_ixi.wav,,ixi.jpg,,,,,,,,,,,,,,,,,,,,,,,,,,,,,,,,,
5d0792622c41d6000158022e,2023-06-16_09h55.25.062,phx_ver10,2022.2.5,Win32,61.39489194,,,,,space,0.9048,0,21,21,36,1,37,training,zh2x,i,zh2x_i,zh2x_2_izhi.wav,,izhi.jpg,,,,,,,,,,,,,,,,,,,,,,,,,,,,,,,,,
5d0792622c41d6000158022e,2023-06-16_09h55.25.062,phx_ver10,2022.2.5,Win32,61.39489194,,,,,space,0.0337,0,22,22,20,1,21,training,zh2x,e,zh2x_e,zh2x_2_ezhe.wav,,ezhe.jpg,,,,,,,,,,,,,,,,,,,,,,,,,,,,,,,,,
5d0792622c41d6000158022e,2023-06-16_09h55.25.062,phx_ver10,2022.2.5,Win32,61.39489194,,,,,space,0.7534,0,23,23,13,1,14,training,zh2x,a,zh2x_a,zh2x_7_axa.wav,,axa.jpg,,,,,,,,,,,,,,,,,,,,,,,,,,,,,,,,,
5d0792622c41d6000158022e,2023-06-16_09h55.25.062,phx_ver10,2022.2.5,Win32,61.39489194,,,,,,,,,,,,,attn_test,,,,zh2x_8_ixi.wav,zh2x_1_azha.wav,ixi.jpg,LEFT,,f,0.417,space,1.5703,0,0,0,0,1,,,,,,,,,,,,,,,,,,,,,,
5d0792622c41d6000158022e,2023-06-16_09h55.25.062,phx_ver10,2022.2.5,Win32,61.39489194,,,,,space,0.667,0,24,24,17,1,18,training,zh2x,e,zh2x_e,zh2x_2_ezhe.wav,,ezhe.jpg,,,,,,,,,,,,,,,,,,,,,,,,,,,,,,,,,
5d0792622c41d6000158022e,2023-06-16_09h55.25.062,phx_ver10,2022.2.5,Win32,61.39489194,,,,,space,0.0167,0,25,25,21,1,22,training,zh2x,e,zh2x_e,zh2x_3_ezhe.wav,,ezhe.jpg,,,,,,,,,,,,,,,,,,,,,,,,,,,,,,,,,
5d0792622c41d6000158022e,2023-06-16_09h55.25.062,phx_ver10,2022.2.5,Win32,61.39489194,,,,,space,0.3345,0,26,26,11,1,12,training,zh2x,a,zh2x_a,zh2x_7_axa.wav,,axa.jpg,,,,,,,,,,,,,,,,,,,,,,,,,,,,,,,,,
5d0792622c41d6000158022e,2023-06-16_09h55.25.062,phx_ver10,2022.2.5,Win32,61.39489194,,,,,space,0.6247,0,27,27,25,1,26,training,zh2x,e,zh2x_e,zh2x_6_exe.wav,,exe.jpg,,,,,,,,,,,,,,,,,,,,,,,,,,,,,,,,,
5d0792622c41d6000158022e,2023-06-16_09h55.25.062,phx_ver10,2022.2.5,Win32,61.39489194,,,,,space,0.156,0,28,28,24,1,25,training,zh2x,e,zh2x_e,zh2x_5_exe.wav,,exe.jpg,,,,,,,,,,,,,,,,,,,,,,,,,,,,,,,,,
5d0792622c41d6000158022e,2023-06-16_09h55.25.062,phx_ver10,2022.2.5,Win32,61.39489194,,,,,space,1.8101,0,29,29,46,1,47,training,zh2x,i,zh2x_i,zh2x_7_ixi.wav,,ixi.jpg,,,,,,,,,,,,,,,,,,,,,,,,,,,,,,,,,
5d0792622c41d6000158022e,2023-06-16_09h55.25.062,phx_ver10,2022.2.5,Win32,61.39489194,,,,,,,,,,,,,attn_test,,,,zh2x_1_ezhe.wav,zh2x_8_ixi.wav,ezhe.jpg,LEFT,,f,0.6408,space,3.4588,0,0,0,0,1,,,,,,,,,,,,,,,,,,,,,,
5d0792622c41d6000158022e,2023-06-16_09h55.25.062,phx_ver10,2022.2.5,Win32,61.39489194,,,,,space,1.1861,0,30,30,16,1,17,training,zh2x,e,zh2x_e,zh2x_1_ezhe.wav,,ezhe.jpg,,,,,,,,,,,,,,,,,,,,,,,,,,,,,,,,,
5d0792622c41d6000158022e,2023-06-16_09h55.25.062,phx_ver10,2022.2.5,Win32,61.39489194,,,,,space,0.2362,0,31,31,12,1,13,training,zh2x,a,zh2x_a,zh2x_7_axa.wav,,axa.jpg,,,,,,,,,,,,,,,,,,,,,,,,,,,,,,,,,
5d0792622c41d6000158022e,2023-06-16_09h55.25.062,phx_ver10,2022.2.5,Win32,61.39489194,,,,,space,0.0343,0,32,32,44,1,45,training,zh2x,i,zh2x_i,zh2x_7_ixi.wav,,ixi.jpg,,,,,,,,,,,,,,,,,,,,,,,,,,,,,,,,,
5d0792622c41d6000158022e,2023-06-16_09h55.25.062,phx_ver10,2022.2.5,Win32,61.39489194,,,,,space,0.0812,0,33,33,10,1,11,training,zh2x,a,zh2x_a,zh2x_6_axa.wav,,axa.jpg,,,,,,,,,,,,,,,,,,,,,,,,,,,,,,,,,
5d0792622c41d6000158022e,2023-06-16_09h55.25.062,phx_ver10,2022.2.5,Win32,61.39489194,,,,,space,0.67,0,34,34,8,1,9,training,zh2x,a,zh2x_a,zh2x_5_axa.wav,,axa.jpg,,,,,,,,,,,,,,,,,,,,,,,,,,,,,,,,,
5d0792622c41d6000158022e,2023-06-16_09h55.25.062,phx_ver10,2022.2.5,Win32,61.39489194,,,,,space,0.0209,0,35,35,6,1,7,training,zh2x,a,zh2x_a,zh2x_3_azha.wav,,azha.jpg,,,,,,,,,,,,,,,,,,,,,,,,,,,,,,,,,
5d0792622c41d6000158022e,2023-06-16_09h55.25.062,phx_ver10,2022.2.5,Win32,61.39489194,,,,,,,,,,,,,attn_test,,,,zh2x_8_ixi.wav,zh2x_8_axa.wav,axa.jpg,RIGHT,,j,1.5697,space,2.5773,0,0,0,0,1,,,,,,,,,,,,,,,,,,,,,,
5d0792622c41d6000158022e,2023-06-16_09h55.25.062,phx_ver10,2022.2.5,Win32,61.39489194,,,,,space,1.0045,0,36,36,14,1,15,training,zh2x,a,zh2x_a,zh2x_7_axa.wav,,axa.jpg,,,,,,,,,,,,,,,,,,,,,,,,,,,,,,,,,
5d0792622c41d6000158022e,2023-06-16_09h55.25.062,phx_ver10,2022.2.5,Win32,61.39489194,,,,,space,1.5012,0,37,37,23,1,24,training,zh2x,e,zh2x_e,zh2x_4_ezhe.wav,,ezhe.jpg,,,,,,,,,,,,,,,,,,,,,,,,,,,,,,,,,
5d0792622c41d6000158022e,2023-06-16_09h55.25.062,phx_ver10,2022.2.5,Win32,61.39489194,,,,,space,0.8419,0,38,38,37,1,38,training,zh2x,i,zh2x_i,zh2x_3_izhi.wav,,izhi.jpg,,,,,,,,,,,,,,,,,,,,,,,,,,,,,,,,,
5d0792622c41d6000158022e,2023-06-16_09h55.25.062,phx_ver10,2022.2.5,Win32,61.39489194,,,,,space,0.7593,0,39,39,3,1,4,training,zh2x,a,zh2x_a,zh2x_2_azha.wav,,azha.jpg,,,,,,,,,,,,,,,,,,,,,,,,,,,,,,,,,
5d0792622c41d6000158022e,2023-06-16_09h55.25.062,phx_ver10,2022.2.5,Win32,61.39489194,,,,,space,0.4713,0,40,40,40,1,41,training,zh2x,i,zh2x_i,zh2x_5_ixi.wav,,ixi.jpg,,,,,,,,,,,,,,,,,,,,,,,,,,,,,,,,,
5d0792622c41d6000158022e,2023-06-16_09h55.25.062,phx_ver10,2022.2.5,Win32,61.39489194,,,,,space,0.6009,0,41,41,42,1,43,training,zh2x,i,zh2x_i,zh2x_6_ixi.wav,,ixi.jpg,,,,,,,,,,,,,,,,,,,,,,,,,,,,,,,,,
5d0792622c41d6000158022e,2023-06-16_09h55.25.062,phx_ver10,2022.2.5,Win32,61.39489194,,,,,,,,,,,,,attn_test,,,,zh2x_1_ezhe.wav,zh2x_1_azha.wav,ezhe.jpg,LEFT,,j,6.768,space,8.4177,0,0,0,0,1,,,,,,,,,,,,,,,,,,,,,,
5d0792622c41d6000158022e,2023-06-16_09h55.25.062,phx_ver10,2022.2.5,Win32,61.39489194,,,,,space,0.6179,0,42,42,41,1,42,training,zh2x,i,zh2x_i,zh2x_6_ixi.wav,,ixi.jpg,,,,,,,,,,,,,,,,,,,,,,,,,,,,,,,,,
5d0792622c41d6000158022e,2023-06-16_09h55.25.062,phx_ver10,2022.2.5,Win32,61.39489194,,,,,space,0.018,0,43,43,22,1,23,training,zh2x,e,zh2x_e,zh2x_3_ezhe.wav,,ezhe.jpg,,,,,,,,,,,,,,,,,,,,,,,,,,,,,,,,,
5d0792622c41d6000158022e,2023-06-16_09h55.25.062,phx_ver10,2022.2.5,Win32,61.39489194,,,,,space,1.4402,0,44,44,35,1,36,training,zh2x,i,zh2x_i,zh2x_2_izhi.wav,,izhi.jpg,,,,,,,,,,,,,,,,,,,,,,,,,,,,,,,,,
5d0792622c41d6000158022e,2023-06-16_09h55.25.062,phx_ver10,2022.2.5,Win32,61.39489194,,,,,space,0.5047,0,45,45,38,1,39,training,zh2x,i,zh2x_i,zh2x_3_izhi.wav,,izhi.jpg,,,,,,,,,,,,,,,,,,,,,,,,,,,,,,,,,
5d0792622c41d6000158022e,2023-06-16_09h55.25.062,phx_ver10,2022.2.5,Win32,61.39489194,,,,,space,0.8016,0,46,46,7,1,8,training,zh2x,a,zh2x_a,zh2x_4_azha.wav,,azha.jpg,,,,,,,,,,,,,,,,,,,,,,,,,,,,,,,,,
5d0792622c41d6000158022e,2023-06-16_09h55.25.062,phx_ver10,2022.2.5,Win32,61.39489194,,,,,space,0.5576,0,47,47,47,1,48,training,zh2x,i,zh2x_i,zh2x_8_ixi.wav,,ixi.jpg,,,,,,,,,,,,,,,,,,,,,,,,,,,,,,,,,
5d0792622c41d6000158022e,2023-06-16_09h55.25.062,phx_ver10,2022.2.5,Win32,61.39489194,,,,,,,,,,,,,attn_test,,,,zh2x_1_izhi.wav,zh2x_1_ezhe.wav,izhi.jpg,LEFT,,f,2.039,space,2.8884,,,,,,,,,,,,,,,,,,,,,,,,,,,
5d0792622c41d6000158022e,2023-06-16_09h55.25.062,phx_ver10,2022.2.5,Win32,61.39489194,,,,,,,,,,,,,,,,,,,,,,,,,,,,,,,space,1.3824,,,,,,,,,,,,,,,,,,,,
5d0792622c41d6000158022e,2023-06-16_09h55.25.062,phx_ver10,2022.2.5,Win32,61.39489194,,,,,,,,,,,,,,,,,,,,,,,,,,,,,,,,,space,5.7629,,,,,,,,,,,,,,,,,,
5d0792622c41d6000158022e,2023-06-16_09h55.25.062,phx_ver10,2022.2.5,Win32,61.39489194,,,,,,,,,,,,5,testing_pre,,,,ihi.wav,ifi.wav,,FALSE,,,,,,,,,,,,,,,j,1.7995,space,6.6471,0,0,0,4,1,,,,,,,,,
5d0792622c41d6000158022e,2023-06-16_09h55.25.062,phx_ver10,2022.2.5,Win32,61.39489194,,,,,,,,,,,,2,testing_pre,,,,auhau.wav,aufau.wav,,FALSE,,,,,,,,,,,,,,,j,0.9426,space,2.0258,0,1,1,1,1,,,,,,,,,
5d0792622c41d6000158022e,2023-06-16_09h55.25.062,phx_ver10,2022.2.5,Win32,61.39489194,,,,,,,,,,,,3,testing_pre,,,,afa.wav,aha.wav,,FALSE,,,,,,,,,,,,,,,j,1.4258,space,3.1502,0,2,2,2,1,,,,,,,,,
5d0792622c41d6000158022e,2023-06-16_09h55.25.062,phx_ver10,2022.2.5,Win32,61.39489194,,,,,,,,,,,,4,testing_pre,,,,eihei.wav,eihei.wav,,TRUE,,,,,,,,,,,,,,,f,0.7721,space,1.5443,0,3,3,3,1,,,,,,,,,
5d0792622c41d6000158022e,2023-06-16_09h55.25.062,phx_ver10,2022.2.5,Win32,61.39489194,,,,,,,,,,,,1,testing_pre,,,,ifi.wav,ifi.wav,,TRUE,,,,,,,,,,,,,,,f,0.7742,space,1.367,0,4,4,0,1,,,,,,,,,
5d0792622c41d6000158022e,2023-06-16_09h55.25.062,phx_ver10,2022.2.5,Win32,61.39489194,,,,,,,,,,,,,,,,,,,,,,,,,,,,,,,,,,,,,,,,,,,,space,0.9048,,,,,,,
5d0792622c41d6000158022e,2023-06-16_09h55.25.062,phx_ver10,2022.2.5,Win32,61.39489194,,,,,,,,,,,,57,testing_3,zh2j,au,zh2j_au,zh2j_1_auzhau.wav,zh2j_1_auzhau.wav,,TRUE,FALSE,,,,,,,,,,,,,,f,1.2167,space,2.0006,,,,,,,,0,0,0,56,1,,
5d0792622c41d6000158022e,2023-06-16_09h55.25.062,phx_ver10,2022.2.5,Win32,61.39489194,,,,,,,,,,,,61,testing_3,zh2j,e,zh2j_e,zh2j_1_ezhe.wav,zh2j_1_ezhe.wav,,TRUE,FALSE,,,,,,,,,,,,,,f,0.3773,space,1.0513,,,,,,,,0,1,1,60,1,,
5d0792622c41d6000158022e,2023-06-16_09h55.25.062,phx_ver10,2022.2.5,Win32,61.39489194,,,,,,,,,,,,9,testing_1,zh2x,i,zh2x_i,zh2x_1_izhi.wav,zh2x_1_izhi_copy.wav,,TRUE,TRUE,,,,,,,,,,,,,,f,0.2223,space,0.9601,,,,,,,,0,2,2,8,1,,
5d0792622c41d6000158022e,2023-06-16_09h55.25.062,phx_ver10,2022.2.5,Win32,61.39489194,,,,,,,,,,,,100,testing_3,sh2x,a,sh2x_a,sh2x_8_axa.wav,sh2x_1_asha.wav,,FALSE,FALSE,,,,,,,,,,,,,,f,1.0835,space,1.443,,,,,,,,0,3,3,99,1,,
5d0792622c41d6000158022e,2023-06-16_09h55.25.062,phx_ver10,2022.2.5,Win32,61.39489194,,,,,,,,,,,,131,testing_3,sh2j,au,sh2j_au,sh2j_1_aushau.wav,sh2j_8_aujau.wav,,FALSE,FALSE,,,,,,,,,,,,,,j,0.8603,space,1.5504,,,,,,,,0,4,4,130,1,,
5d0792622c41d6000158022e,2023-06-16_09h55.25.062,phx_ver10,2022.2.5,Win32,61.39489194,,,,,,,,,,,,10,testing_1,zh2x,i,zh2x_i,zh2x_8_ixi.wav,zh2x_8_ixi_copy.wav,,TRUE,TRUE,,,,,,,,,,,,,,f,0.5528,space,1.1427,,,,,,,,0,5,5,9,1,,
5d0792622c41d6000158022e,2023-06-16_09h55.25.062,phx_ver10,2022.2.5,Win32,61.39489194,,,,,,,,,,,,94,testing_3,j2x,i,j2x_i,j2x_8_ixi.wav,j2x_8_ixi.wav,,TRUE,FALSE,,,,,,,,,,,,,,f,1.4579,space,3.3356,,,,,,,,0,6,6,93,1,,
5d0792622c41d6000158022e,2023-06-16_09h55.25.062,phx_ver10,2022.2.5,Win32,61.39489194,,,,,,,,,,,,143,testing_3,sh2j,i,sh2j_i,sh2j_1_ishi.wav,sh2j_8_iji.wav,,FALSE,FALSE,,,,,,,,,,,,,,j,2.217,space,3.7008,,,,,,,,0,7,7,142,1,,
5d0792622c41d6000158022e,2023-06-16_09h55.25.062,phx_ver10,2022.2.5,Win32,61.39489194,,,,,,,,,,,,76,testing_3,j2x,a,j2x_a,j2x_8_axa.wav,j2x_1_aja.wav,,FALSE,FALSE,,,,,,,,,,,,,,j,1.9388,space,7.2093,,,,,,,,0,8,8,75,1,,
5d0792622c41d6000158022e,2023-06-16_09h55.25.062,phx_ver10,2022.2.5,Win32,61.39489194,,,,,,,,,,,,108,testing_3,sh2x,au,sh2x_au,sh2x_8_auxau.wav,sh2x_1_aushau.wav,,FALSE,FALSE,,,,,,,,,,,,,,j,2.7567,space,3.0503,,,,,,,,0,9,9,107,1,,
5d0792622c41d6000158022e,2023-06-16_09h55.25.062,phx_ver10,2022.2.5,Win32,61.39489194,,,,,,,,,,,,86,testing_3,j2x,e,j2x_e,j2x_8_exe.wav,j2x_8_exe.wav,,TRUE,FALSE,,,,,,,,,,,,,,f,0.7174,space,1.3168,,,,,,,,0,10,10,85,1,,
5d0792622c41d6000158022e,2023-06-16_09h55.25.062,phx_ver10,2022.2.5,Win32,61.39489194,,,,,,,,,,,,33,testing_3,zh2sh,au,zh2sh_au,zh2sh_1_auzhau.wav,zh2sh_1_auzhau.wav,,TRUE,FALSE,,,,,,,,,,,,,,f,0.251,space,0.5676,,,,,,,,0,11,11,32,1,,
5d0792622c41d6000158022e,2023-06-16_09h55.25.062,phx_ver10,2022.2.5,Win32,61.39489194,,,,,,,,,,,,34,testing_3,zh2sh,au,zh2sh_au,zh2sh_8_aushau.wav,zh2sh_8_aushau.wav,,TRUE,FALSE,,,,,,,,,,,,,,f,0.4178,space,1.0322,,,,,,,,0,12,12,33,1,,
5d0792622c41d6000158022e,2023-06-16_09h55.25.062,phx_ver10,2022.2.5,Win32,61.39489194,,,,,,,,,,,,119,testing_3,sh2x,i,sh2x_i,sh2x_1_ishi.wav,sh2x_8_ixi.wav,,FALSE,FALSE,,,,,,,,,,,,,,f,1.2005,space,1.7341,,,,,,,,0,13,13,118,1,,
5d0792622c41d6000158022e,2023-06-16_09h55.25.062,phx_ver10,2022.2.5,Win32,61.39489194,,,,,,,,,,,,26,testing_3,zh2sh,a,zh2sh_a,zh2sh_8_asha.wav,zh2sh_8_asha.wav,,TRUE,FALSE,,,,,,,,,,,,,,f,0.2694,space,0.6357,,,,,,,,0,14,14,25,1,,
5d0792622c41d6000158022e,2023-06-16_09h55.25.062,phx_ver10,2022.2.5,Win32,61.39489194,,,,,,,,,,,,120,testing_3,sh2x,i,sh2x_i,sh2x_8_ixi.wav,sh2x_1_ishi.wav,,FALSE,FALSE,,,,,,,,,,,,,,f,0.2177,space,0.4844,,,,,,,,0,15,15,119,1,,
5d0792622c41d6000158022e,2023-06-16_09h55.25.062,phx_ver10,2022.2.5,Win32,61.39489194,,,,,,,,,,,,63,testing_3,zh2j,e,zh2j_e,zh2j_1_ezhe.wav,zh2j_8_eje.wav,,FALSE,FALSE,,,,,,,,,,,,,,f,0.2672,space,0.5355,,,,,,,,0,16,16,62,1,,
5d0792622c41d6000158022e,2023-06-16_09h55.25.062,phx_ver10,2022.2.5,Win32,61.39489194,,,,,,,,,,,,83,testing_3,j2x,au,j2x_au,j2x_1_aujau.wav,j2x_8_auxau.wav,,FALSE,FALSE,,,,,,,,,,,,,,j,0.4552,space,0.734,,,,,,,,0,17,17,82,1,,
5d0792622c41d6000158022e,2023-06-16_09h55.25.062,phx_ver10,2022.2.5,Win32,61.39489194,,,,,,,,,,,,29,testing_3,zh2sh,ai,zh2sh_ai,zh2sh_1_aizhai.wav,zh2sh_1_aizhai.wav,,TRUE,FALSE,,,,,,,,,,,,,,f,0.2978,space,0.5795,,,,,,,,0,18,18,28,1,,
5d0792622c41d6000158022e,2023-06-16_09h55.25.062,phx_ver10,2022.2.5,Win32,61.39489194,,,,,,,,,,,,64,testing_3,zh2j,e,zh2j_e,zh2j_8_eje.wav,zh2j_1_ezhe.wav,,FALSE,FALSE,,,,,,,,,,,,,,f,0.2836,space,0.5502,,,,,,,,0,19,19,63,1,,
5d0792622c41d6000158022e,2023-06-16_09h55.25.062,phx_ver10,2022.2.5,Win32,61.39489194,,,,,,,,,,,,101,testing_3,sh2x,ai,sh2x_ai,sh2x_1_aishai.wav,sh2x_1_aishai.wav,,TRUE,FALSE,,,,,,,,,,,,,,f,0.1838,space,0.4338,,,,,,,,0,20,20,100,1,,
5d0792622c41d6000158022e,2023-06-16_09h55.25.062,phx_ver10,2022.2.5,Win32,61.39489194,,,,,,,,,,,,66,testing_3,zh2j,ei,zh2j_ei,zh2j_8_eijei.wav,zh2j_8_eijei.wav,,TRUE,FALSE,,,,,,,,,,,,,,f,0.4673,space,0.7172,,,,,,,,0,21,21,65,1,,
5d0792622c41d6000158022e,2023-06-16_09h55.25.062,phx_ver10,2022.2.5,Win32,61.39489194,,,,,,,,,,,,123,testing_3,sh2j,a,sh2j_a,sh2j_1_asha.wav,sh2j_8_aja.wav,,FALSE,FALSE,,,,,,,,,,,,,,j,0.3934,space,0.6216,,,,,,,,0,22,22,122,1,,
5d0792622c41d6000158022e,2023-06-16_09h55.25.062,phx_ver10,2022.2.5,Win32,61.39489194,,,,,,,,,,,,71,testing_3,zh2j,i,zh2j_i,zh2j_1_izhi.wav,zh2j_8_iji.wav,,FALSE,FALSE,,,,,,,,,,,,,,f,0.3188,space,0.5655,,,,,,,,0,23,23,70,1,,
5d0792622c41d6000158022e,2023-06-16_09h55.25.062,phx_ver10,2022.2.5,Win32,61.39489194,,,,,,,,,,,,92,testing_3,j2x,ei,j2x_ei,j2x_8_eixei.wav,j2x_1_eijei.wav,,FALSE,FALSE,,,,,,,,,,,,,,j,0.2485,space,0.4877,,,,,,,,0,24,24,91,1,,
5d0792622c41d6000158022e,2023-06-16_09h55.25.062,phx_ver10,2022.2.5,Win32,61.39489194,,,,,,,,,,,,135,testing_3,sh2j,e,sh2j_e,sh2j_1_eshe.wav,sh2j_8_eje.wav,,FALSE,FALSE,,,,,,,,,,,,,,j,0.2169,space,0.4839,,,,,,,,0,25,25,134,1,,
5d0792622c41d6000158022e,2023-06-16_09h55.25.062,phx_ver10,2022.2.5,Win32,61.39489194,,,,,,,,,,,,140,testing_3,sh2j,ei,sh2j_ei,sh2j_8_eijei.wav,sh2j_1_eishei.wav,,FALSE,FALSE,,,,,,,,,,,,,,j,0.2602,space,0.4988,,,,,,,,0,26,26,139,1,,
5d0792622c41d6000158022e,2023-06-16_09h55.25.062,phx_ver10,2022.2.5,Win32,61.39489194,,,,,,,,,,,,114,testing_3,sh2x,ei,sh2x_ei,sh2x_8_eixei.wav,sh2x_8_eixei.wav,,TRUE,FALSE,,,,,,,,,,,,,,f,0.7836,space,1.0398,,,,,,,,0,27,27,113,1,,
5d0792622c41d6000158022e,2023-06-16_09h55.25.062,phx_ver10,2022.2.5,Win32,61.39489194,,,,,,,,,,,,84,testing_3,j2x,au,j2x_au,j2x_8_auxau.wav,j2x_1_aujau.wav,,FALSE,FALSE,,,,,,,,,,,,,,j,0.2376,space,0.4829,,,,,,,,0,28,28,83,1,,
5d0792622c41d6000158022e,2023-06-16_09h55.25.062,phx_ver10,2022.2.5,Win32,61.39489194,,,,,,,,,,,,18,testing_2,zh2x,au,zh2x_au,zh2x_8_auxau.wav,zh2x_8_auxau.wav,,TRUE,FALSE,,,,,,,,,,,,,,f,0.2569,space,0.5006,,,,,,,,0,29,29,17,1,,
5d0792622c41d6000158022e,2023-06-16_09h55.25.062,phx_ver10,2022.2.5,Win32,61.39489194,,,,,,,,,,,,42,testing_3,zh2sh,ei,zh2sh_ei,zh2sh_8_eishei.wav,zh2sh_8_eishei.wav,,TRUE,FALSE,,,,,,,,,,,,,,f,0.3834,space,0.618,,,,,,,,0,30,30,41,1,,
5d0792622c41d6000158022e,2023-06-16_09h55.25.062,phx_ver10,2022.2.5,Win32,61.39489194,,,,,,,,,,,,90,testing_3,j2x,ei,j2x_ei,j2x_8_eixei.wav,j2x_8_eixei.wav,,TRUE,FALSE,,,,,,,,,,,,,,f,0.1254,space,0.3838,,,,,,,,0,31,31,89,1,,
5d0792622c41d6000158022e,2023-06-16_09h55.25.062,phx_ver10,2022.2.5,Win32,61.39489194,,,,,,,,,,,,109,testing_3,sh2x,e,sh2x_e,sh2x_1_eshe.wav,sh2x_1_eshe.wav,,TRUE,FALSE,,,,,,,,,,,,,,f,0.1671,space,0.434,,,,,,,,0,32,32,108,1,,
5d0792622c41d6000158022e,2023-06-16_09h55.25.062,phx_ver10,2022.2.5,Win32,61.39489194,,,,,,,,,,,,20,testing_2,zh2x,au,zh2x_au,zh2x_8_auxau.wav,zh2x_1_auzhau.wav,,FALSE,FALSE,,,,,,,,,,,,,,j,0.2385,space,0.4837,,,,,,,,0,33,33,19,1,,
5d0792622c41d6000158022e,2023-06-16_09h55.25.062,phx_ver10,2022.2.5,Win32,61.39489194,,,,,,,,,,,,117,testing_3,sh2x,i,sh2x_i,sh2x_1_ishi.wav,sh2x_1_ishi.wav,,TRUE,FALSE,,,,,,,,,,,,,,f,0.1079,space,0.3436,,,,,,,,0,34,34,116,1,,
5d0792622c41d6000158022e,2023-06-16_09h55.25.062,phx_ver10,2022.2.5,Win32,61.39489194,,,,,,,,,,,,144,testing_3,sh2j,i,sh2j_i,sh2j_8_iji.wav,sh2j_1_ishi.wav,,FALSE,FALSE,,,,,,,,,,,,,,j,0.6257,space,0.8985,,,,,,,,0,35,35,143,1,,
5d0792622c41d6000158022e,2023-06-16_09h55.25.062,phx_ver10,2022.2.5,Win32,61.39489194,,,,,,,,,,,,96,testing_3,j2x,i,j2x_i,j2x_8_ixi.wav,j2x_1_iji.wav,,FALSE,FALSE,,,,,,,,,,,,,,j,0.3244,space,0.5564,,,,,,,,0,36,36,95,1,,
5d0792622c41d6000158022e,2023-06-16_09h55.25.062,phx_ver10,2022.2.5,Win32,61.39489194,,,,,,,,,,,,95,testing_3,j2x,i,j2x_i,j2x_1_iji.wav,j2x_8_ixi.wav,,FALSE,FALSE,,,,,,,,,,,,,,j,1.6896,space,1.9839,,,,,,,,0,37,37,94,1,,
5d0792622c41d6000158022e,2023-06-16_09h55.25.062,phx_ver10,2022.2.5,Win32,61.39489194,,,,,,,,,,,,68,testing_3,zh2j,ei,zh2j_ei,zh2j_8_eijei.wav,zh2j_1_eizhei.wav,,FALSE,FALSE,,,,,,,,,,,,,,f,0.3513,space,0.5893,,,,,,,,0,38,38,67,1,,
5d0792622c41d6000158022e,2023-06-16_09h55.25.062,phx_ver10,2022.2.5,Win32,61.39489194,,,,,,,,,,,,122,testing_3,sh2j,a,sh2j_a,sh2j_8_aja.wav,sh2j_8_aja.wav,,TRUE,FALSE,,,,,,,,,,,,,,f,0.1941,space,0.4406,,,,,,,,0,39,39,121,1,,
5d0792622c41d6000158022e,2023-06-16_09h55.25.062,phx_ver10,2022.2.5,Win32,61.39489194,,,,,,,,,,,,113,testing_3,sh2x,ei,sh2x_ei,sh2x_1_eishei.wav,sh2x_1_eishei.wav,,TRUE,FALSE,,,,,,,,,,,,,,f,0.7859,space,1.1116,,,,,,,,0,40,40,112,1,,
5d0792622c41d6000158022e,2023-06-16_09h55.25.062,phx_ver10,2022.2.5,Win32,61.39489194,,,,,,,,,,,,121,testing_3,sh2j,a,sh2j_a,sh2j_1_asha.wav,sh2j_1_asha.wav,,TRUE,FALSE,,,,,,,,,,,,,,f,0.2559,space,0.5164,,,,,,,,0,41,41,120,1,,
5d0792622c41d6000158022e,2023-06-16_09h55.25.062,phx_ver10,2022.2.5,Win32,61.39489194,,,,,,,,,,,,106,testing_3,sh2x,au,sh2x_au,sh2x_8_auxau.wav,sh2x_8_auxau.wav,,TRUE,FALSE,,,,,,,,,,,,,,f,0.0878,space,0.3504,,,,,,,,0,42,42,105,1,,
5d0792622c41d6000158022e,2023-06-16_09h55.25.062,phx_ver10,2022.2.5,Win32,61.39489194,,,,,,,,,,,,45,testing_3,zh2sh,i,zh2sh_i,zh2sh_1_izhi.wav,zh2sh_1_izhi.wav,,TRUE,FALSE,,,,,,,,,,,,,,f,0.2182,space,0.4677,,,,,,,,0,43,43,44,1,,
5d0792622c41d6000158022e,2023-06-16_09h55.25.062,phx_ver10,2022.2.5,Win32,61.39489194,,,,,,,,,,,,38,testing_3,zh2sh,e,zh2sh_e,zh2sh_8_eshe.wav,zh2sh_8_eshe.wav,,TRUE,FALSE,,,,,,,,,,,,,,f,0.0507,space,0.2843,,,,,,,,0,44,44,37,1,,
5d0792622c41d6000158022e,2023-06-16_09h55.25.062,phx_ver10,2022.2.5,Win32,61.39489194,,,,,,,,,,,,139,testing_3,sh2j,ei,sh2j_ei,sh2j_1_eishei.wav,sh2j_8_eijei.wav,,FALSE,FALSE,,,,,,,,,,,,,,j,0.2721,space,0.5007,,,,,,,,0,45,45,138,1,,
5d0792622c41d6000158022e,2023-06-16_09h55.25.062,phx_ver10,2022.2.5,Win32,61.39489194,,,,,,,,,,,,105,testing_3,sh2x,au,sh2x_au,sh2x_1_aushau.wav,sh2x_1_aushau.wav,,TRUE,FALSE,,,,,,,,,,,,,,f,0.2055,space,0.4671,,,,,,,,0,46,46,104,1,,
5d0792622c41d6000158022e,2023-06-16_09h55.25.062,phx_ver10,2022.2.5,Win32,61.39489194,,,,,,,,,,,,16,testing_2,zh2x,ai,zh2x_ai,zh2x_8_aixai.wav,zh2x_1_aizhai.wav,,FALSE,FALSE,,,,,,,,,,,,,,j,0.1797,space,0.3858,,,,,,,,0,47,47,15,1,,
5d0792622c41d6000158022e,2023-06-16_09h55.25.062,phx_ver10,2022.2.5,Win32,61.39489194,,,,,,,,,,,,142,testing_3,sh2j,i,sh2j_i,sh2j_8_iji.wav,sh2j_8_iji.wav,,TRUE,FALSE,,,,,,,,,,,,,,f,0.1076,space,0.3513,,,,,,,,0,48,48,141,1,,
5d0792622c41d6000158022e,2023-06-16_09h55.25.062,phx_ver10,2022.2.5,Win32,61.39489194,,,,,,,,,,,,31,testing_3,zh2sh,ai,zh2sh_ai,zh2sh_1_aizhai.wav,zh2sh_8_aishai.wav,,FALSE,FALSE,,,,,,,,,,,,,,j,0.2205,space,0.4338,,,,,,,,0,49,49,30,1,,
5d0792622c41d6000158022e,2023-06-16_09h55.25.062,phx_ver10,2022.2.5,Win32,61.39489194,,,,,,,,,,,,72,testing_3,zh2j,i,zh2j_i,zh2j_8_iji.wav,zh2j_1_izhi.wav,,FALSE,FALSE,,,,,,,,,,,,,,f,0.6675,space,1.2341,,,,,,,,0,50,50,71,1,,
5d0792622c41d6000158022e,2023-06-16_09h55.25.062,phx_ver10,2022.2.5,Win32,61.39489194,,,,,,,,,,,,77,testing_3,j2x,ai,j2x_ai,j2x_1_aijai.wav,j2x_1_aijai.wav,,TRUE,FALSE,,,,,,,,,,,,,,f,0.2344,space,0.4841,,,,,,,,0,51,51,76,1,,
5d0792622c41d6000158022e,2023-06-16_09h55.25.062,phx_ver10,2022.2.5,Win32,61.39489194,,,,,,,,,,,,62,testing_3,zh2j,e,zh2j_e,zh2j_8_eje.wav,zh2j_8_eje.wav,,TRUE,FALSE,,,,,,,,,,,,,,f,0.1623,space,0.3979,,,,,,,,0,52,52,61,1,,
5d0792622c41d6000158022e,2023-06-16_09h55.25.062,phx_ver10,2022.2.5,Win32,61.39489194,,,,,,,,,,,,107,testing_3,sh2x,au,sh2x_au,sh2x_1_aushau.wav,sh2x_8_auxau.wav,,FALSE,FALSE,,,,,,,,,,,,,,j,0.3652,space,0.6844,,,,,,,,0,53,53,106,1,,
5d0792622c41d6000158022e,2023-06-16_09h55.25.062,phx_ver10,2022.2.5,Win32,61.39489194,,,,,,,,,,,,65,testing_3,zh2j,ei,zh2j_ei,zh2j_1_eizhei.wav,zh2j_1_eizhei.wav,,TRUE,FALSE,,,,,,,,,,,,,,f,0.3841,space,0.6342,,,,,,,,0,54,54,64,1,,
5d0792622c41d6000158022e,2023-06-16_09h55.25.062,phx_ver10,2022.2.5,Win32,61.39489194,,,,,,,,,,,,25,testing_3,zh2sh,a,zh2sh_a,zh2sh_1_azha.wav,zh2sh_1_azha.wav,,TRUE,FALSE,,,,,,,,,,,,,,f,0.517,space,0.7509,,,,,,,,0,55,55,24,1,,
5d0792622c41d6000158022e,2023-06-16_09h55.25.062,phx_ver10,2022.2.5,Win32,61.39489194,,,,,,,,,,,,89,testing_3,j2x,ei,j2x_ei,j2x_1_eijei.wav,j2x_1_eijei.wav,,TRUE,FALSE,,,,,,,,,,,,,,f,0.5646,space,0.8168,,,,,,,,0,56,56,88,1,,
5d0792622c41d6000158022e,2023-06-16_09h55.25.062,phx_ver10,2022.2.5,Win32,61.39489194,,,,,,,,,,,,79,testing_3,j2x,ai,j2x_ai,j2x_1_aijai.wav,j2x_8_aixai.wav,,FALSE,FALSE,,,,,,,,,,,,,,j,0.3189,space,0.5669,,,,,,,,0,57,57,78,1,,
5d0792622c41d6000158022e,2023-06-16_09h55.25.062,phx_ver10,2022.2.5,Win32,61.39489194,,,,,,,,,,,,112,testing_3,sh2x,e,sh2x_e,sh2x_8_exe.wav,sh2x_1_eshe.wav,,FALSE,FALSE,,,,,,,,,,,,,,j,0.2551,space,0.4722,,,,,,,,0,58,58,111,1,,
5d0792622c41d6000158022e,2023-06-16_09h55.25.062,phx_ver10,2022.2.5,Win32,61.39489194,,,,,,,,,,,,74,testing_3,j2x,a,j2x_a,j2x_8_axa.wav,j2x_8_axa.wav,,TRUE,FALSE,,,,,,,,,,,,,,f,0.1337,space,0.3582,,,,,,,,0,59,59,73,1,,
5d0792622c41d6000158022e,2023-06-16_09h55.25.062,phx_ver10,2022.2.5,Win32,61.39489194,,,,,,,,,,,,138,testing_3,sh2j,ei,sh2j_ei,sh2j_8_eijei.wav,sh2j_8_eijei.wav,,TRUE,FALSE,,,,,,,,,,,,,,f,0.3003,space,0.5336,,,,,,,,0,60,60,137,1,,
5d0792622c41d6000158022e,2023-06-16_09h55.25.062,phx_ver10,2022.2.5,Win32,61.39489194,,,,,,,,,,,,116,testing_3,sh2x,ei,sh2x_ei,sh2x_8_eixei.wav,sh2x_1_eishei.wav,,FALSE,FALSE,,,,,,,,,,,,,,f,0.3456,space,0.8457,,,,,,,,0,61,61,115,1,,
5d0792622c41d6000158022e,2023-06-16_09h55.25.062,phx_ver10,2022.2.5,Win32,61.39489194,,,,,,,,,,,,129,testing_3,sh2j,au,sh2j_au,sh2j_1_aushau.wav,sh2j_1_aushau.wav,,TRUE,FALSE,,,,,,,,,,,,,,f,0.2674,space,0.4887,,,,,,,,0,62,62,128,1,,
5d0792622c41d6000158022e,2023-06-16_09h55.25.062,phx_ver10,2022.2.5,Win32,61.39489194,,,,,,,,,,,,44,testing_3,zh2sh,ei,zh2sh_ei,zh2sh_8_eishei.wav,zh2sh_1_eizhei.wav,,FALSE,FALSE,,,,,,,,,,,,,,j,0.2844,space,0.5342,,,,,,,,0,63,63,43,1,,
5d0792622c41d6000158022e,2023-06-16_09h55.25.062,phx_ver10,2022.2.5,Win32,61.39489194,,,,,,,,,,,,46,testing_3,zh2sh,i,zh2sh_i,zh2sh_8_ishi.wav,zh2sh_8_ishi.wav,,TRUE,FALSE,,,,,,,,,,,,,,f,0.4674,space,0.6844,,,,,,,,0,64,64,45,1,,
5d0792622c41d6000158022e,2023-06-16_09h55.25.062,phx_ver10,2022.2.5,Win32,61.39489194,,,,,,,,,,,,69,testing_3,zh2j,i,zh2j_i,zh2j_1_izhi.wav,zh2j_1_izhi.wav,,TRUE,FALSE,,,,,,,,,,,,,,f,0.351,space,0.5838,,,,,,,,0,65,65,68,1,,
5d0792622c41d6000158022e,2023-06-16_09h55.25.062,phx_ver10,2022.2.5,Win32,61.39489194,,,,,,,,,,,,85,testing_3,j2x,e,j2x_e,j2x_1_eje.wav,j2x_1_eje.wav,,TRUE,FALSE,,,,,,,,,,,,,,f,0.1959,space,0.4289,,,,,,,,0,66,66,84,1,,
5d0792622c41d6000158022e,2023-06-16_09h55.25.062,phx_ver10,2022.2.5,Win32,61.39489194,,,,,,,,,,,,110,testing_3,sh2x,e,sh2x_e,sh2x_8_exe.wav,sh2x_8_exe.wav,,TRUE,FALSE,,,,,,,,,,,,,,f,0.1575,space,0.384,,,,,,,,0,67,67,109,1,,
5d0792622c41d6000158022e,2023-06-16_09h55.25.062,phx_ver10,2022.2.5,Win32,61.39489194,,,,,,,,,,,,47,testing_3,zh2sh,i,zh2sh_i,zh2sh_1_izhi.wav,zh2sh_8_ishi.wav,,FALSE,FALSE,,,,,,,,,,,,,,j,1.0839,space,2.2853,,,,,,,,0,68,68,46,1,,
5d0792622c41d6000158022e,2023-06-16_09h55.25.062,phx_ver10,2022.2.5,Win32,61.39489194,,,,,,,,,,,,125,testing_3,sh2j,ai,sh2j_ai,sh2j_1_aishai.wav,sh2j_1_aishai.wav,,TRUE,FALSE,,,,,,,,,,,,,,f,0.1051,space,0.3504,,,,,,,,0,69,69,124,1,,
5d0792622c41d6000158022e,2023-06-16_09h55.25.062,phx_ver10,2022.2.5,Win32,61.39489194,,,,,,,,,,,,88,testing_3,j2x,e,j2x_e,j2x_8_exe.wav,j2x_1_eje.wav,,FALSE,FALSE,,,,,,,,,,,,,,j,0.3506,space,0.5837,,,,,,,,0,70,70,87,1,,
5d0792622c41d6000158022e,2023-06-16_09h55.25.062,phx_ver10,2022.2.5,Win32,61.39489194,,,,,,,,,,,,24,testing_2,zh2x,ei,zh2x_ei,zh2x_8_eixei.wav,zh2x_1_eizhei.wav,,FALSE,FALSE,,,,,,,,,,,,,,j,0.2327,space,0.467,,,,,,,,0,71,71,23,1,,
5d0792622c41d6000158022e,2023-06-16_09h55.25.062,phx_ver10,2022.2.5,Win32,61.39489194,,,,,,,,,,,,132,testing_3,sh2j,au,sh2j_au,sh2j_8_aujau.wav,sh2j_1_aushau.wav,,FALSE,FALSE,,,,,,,,,,,,,,j,0.1887,space,0.4241,,,,,,,,0,72,72,131,1,,
5d0792622c41d6000158022e,2023-06-16_09h55.25.062,phx_ver10,2022.2.5,Win32,61.39489194,,,,,,,,,,,,5,testing_1,zh2x,e,zh2x_e,zh2x_1_ezhe.wav,zh2x_1_ezhe_copy.wav,,TRUE,TRUE,,,,,,,,,,,,,,f,0.2835,space,1.0343,,,,,,,,0,73,73,4,1,,
5d0792622c41d6000158022e,2023-06-16_09h55.25.062,phx_ver10,2022.2.5,Win32,61.39489194,,,,,,,,,,,,14,testing_2,zh2x,ai,zh2x_ai,zh2x_8_aixai.wav,zh2x_8_aixai.wav,,TRUE,FALSE,,,,,,,,,,,,,,f,0.106,space,0.3344,,,,,,,,0,74,74,13,1,,
5d0792622c41d6000158022e,2023-06-16_09h55.25.062,phx_ver10,2022.2.5,Win32,61.39489194,,,,,,,,,,,,128,testing_3,sh2j,ai,sh2j_ai,sh2j_8_aijai.wav,sh2j_1_aishai.wav,,FALSE,FALSE,,,,,,,,,,,,,,j,0.3176,space,0.5496,,,,,,,,0,75,75,127,1,,
5d0792622c41d6000158022e,2023-06-16_09h55.25.062,phx_ver10,2022.2.5,Win32,61.39489194,,,,,,,,,,,,104,testing_3,sh2x,ai,sh2x_ai,sh2x_8_aixai.wav,sh2x_1_aishai.wav,,FALSE,FALSE,,,,,,,,,,,,,,f,0.386,space,0.6251,,,,,,,,0,76,76,103,1,,
5d0792622c41d6000158022e,2023-06-16_09h55.25.062,phx_ver10,2022.2.5,Win32,61.39489194,,,,,,,,,,,,17,testing_2,zh2x,au,zh2x_au,zh2x_1_auzhau.wav,zh2x_1_auzhau.wav,,TRUE,FALSE,,,,,,,,,,,,,,f,0.1563,space,0.3892,,,,,,,,0,77,77,16,1,,
5d0792622c41d6000158022e,2023-06-16_09h55.25.062,phx_ver10,2022.2.5,Win32,61.39489194,,,,,,,,,,,,58,testing_3,zh2j,au,zh2j_au,zh2j_8_aujau.wav,zh2j_8_aujau.wav,,TRUE,FALSE,,,,,,,,,,,,,,f,0.0337,space,0.2505,,,,,,,,0,78,78,57,1,,
5d0792622c41d6000158022e,2023-06-16_09h55.25.062,phx_ver10,2022.2.5,Win32,61.39489194,,,,,,,,,,,,137,testing_3,sh2j,ei,sh2j_ei,sh2j_1_eishei.wav,sh2j_1_eishei.wav,,TRUE,FALSE,,,,,,,,,,,,,,f,0.4004,space,0.7004,,,,,,,,0,79,79,136,1,,
5d0792622c41d6000158022e,2023-06-16_09h55.25.062,phx_ver10,2022.2.5,Win32,61.39489194,,,,,,,,,,,,136,testing_3,sh2j,e,sh2j_e,sh2j_8_eje.wav,sh2j_1_eshe.wav,,FALSE,FALSE,,,,,,,,,,,,,,j,0.3346,space,0.589,,,,,,,,0,80,80,135,1,,
5d0792622c41d6000158022e,2023-06-16_09h55.25.062,phx_ver10,2022.2.5,Win32,61.39489194,,,,,,,,,,,,3,testing_1,zh2x,a,zh2x_a,zh2x_1_azha.wav,zh2x_8_axa.wav,,FALSE,TRUE,,,,,,,,,,,,,,j,0.3909,space,0.6441,,,,,,,,0,81,81,2,1,,
5d0792622c41d6000158022e,2023-06-16_09h55.25.062,phx_ver10,2022.2.5,Win32,61.39489194,,,,,,,,,,,,133,testing_3,sh2j,e,sh2j_e,sh2j_1_eshe.wav,sh2j_1_eshe.wav,,TRUE,FALSE,,,,,,,,,,,,,,f,0.0843,space,0.3171,,,,,,,,0,82,82,132,1,,
5d0792622c41d6000158022e,2023-06-16_09h55.25.062,phx_ver10,2022.2.5,Win32,61.39489194,,,,,,,,,,,,30,testing_3,zh2sh,ai,zh2sh_ai,zh2sh_8_aishai.wav,zh2sh_8_aishai.wav,,TRUE,FALSE,,,,,,,,,,,,,,f,0.1169,space,0.3353,,,,,,,,0,83,83,29,1,,
5d0792622c41d6000158022e,2023-06-16_09h55.25.062,phx_ver10,2022.2.5,Win32,61.39489194,,,,,,,,,,,,141,testing_3,sh2j,i,sh2j_i,sh2j_1_ishi.wav,sh2j_1_ishi.wav,,TRUE,FALSE,,,,,,,,,,,,,,f,1.026,space,1.401,,,,,,,,0,84,84,140,1,,
5d0792622c41d6000158022e,2023-06-16_09h55.25.062,phx_ver10,2022.2.5,Win32,61.39489194,,,,,,,,,,,,126,testing_3,sh2j,ai,sh2j_ai,sh2j_8_aijai.wav,sh2j_8_aijai.wav,,TRUE,FALSE,,,,,,,,,,,,,,f,0.1894,space,0.4095,,,,,,,,0,85,85,125,1,,
5d0792622c41d6000158022e,2023-06-16_09h55.25.062,phx_ver10,2022.2.5,Win32,61.39489194,,,,,,,,,,,,54,testing_3,zh2j,ai,zh2j_ai,zh2j_8_aijai.wav,zh2j_8_aijai.wav,,TRUE,FALSE,,,,,,,,,,,,,,f,0.9227,space,1.2511,,,,,,,,0,86,86,53,1,,
5d0792622c41d6000158022e,2023-06-16_09h55.25.062,phx_ver10,2022.2.5,Win32,61.39489194,,,,,,,,,,,,39,testing_3,zh2sh,e,zh2sh_e,zh2sh_1_ezhe.wav,zh2sh_8_eshe.wav,,FALSE,FALSE,,,,,,,,,,,,,,j,0.8398,space,2.4339,,,,,,,,0,87,87,38,1,,
5d0792622c41d6000158022e,2023-06-16_09h55.25.062,phx_ver10,2022.2.5,Win32,61.39489194,,,,,,,,,,,,102,testing_3,sh2x,ai,sh2x_ai,sh2x_8_aixai.wav,sh2x_8_aixai.wav,,TRUE,FALSE,,,,,,,,,,,,,,f,0.0366,space,0.3205,,,,,,,,0,88,88,101,1,,
5d0792622c41d6000158022e,2023-06-16_09h55.25.062,phx_ver10,2022.2.5,Win32,61.39489194,,,,,,,,,,,,49,testing_3,zh2j,a,zh2j_a,zh2j_1_azha.wav,zh2j_1_azha.wav,,TRUE,FALSE,,,,,,,,,,,,,,f,0.7499,space,1.1006,,,,,,,,0,89,89,48,1,,
5d0792622c41d6000158022e,2023-06-16_09h55.25.062,phx_ver10,2022.2.5,Win32,61.39489194,,,,,,,,,,,,36,testing_3,zh2sh,au,zh2sh_au,zh2sh_8_aushau.wav,zh2sh_1_auzhau.wav,,FALSE,FALSE,,,,,,,,,,,,,,j,1.0006,space,1.3003,,,,,,,,0,90,90,35,1,,
5d0792622c41d6000158022e,2023-06-16_09h55.25.062,phx_ver10,2022.2.5,Win32,61.39489194,,,,,,,,,,,,8,testing_1,zh2x,e,zh2x_e,zh2x_8_exe.wav,zh2x_1_ezhe.wav,,FALSE,TRUE,,,,,,,,,,,,,,j,0.4195,space,0.7316,,,,,,,,0,91,91,7,1,,
5d0792622c41d6000158022e,2023-06-16_09h55.25.062,phx_ver10,2022.2.5,Win32,61.39489194,,,,,,,,,,,,118,testing_3,sh2x,i,sh2x_i,sh2x_8_ixi.wav,sh2x_8_ixi.wav,,TRUE,FALSE,,,,,,,,,,,,,,f,0.5508,space,0.8514,,,,,,,,0,92,92,117,1,,
5d0792622c41d6000158022e,2023-06-16_09h55.25.062,phx_ver10,2022.2.5,Win32,61.39489194,,,,,,,,,,,,13,testing_2,zh2x,ai,zh2x_ai,zh2x_1_aizhai.wav,zh2x_1_aizhai.wav,,TRUE,FALSE,,,,,,,,,,,,,,f,0.1717,space,0.4337,,,,,,,,0,93,93,12,1,,
5d0792622c41d6000158022e,2023-06-16_09h55.25.062,phx_ver10,2022.2.5,Win32,61.39489194,,,,,,,,,,,,130,testing_3,sh2j,au,sh2j_au,sh2j_8_aujau.wav,sh2j_8_aujau.wav,,TRUE,FALSE,,,,,,,,,,,,,,f,0.2342,space,0.5176,,,,,,,,0,94,94,129,1,,
5d0792622c41d6000158022e,2023-06-16_09h55.25.062,phx_ver10,2022.2.5,Win32,61.39489194,,,,,,,,,,,,2,testing_1,zh2x,a,zh2x_a,zh2x_8_axa.wav,zh2x_8_axa_copy.wav,,TRUE,TRUE,,,,,,,,,,,,,,f,0.417,space,0.6842,,,,,,,,0,95,95,1,1,,
5d0792622c41d6000158022e,2023-06-16_09h55.25.062,phx_ver10,2022.2.5,Win32,61.39489194,,,,,,,,,,,,41,testing_3,zh2sh,ei,zh2sh_ei,zh2sh_1_eizhei.wav,zh2sh_1_eizhei.wav,,TRUE,FALSE,,,,,,,,,,,,,,f,0.266,space,0.533,,,,,,,,0,96,96,40,1,,
5d0792622c41d6000158022e,2023-06-16_09h55.25.062,phx_ver10,2022.2.5,Win32,61.39489194,,,,,,,,,,,,98,testing_3,sh2x,a,sh2x_a,sh2x_8_axa.wav,sh2x_8_axa.wav,,TRUE,FALSE,,,,,,,,,,,,,,f,0.103,space,0.3656,,,,,,,,0,97,97,97,1,,
5d0792622c41d6000158022e,2023-06-16_09h55.25.062,phx_ver10,2022.2.5,Win32,61.39489194,,,,,,,,,,,,70,testing_3,zh2j,i,zh2j_i,zh2j_8_iji.wav,zh2j_8_iji.wav,,TRUE,FALSE,,,,,,,,,,,,,,f,0.1335,space,0.4011,,,,,,,,0,98,98,69,1,,
5d0792622c41d6000158022e,2023-06-16_09h55.25.062,phx_ver10,2022.2.5,Win32,61.39489194,,,,,,,,,,,,19,testing_2,zh2x,au,zh2x_au,zh2x_1_auzhau.wav,zh2x_8_auxau.wav,,FALSE,FALSE,,,,,,,,,,,,,,j,0.3505,space,0.6841,,,,,,,,0,99,99,18,1,,
5d0792622c41d6000158022e,2023-06-16_09h55.25.062,phx_ver10,2022.2.5,Win32,61.39489194,,,,,,,,,,,,52,testing_3,zh2j,a,zh2j_a,zh2j_8_aja.wav,zh2j_1_azha.wav,,FALSE,FALSE,,,,,,,,,,,,,,f,0.1374,space,0.4342,,,,,,,,0,100,100,51,1,,
5d0792622c41d6000158022e,2023-06-16_09h55.25.062,phx_ver10,2022.2.5,Win32,61.39489194,,,,,,,,,,,,21,testing_2,zh2x,ei,zh2x_ei,zh2x_1_eizhei.wav,zh2x_1_eizhei.wav,,TRUE,FALSE,,,,,,,,,,,,,,f,0.0342,space,0.2842,,,,,,,,0,101,101,20,1,,
5d0792622c41d6000158022e,2023-06-16_09h55.25.062,phx_ver10,2022.2.5,Win32,61.39489194,,,,,,,,,,,,22,testing_2,zh2x,ei,zh2x_ei,zh2x_8_eixei.wav,zh2x_8_eixei.wav,,TRUE,FALSE,,,,,,,,,,,,,,f,0.3355,space,0.6022,,,,,,,,0,102,102,21,1,,
5d0792622c41d6000158022e,2023-06-16_09h55.25.062,phx_ver10,2022.2.5,Win32,61.39489194,,,,,,,,,,,,1,testing_1,zh2x,a,zh2x_a,zh2x_1_azha.wav,zh2x_1_azha_copy.wav,,TRUE,TRUE,,,,,,,,,,,,,,f,0.0505,space,0.3003,,,,,,,,0,103,103,0,1,,
5d0792622c41d6000158022e,2023-06-16_09h55.25.062,phx_ver10,2022.2.5,Win32,61.39489194,,,,,,,,,,,,82,testing_3,j2x,au,j2x_au,j2x_8_auxau.wav,j2x_8_auxau.wav,,TRUE,FALSE,,,,,,,,,,,,,,f,0.1366,space,0.3881,,,,,,,,0,104,104,81,1,,
5d0792622c41d6000158022e,2023-06-16_09h55.25.062,phx_ver10,2022.2.5,Win32,61.39489194,,,,,,,,,,,,81,testing_3,j2x,au,j2x_au,j2x_1_aujau.wav,j2x_1_aujau.wav,,TRUE,FALSE,,,,,,,,,,,,,,f,0.6599,space,0.9507,,,,,,,,0,105,105,80,1,,
5d0792622c41d6000158022e,2023-06-16_09h55.25.062,phx_ver10,2022.2.5,Win32,61.39489194,,,,,,,,,,,,28,testing_3,zh2sh,a,zh2sh_a,zh2sh_8_asha.wav,zh2sh_1_azha.wav,,FALSE,FALSE,,,,,,,,,,,,,,j,0.4674,space,0.7508,,,,,,,,0,106,106,27,1,,
5d0792622c41d6000158022e,2023-06-16_09h55.25.062,phx_ver10,2022.2.5,Win32,61.39489194,,,,,,,,,,,,80,testing_3,j2x,ai,j2x_ai,j2x_8_aixai.wav,j2x_1_aijai.wav,,FALSE,FALSE,,,,,,,,,,,,,,j,0.3295,space,0.6545,,,,,,,,0,107,107,79,1,,
5d0792622c41d6000158022e,2023-06-16_09h55.25.062,phx_ver10,2022.2.5,Win32,61.39489194,,,,,,,,,,,,32,testing_3,zh2sh,ai,zh2sh_ai,zh2sh_8_aishai.wav,zh2sh_1_aizhai.wav,,FALSE,FALSE,,,,,,,,,,,,,,j,0.0836,space,0.3834,,,,,,,,0,108,108,31,1,,
5d0792622c41d6000158022e,2023-06-16_09h55.25.062,phx_ver10,2022.2.5,Win32,61.39489194,,,,,,,,,,,,53,testing_3,zh2j,ai,zh2j_ai,zh2j_1_aizhai.wav,zh2j_1_aizhai.wav,,TRUE,FALSE,,,,,,,,,,,,,,f,1.018,space,4.1926,,,,,,,,0,109,109,52,1,,
5d0792622c41d6000158022e,2023-06-16_09h55.25.062,phx_ver10,2022.2.5,Win32,61.39489194,,,,,,,,,,,,67,testing_3,zh2j,ei,zh2j_ei,zh2j_1_eizhei.wav,zh2j_8_eijei.wav,,FALSE,FALSE,,,,,,,,,,,,,,f,0.8339,space,1.1171,,,,,,,,0,110,110,66,1,,
5d0792622c41d6000158022e,2023-06-16_09h55.25.062,phx_ver10,2022.2.5,Win32,61.39489194,,,,,,,,,,,,73,testing_3,j2x,a,j2x_a,j2x_1_aja.wav,j2x_1_aja.wav,,TRUE,FALSE,,,,,,,,,,,,,,f,0.1166,space,0.4174,,,,,,,,0,111,111,72,1,,
5d0792622c41d6000158022e,2023-06-16_09h55.25.062,phx_ver10,2022.2.5,Win32,61.39489194,,,,,,,,,,,,127,testing_3,sh2j,ai,sh2j_ai,sh2j_1_aishai.wav,sh2j_8_aijai.wav,,FALSE,FALSE,,,,,,,,,,,,,,j,0.4842,space,0.7593,,,,,,,,0,112,112,126,1,,
5d0792622c41d6000158022e,2023-06-16_09h55.25.062,phx_ver10,2022.2.5,Win32,61.39489194,,,,,,,,,,,,37,testing_3,zh2sh,e,zh2sh_e,zh2sh_1_ezhe.wav,zh2sh_1_ezhe.wav,,TRUE,FALSE,,,,,,,,,,,,,,f,0.2676,space,0.5321,,,,,,,,0,113,113,36,1,,
5d0792622c41d6000158022e,2023-06-16_09h55.25.062,phx_ver10,2022.2.5,Win32,61.39489194,,,,,,,,,,,,59,testing_3,zh2j,au,zh2j_au,zh2j_1_auzhau.wav,zh2j_8_aujau.wav,,FALSE,FALSE,,,,,,,,,,,,,,f,0.4835,space,0.7592,,,,,,,,0,114,114,58,1,,
5d0792622c41d6000158022e,2023-06-16_09h55.25.062,phx_ver10,2022.2.5,Win32,61.39489194,,,,,,,,,,,,43,testing_3,zh2sh,ei,zh2sh_ei,zh2sh_1_eizhei.wav,zh2sh_8_eishei.wav,,FALSE,FALSE,,,,,,,,,,,,,,j,1.8003,space,2.0343,,,,,,,,0,115,115,42,1,,
5d0792622c41d6000158022e,2023-06-16_09h55.25.062,phx_ver10,2022.2.5,Win32,61.39489194,,,,,,,,,,,,134,testing_3,sh2j,e,sh2j_e,sh2j_8_eje.wav,sh2j_8_eje.wav,,TRUE,FALSE,,,,,,,,,,,,,,f,1.9481,space,3.3168,,,,,,,,0,116,116,133,1,,
5d0792622c41d6000158022e,2023-06-16_09h55.25.062,phx_ver10,2022.2.5,Win32,61.39489194,,,,,,,,,,,,60,testing_3,zh2j,au,zh2j_au,zh2j_8_aujau.wav,zh2j_1_auzhau.wav,,FALSE,FALSE,,,,,,,,,,,,,,f,1.0842,space,9.2008,,,,,,,,0,117,117,59,1,,
5d0792622c41d6000158022e,2023-06-16_09h55.25.062,phx_ver10,2022.2.5,Win32,61.39489194,,,,,,,,,,,,15,testing_2,zh2x,ai,zh2x_ai,zh2x_1_aizhai.wav,zh2x_8_aixai.wav,,FALSE,FALSE,,,,,,,,,,,,,,j,2.6054,space,2.9839,,,,,,,,0,118,118,14,1,,
5d0792622c41d6000158022e,2023-06-16_09h55.25.062,phx_ver10,2022.2.5,Win32,61.39489194,,,,,,,,,,,,56,testing_3,zh2j,ai,zh2j_ai,zh2j_8_aijai.wav,zh2j_1_aizhai.wav,,FALSE,FALSE,,,,,,,,,,,,,,f,0.334,space,0.9839,,,,,,,,0,119,119,55,1,,
5d0792622c41d6000158022e,2023-06-16_09h55.25.062,phx_ver10,2022.2.5,Win32,61.39489194,,,,,,,,,,,,12,testing_1,zh2x,i,zh2x_i,zh2x_8_ixi.wav,zh2x_1_izhi.wav,,FALSE,TRUE,,,,,,,,,,,,,,j,0.5007,space,0.8505,,,,,,,,0,120,120,11,1,,
5d0792622c41d6000158022e,2023-06-16_09h55.25.062,phx_ver10,2022.2.5,Win32,61.39489194,,,,,,,,,,,,103,testing_3,sh2x,ai,sh2x_ai,sh2x_1_aishai.wav,sh2x_8_aixai.wav,,FALSE,FALSE,,,,,,,,,,,,,,f,0.7504,space,1.3558,,,,,,,,0,121,121,102,1,,
5d0792622c41d6000158022e,2023-06-16_09h55.25.062,phx_ver10,2022.2.5,Win32,61.39489194,,,,,,,,,,,,99,testing_3,sh2x,a,sh2x_a,sh2x_1_asha.wav,sh2x_8_axa.wav,,FALSE,FALSE,,,,,,,,,,,,,,j,0.3503,space,0.6501,,,,,,,,0,122,122,98,1,,
5d0792622c41d6000158022e,2023-06-16_09h55.25.062,phx_ver10,2022.2.5,Win32,61.39489194,,,,,,,,,,,,97,testing_3,sh2x,a,sh2x_a,sh2x_1_asha.wav,sh2x_1_asha.wav,,TRUE,FALSE,,,,,,,,,,,,,,f,0.3055,space,0.6171,,,,,,,,0,123,123,96,1,,
5d0792622c41d6000158022e,2023-06-16_09h55.25.062,phx_ver10,2022.2.5,Win32,61.39489194,,,,,,,,,,,,23,testing_2,zh2x,ei,zh2x_ei,zh2x_1_eizhei.wav,zh2x_8_eixei.wav,,FALSE,FALSE,,,,,,,,,,,,,,j,0.5437,space,0.8551,,,,,,,,0,124,124,22,1,,
5d0792622c41d6000158022e,2023-06-16_09h55.25.062,phx_ver10,2022.2.5,Win32,61.39489194,,,,,,,,,,,,87,testing_3,j2x,e,j2x_e,j2x_1_eje.wav,j2x_8_exe.wav,,FALSE,FALSE,,,,,,,,,,,,,,j,0.3342,space,0.6673,,,,,,,,0,125,125,86,1,,
5d0792622c41d6000158022e,2023-06-16_09h55.25.062,phx_ver10,2022.2.5,Win32,61.39489194,,,,,,,,,,,,75,testing_3,j2x,a,j2x_a,j2x_1_aja.wav,j2x_8_axa.wav,,FALSE,FALSE,,,,,,,,,,,,,,j,0.3353,space,0.6677,,,,,,,,0,126,126,74,1,,
5d0792622c41d6000158022e,2023-06-16_09h55.25.062,phx_ver10,2022.2.5,Win32,61.39489194,,,,,,,,,,,,51,testing_3,zh2j,a,zh2j_a,zh2j_1_azha.wav,zh2j_8_aja.wav,,FALSE,FALSE,,,,,,,,,,,,,,f,0.5176,space,0.8223,,,,,,,,0,127,127,50,1,,
5d0792622c41d6000158022e,2023-06-16_09h55.25.062,phx_ver10,2022.2.5,Win32,61.39489194,,,,,,,,,,,,6,testing_1,zh2x,e,zh2x_e,zh2x_8_exe.wav,zh2x_8_exe_copy.wav,,TRUE,TRUE,,,,,,,,,,,,,,f,0.1621,space,0.4296,,,,,,,,0,128,128,5,1,,
5d0792622c41d6000158022e,2023-06-16_09h55.25.062,phx_ver10,2022.2.5,Win32,61.39489194,,,,,,,,,,,,4,testing_1,zh2x,a,zh2x_a,zh2x_8_axa.wav,zh2x_1_azha.wav,,FALSE,TRUE,,,,,,,,,,,,,,j,0.7175,space,1.1675,,,,,,,,0,129,129,3,1,,
5d0792622c41d6000158022e,2023-06-16_09h55.25.062,phx_ver10,2022.2.5,Win32,61.39489194,,,,,,,,,,,,111,testing_3,sh2x,e,sh2x_e,sh2x_1_eshe.wav,sh2x_8_exe.wav,,FALSE,FALSE,,,,,,,,,,,,,,j,0.1342,space,0.4421,,,,,,,,0,130,130,110,1,,
5d0792622c41d6000158022e,2023-06-16_09h55.25.062,phx_ver10,2022.2.5,Win32,61.39489194,,,,,,,,,,,,91,testing_3,j2x,ei,j2x_ei,j2x_1_eijei.wav,j2x_8_eixei.wav,,FALSE,FALSE,,,,,,,,,,,,,,j,0.1358,space,0.4283,,,,,,,,0,131,131,90,1,,
5d0792622c41d6000158022e,2023-06-16_09h55.25.062,phx_ver10,2022.2.5,Win32,61.39489194,,,,,,,,,,,,115,testing_3,sh2x,ei,sh2x_ei,sh2x_1_eishei.wav,sh2x_8_eixei.wav,,FALSE,FALSE,,,,,,,,,,,,,,j,0.3169,space,0.6005,,,,,,,,0,132,132,114,1,,
5d0792622c41d6000158022e,2023-06-16_09h55.25.062,phx_ver10,2022.2.5,Win32,61.39489194,,,,,,,,,,,,11,testing_1,zh2x,i,zh2x_i,zh2x_1_izhi.wav,zh2x_8_ixi.wav,,FALSE,TRUE,,,,,,,,,,,,,,j,0.5483,space,0.8504,,,,,,,,0,133,133,10,1,,
5d0792622c41d6000158022e,2023-06-16_09h55.25.062,phx_ver10,2022.2.5,Win32,61.39489194,,,,,,,,,,,,35,testing_3,zh2sh,au,zh2sh_au,zh2sh_1_auzhau.wav,zh2sh_8_aushau.wav,,FALSE,FALSE,,,,,,,,,,,,,,j,0.2282,space,0.5114,,,,,,,,0,134,134,34,1,,
5d0792622c41d6000158022e,2023-06-16_09h55.25.062,phx_ver10,2022.2.5,Win32,61.39489194,,,,,,,,,,,,7,testing_1,zh2x,e,zh2x_e,zh2x_1_ezhe.wav,zh2x_8_exe.wav,,FALSE,TRUE,,,,,,,,,,,,,,j,0.1437,space,0.4646,,,,,,,,0,135,135,6,1,,
5d0792622c41d6000158022e,2023-06-16_09h55.25.062,phx_ver10,2022.2.5,Win32,61.39489194,,,,,,,,,,,,40,testing_3,zh2sh,e,zh2sh_e,zh2sh_8_eshe.wav,zh2sh_1_ezhe.wav,,FALSE,FALSE,,,,,,,,,,,,,,j,1.4726,space,1.8171,,,,,,,,0,136,136,39,1,,
5d0792622c41d6000158022e,2023-06-16_09h55.25.062,phx_ver10,2022.2.5,Win32,61.39489194,,,,,,,,,,,,93,testing_3,j2x,i,j2x_i,j2x_1_iji.wav,j2x_1_iji.wav,,TRUE,FALSE,,,,,,,,,,,,,,f,0.2216,space,0.5333,,,,,,,,0,137,137,92,1,,
5d0792622c41d6000158022e,2023-06-16_09h55.25.062,phx_ver10,2022.2.5,Win32,61.39489194,,,,,,,,,,,,124,testing_3,sh2j,a,sh2j_a,sh2j_8_aja.wav,sh2j_1_asha.wav,,FALSE,FALSE,,,,,,,,,,,,,,j,0.5001,space,0.8135,,,,,,,,0,138,138,123,1,,
5d0792622c41d6000158022e,2023-06-16_09h55.25.062,phx_ver10,2022.2.5,Win32,61.39489194,,,,,,,,,,,,78,testing_3,j2x,ai,j2x_ai,j2x_8_aixai.wav,j2x_8_aixai.wav,,TRUE,FALSE,,,,,,,,,,,,,,f,0.3628,space,0.5296,,,,,,,,0,139,139,77,1,,
5d0792622c41d6000158022e,2023-06-16_09h55.25.062,phx_ver10,2022.2.5,Win32,61.39489194,,,,,,,,,,,,27,testing_3,zh2sh,a,zh2sh_a,zh2sh_1_azha.wav,zh2sh_8_asha.wav,,FALSE,FALSE,,,,,,,,,,,,,,j,0.0007,space,0.2223,,,,,,,,0,140,140,26,1,,
5d0792622c41d6000158022e,2023-06-16_09h55.25.062,phx_ver10,2022.2.5,Win32,61.39489194,,,,,,,,,,,,50,testing_3,zh2j,a,zh2j_a,zh2j_8_aja.wav,zh2j_8_aja.wav,,TRUE,FALSE,,,,,,,,,,,,,,f,0.2173,space,0.5212,,,,,,,,0,141,141,49,1,,
5d0792622c41d6000158022e,2023-06-16_09h55.25.062,phx_ver10,2022.2.5,Win32,61.39489194,,,,,,,,,,,,48,testing_3,zh2sh,i,zh2sh_i,zh2sh_8_ishi.wav,zh2sh_1_izhi.wav,,FALSE,FALSE,,,,,,,,,,,,,,j,0.0987,space,0.4174,,,,,,,,0,142,142,47,1,,
5d0792622c41d6000158022e,2023-06-16_09h55.25.062,phx_ver10,2022.2.5,Win32,61.39489194,,,,,,,,,,,,55,testing_3,zh2j,ai,zh2j_ai,zh2j_1_aizhai.wav,zh2j_8_aijai.wav,,FALSE,FALSE,,,,,,,,,,,,,,f,0.1163,space,0.3834,,,,,,,,0,143,143,54,1,,
5d0792622c41d6000158022e,2023-06-16_09h55.25.062,phx_ver10,2022.2.5,Win32,61.39489194,,,,,,,,,,,,,,,,,,,,,,,,,,,,,,,,,,,,,,,,,,,,,,,,,,,space,2.3729
