participant,date,expName,psychopyVersion,OS,frameRate,space_1.keys,space_1.rt,space_2.keys,space_2.rt,space_train.keys,space_train.rt,training.thisRepN,training.thisTrialN,training.thisN,training.thisIndex,training.ran,token_id,task,continuum,vowel,series,sound_1,sound_2,img,same,trained,FJ_attn.keys,FJ_attn.rt,space_attn.keys,space_attn.rt,if_attn_test.thisRepN,if_attn_test.thisTrialN,if_attn_test.thisN,if_attn_test.thisIndex,if_attn_test.ran,space_trans_1.keys,space_trans_1.rt,space_trans_11.keys,space_trans_11.rt,FJ_test.keys,FJ_test.rt,space_test.keys,space_test.rt,testing_pre.thisRepN,testing_pre.thisTrialN,testing_pre.thisN,testing_pre.thisIndex,testing_pre.ran,space_trans_2.keys,space_trans_2.rt,testing_all.thisRepN,testing_all.thisTrialN,testing_all.thisN,testing_all.thisIndex,testing_all.ran,space_ending.keys,space_ending.rt
5d410f4d037fb000173a2832,2023-06-16_21h18.52.832,phx_ver10,2022.2.5,MacIntel,60.0024001,,,,,,,,,,,,,,,,,,,,,,,,,,,,,,,,,,,,,,,,,,,,,,,,,,,,
5d410f4d037fb000173a2832,2023-06-16_21h18.52.832,phx_ver10,2022.2.5,MacIntel,60.0024001,space,1.7507,,,,,,,,,,,,,,,,,,,,,,,,,,,,,,,,,,,,,,,,,,,,,,,,,,
5d410f4d037fb000173a2832,2023-06-16_21h18.52.832,phx_ver10,2022.2.5,MacIntel,60.0024001,,,space,1.7337,,,,,,,,,,,,,,,,,,,,,,,,,,,,,,,,,,,,,,,,,,,,,,,,
5d410f4d037fb000173a2832,2023-06-16_21h18.52.832,phx_ver10,2022.2.5,MacIntel,60.0024001,,,,,space,3.6428,0,0,0,39,1,40,training,zh2x,i,zh2x_i,zh2x_4_izhi.wav,,izhi.jpg,,,,,,,,,,,,,,,,,,,,,,,,,,,,,,,,,
5d410f4d037fb000173a2832,2023-06-16_21h18.52.832,phx_ver10,2022.2.5,MacIntel,60.0024001,,,,,space,0.7989,0,1,1,12,1,13,training,zh2x,a,zh2x_a,zh2x_7_axa.wav,,axa.jpg,,,,,,,,,,,,,,,,,,,,,,,,,,,,,,,,,
5d410f4d037fb000173a2832,2023-06-16_21h18.52.832,phx_ver10,2022.2.5,MacIntel,60.0024001,,,,,space,0.2875,0,2,2,36,1,37,training,zh2x,i,zh2x_i,zh2x_2_izhi.wav,,izhi.jpg,,,,,,,,,,,,,,,,,,,,,,,,,,,,,,,,,
5d410f4d037fb000173a2832,2023-06-16_21h18.52.832,phx_ver10,2022.2.5,MacIntel,60.0024001,,,,,space,0.7098,0,3,3,34,1,35,training,zh2x,i,zh2x_i,zh2x_2_izhi.wav,,izhi.jpg,,,,,,,,,,,,,,,,,,,,,,,,,,,,,,,,,
5d410f4d037fb000173a2832,2023-06-16_21h18.52.832,phx_ver10,2022.2.5,MacIntel,60.0024001,,,,,space,0.1692,0,4,4,41,1,42,training,zh2x,i,zh2x_i,zh2x_6_ixi.wav,,ixi.jpg,,,,,,,,,,,,,,,,,,,,,,,,,,,,,,,,,
5d410f4d037fb000173a2832,2023-06-16_21h18.52.832,phx_ver10,2022.2.5,MacIntel,60.0024001,,,,,space,0.6464,0,5,5,40,1,41,training,zh2x,i,zh2x_i,zh2x_5_ixi.wav,,ixi.jpg,,,,,,,,,,,,,,,,,,,,,,,,,,,,,,,,,
5d410f4d037fb000173a2832,2023-06-16_21h18.52.832,phx_ver10,2022.2.5,MacIntel,60.0024001,,,,,,,,,,,,,attn_test,,,,zh2x_8_ixi.wav,zh2x_8_axa.wav,ixi.jpg,LEFT,,f,1.4912,space,4.2207,0,0,0,0,1,,,,,,,,,,,,,,,,,,,,,,
5d410f4d037fb000173a2832,2023-06-16_21h18.52.832,phx_ver10,2022.2.5,MacIntel,60.0024001,,,,,space,0.6214,0,6,6,16,1,17,training,zh2x,e,zh2x_e,zh2x_1_ezhe.wav,,ezhe.jpg,,,,,,,,,,,,,,,,,,,,,,,,,,,,,,,,,
5d410f4d037fb000173a2832,2023-06-16_21h18.52.832,phx_ver10,2022.2.5,MacIntel,60.0024001,,,,,space,0.0403,0,7,7,5,1,6,training,zh2x,a,zh2x_a,zh2x_3_azha.wav,,azha.jpg,,,,,,,,,,,,,,,,,,,,,,,,,,,,,,,,,
5d410f4d037fb000173a2832,2023-06-16_21h18.52.832,phx_ver10,2022.2.5,MacIntel,60.0024001,,,,,space,1.0017,0,8,8,29,1,30,training,zh2x,e,zh2x_e,zh2x_7_exe.wav,,exe.jpg,,,,,,,,,,,,,,,,,,,,,,,,,,,,,,,,,
5d410f4d037fb000173a2832,2023-06-16_21h18.52.832,phx_ver10,2022.2.5,MacIntel,60.0024001,,,,,space,0.4061,0,9,9,24,1,25,training,zh2x,e,zh2x_e,zh2x_5_exe.wav,,exe.jpg,,,,,,,,,,,,,,,,,,,,,,,,,,,,,,,,,
5d410f4d037fb000173a2832,2023-06-16_21h18.52.832,phx_ver10,2022.2.5,MacIntel,60.0024001,,,,,space,0.5355,0,10,10,6,1,7,training,zh2x,a,zh2x_a,zh2x_3_azha.wav,,azha.jpg,,,,,,,,,,,,,,,,,,,,,,,,,,,,,,,,,
5d410f4d037fb000173a2832,2023-06-16_21h18.52.832,phx_ver10,2022.2.5,MacIntel,60.0024001,,,,,space,0.4157,0,11,11,0,1,1,training,zh2x,a,zh2x_a,zh2x_1_azha.wav,,azha.jpg,,,,,,,,,,,,,,,,,,,,,,,,,,,,,,,,,
5d410f4d037fb000173a2832,2023-06-16_21h18.52.832,phx_ver10,2022.2.5,MacIntel,60.0024001,,,,,,,,,,,,,attn_test,,,,zh2x_8_axa.wav,zh2x_8_exe.wav,exe.jpg,RIGHT,,j,0.9311,space,2.0158,0,0,0,0,1,,,,,,,,,,,,,,,,,,,,,,
5d410f4d037fb000173a2832,2023-06-16_21h18.52.832,phx_ver10,2022.2.5,MacIntel,60.0024001,,,,,space,0.6538,0,12,12,13,1,14,training,zh2x,a,zh2x_a,zh2x_7_axa.wav,,axa.jpg,,,,,,,,,,,,,,,,,,,,,,,,,,,,,,,,,
5d410f4d037fb000173a2832,2023-06-16_21h18.52.832,phx_ver10,2022.2.5,MacIntel,60.0024001,,,,,space,0.6252,0,13,13,20,1,21,training,zh2x,e,zh2x_e,zh2x_2_ezhe.wav,,ezhe.jpg,,,,,,,,,,,,,,,,,,,,,,,,,,,,,,,,,
5d410f4d037fb000173a2832,2023-06-16_21h18.52.832,phx_ver10,2022.2.5,MacIntel,60.0024001,,,,,space,0.4523,0,14,14,2,1,3,training,zh2x,a,zh2x_a,zh2x_2_azha.wav,,azha.jpg,,,,,,,,,,,,,,,,,,,,,,,,,,,,,,,,,
5d410f4d037fb000173a2832,2023-06-16_21h18.52.832,phx_ver10,2022.2.5,MacIntel,60.0024001,,,,,space,0.3901,0,15,15,8,1,9,training,zh2x,a,zh2x_a,zh2x_5_axa.wav,,axa.jpg,,,,,,,,,,,,,,,,,,,,,,,,,,,,,,,,,
5d410f4d037fb000173a2832,2023-06-16_21h18.52.832,phx_ver10,2022.2.5,MacIntel,60.0024001,,,,,space,0.0374,0,16,16,38,1,39,training,zh2x,i,zh2x_i,zh2x_3_izhi.wav,,izhi.jpg,,,,,,,,,,,,,,,,,,,,,,,,,,,,,,,,,
5d410f4d037fb000173a2832,2023-06-16_21h18.52.832,phx_ver10,2022.2.5,MacIntel,60.0024001,,,,,space,0.3333,0,17,17,45,1,46,training,zh2x,i,zh2x_i,zh2x_7_ixi.wav,,ixi.jpg,,,,,,,,,,,,,,,,,,,,,,,,,,,,,,,,,
5d410f4d037fb000173a2832,2023-06-16_21h18.52.832,phx_ver10,2022.2.5,MacIntel,60.0024001,,,,,,,,,,,,,attn_test,,,,zh2x_1_azha.wav,zh2x_8_exe.wav,azha.jpg,LEFT,,f,1.4901,space,2.8551,0,0,0,0,1,,,,,,,,,,,,,,,,,,,,,,
5d410f4d037fb000173a2832,2023-06-16_21h18.52.832,phx_ver10,2022.2.5,MacIntel,60.0024001,,,,,space,1.291,0,18,18,7,1,8,training,zh2x,a,zh2x_a,zh2x_4_azha.wav,,azha.jpg,,,,,,,,,,,,,,,,,,,,,,,,,,,,,,,,,
5d410f4d037fb000173a2832,2023-06-16_21h18.52.832,phx_ver10,2022.2.5,MacIntel,60.0024001,,,,,space,0.1854,0,19,19,18,1,19,training,zh2x,e,zh2x_e,zh2x_2_ezhe.wav,,ezhe.jpg,,,,,,,,,,,,,,,,,,,,,,,,,,,,,,,,,
5d410f4d037fb000173a2832,2023-06-16_21h18.52.832,phx_ver10,2022.2.5,MacIntel,60.0024001,,,,,space,0.3534,0,20,20,33,1,34,training,zh2x,i,zh2x_i,zh2x_2_izhi.wav,,izhi.jpg,,,,,,,,,,,,,,,,,,,,,,,,,,,,,,,,,
5d410f4d037fb000173a2832,2023-06-16_21h18.52.832,phx_ver10,2022.2.5,MacIntel,60.0024001,,,,,space,0.0254,0,21,21,44,1,45,training,zh2x,i,zh2x_i,zh2x_7_ixi.wav,,ixi.jpg,,,,,,,,,,,,,,,,,,,,,,,,,,,,,,,,,
5d410f4d037fb000173a2832,2023-06-16_21h18.52.832,phx_ver10,2022.2.5,MacIntel,60.0024001,,,,,space,0.3181,0,22,22,14,1,15,training,zh2x,a,zh2x_a,zh2x_7_axa.wav,,axa.jpg,,,,,,,,,,,,,,,,,,,,,,,,,,,,,,,,,
5d410f4d037fb000173a2832,2023-06-16_21h18.52.832,phx_ver10,2022.2.5,MacIntel,60.0024001,,,,,space,0.1692,0,23,23,11,1,12,training,zh2x,a,zh2x_a,zh2x_7_axa.wav,,axa.jpg,,,,,,,,,,,,,,,,,,,,,,,,,,,,,,,,,
5d410f4d037fb000173a2832,2023-06-16_21h18.52.832,phx_ver10,2022.2.5,MacIntel,60.0024001,,,,,,,,,,,,,attn_test,,,,zh2x_1_izhi.wav,zh2x_1_ezhe.wav,ezhe.jpg,RIGHT,,j,0.8862,space,2.0061,0,0,0,0,1,,,,,,,,,,,,,,,,,,,,,,
5d410f4d037fb000173a2832,2023-06-16_21h18.52.832,phx_ver10,2022.2.5,MacIntel,60.0024001,,,,,space,0.4172,0,24,24,25,1,26,training,zh2x,e,zh2x_e,zh2x_6_exe.wav,,exe.jpg,,,,,,,,,,,,,,,,,,,,,,,,,,,,,,,,,
5d410f4d037fb000173a2832,2023-06-16_21h18.52.832,phx_ver10,2022.2.5,MacIntel,60.0024001,,,,,space,0.3485,0,25,25,10,1,11,training,zh2x,a,zh2x_a,zh2x_6_axa.wav,,axa.jpg,,,,,,,,,,,,,,,,,,,,,,,,,,,,,,,,,
5d410f4d037fb000173a2832,2023-06-16_21h18.52.832,phx_ver10,2022.2.5,MacIntel,60.0024001,,,,,space,0.4199,0,26,26,30,1,31,training,zh2x,e,zh2x_e,zh2x_7_exe.wav,,exe.jpg,,,,,,,,,,,,,,,,,,,,,,,,,,,,,,,,,
5d410f4d037fb000173a2832,2023-06-16_21h18.52.832,phx_ver10,2022.2.5,MacIntel,60.0024001,,,,,space,0.1013,0,27,27,42,1,43,training,zh2x,i,zh2x_i,zh2x_6_ixi.wav,,ixi.jpg,,,,,,,,,,,,,,,,,,,,,,,,,,,,,,,,,
5d410f4d037fb000173a2832,2023-06-16_21h18.52.832,phx_ver10,2022.2.5,MacIntel,60.0024001,,,,,space,0.1,0,28,28,37,1,38,training,zh2x,i,zh2x_i,zh2x_3_izhi.wav,,izhi.jpg,,,,,,,,,,,,,,,,,,,,,,,,,,,,,,,,,
5d410f4d037fb000173a2832,2023-06-16_21h18.52.832,phx_ver10,2022.2.5,MacIntel,60.0024001,,,,,space,0.3916,0,29,29,19,1,20,training,zh2x,e,zh2x_e,zh2x_2_ezhe.wav,,ezhe.jpg,,,,,,,,,,,,,,,,,,,,,,,,,,,,,,,,,
5d410f4d037fb000173a2832,2023-06-16_21h18.52.832,phx_ver10,2022.2.5,MacIntel,60.0024001,,,,,,,,,,,,,attn_test,,,,zh2x_1_ezhe.wav,zh2x_1_izhi.wav,izhi.jpg,RIGHT,,j,0.254,space,0.9354,0,0,0,0,1,,,,,,,,,,,,,,,,,,,,,,
5d410f4d037fb000173a2832,2023-06-16_21h18.52.832,phx_ver10,2022.2.5,MacIntel,60.0024001,,,,,space,0.4526,0,30,30,31,1,32,training,zh2x,e,zh2x_e,zh2x_8_exe.wav,,exe.jpg,,,,,,,,,,,,,,,,,,,,,,,,,,,,,,,,,
5d410f4d037fb000173a2832,2023-06-16_21h18.52.832,phx_ver10,2022.2.5,MacIntel,60.0024001,,,,,space,0.3683,0,31,31,17,1,18,training,zh2x,e,zh2x_e,zh2x_2_ezhe.wav,,ezhe.jpg,,,,,,,,,,,,,,,,,,,,,,,,,,,,,,,,,
5d410f4d037fb000173a2832,2023-06-16_21h18.52.832,phx_ver10,2022.2.5,MacIntel,60.0024001,,,,,space,0.3068,0,32,32,27,1,28,training,zh2x,e,zh2x_e,zh2x_7_exe.wav,,exe.jpg,,,,,,,,,,,,,,,,,,,,,,,,,,,,,,,,,
5d410f4d037fb000173a2832,2023-06-16_21h18.52.832,phx_ver10,2022.2.5,MacIntel,60.0024001,,,,,space,1.0187,0,33,33,4,1,5,training,zh2x,a,zh2x_a,zh2x_2_azha.wav,,azha.jpg,,,,,,,,,,,,,,,,,,,,,,,,,,,,,,,,,
5d410f4d037fb000173a2832,2023-06-16_21h18.52.832,phx_ver10,2022.2.5,MacIntel,60.0024001,,,,,space,0.128,0,34,34,23,1,24,training,zh2x,e,zh2x_e,zh2x_4_ezhe.wav,,ezhe.jpg,,,,,,,,,,,,,,,,,,,,,,,,,,,,,,,,,
5d410f4d037fb000173a2832,2023-06-16_21h18.52.832,phx_ver10,2022.2.5,MacIntel,60.0024001,,,,,space,0.4013,0,35,35,9,1,10,training,zh2x,a,zh2x_a,zh2x_6_axa.wav,,axa.jpg,,,,,,,,,,,,,,,,,,,,,,,,,,,,,,,,,
5d410f4d037fb000173a2832,2023-06-16_21h18.52.832,phx_ver10,2022.2.5,MacIntel,60.0024001,,,,,,,,,,,,,attn_test,,,,zh2x_1_ezhe.wav,zh2x_1_izhi.wav,ezhe.jpg,LEFT,,f,1.0516,space,1.4532,0,0,0,0,1,,,,,,,,,,,,,,,,,,,,,,
5d410f4d037fb000173a2832,2023-06-16_21h18.52.832,phx_ver10,2022.2.5,MacIntel,60.0024001,,,,,space,0.0008,0,36,36,46,1,47,training,zh2x,i,zh2x_i,zh2x_7_ixi.wav,,ixi.jpg,,,,,,,,,,,,,,,,,,,,,,,,,,,,,,,,,
5d410f4d037fb000173a2832,2023-06-16_21h18.52.832,phx_ver10,2022.2.5,MacIntel,60.0024001,,,,,space,0.0401,0,37,37,15,1,16,training,zh2x,a,zh2x_a,zh2x_8_axa.wav,,axa.jpg,,,,,,,,,,,,,,,,,,,,,,,,,,,,,,,,,
5d410f4d037fb000173a2832,2023-06-16_21h18.52.832,phx_ver10,2022.2.5,MacIntel,60.0024001,,,,,space,0.3893,0,38,38,22,1,23,training,zh2x,e,zh2x_e,zh2x_3_ezhe.wav,,ezhe.jpg,,,,,,,,,,,,,,,,,,,,,,,,,,,,,,,,,
5d410f4d037fb000173a2832,2023-06-16_21h18.52.832,phx_ver10,2022.2.5,MacIntel,60.0024001,,,,,space,0.611,0,39,39,1,1,2,training,zh2x,a,zh2x_a,zh2x_2_azha.wav,,azha.jpg,,,,,,,,,,,,,,,,,,,,,,,,,,,,,,,,,
5d410f4d037fb000173a2832,2023-06-16_21h18.52.832,phx_ver10,2022.2.5,MacIntel,60.0024001,,,,,space,0.2464,0,40,40,43,1,44,training,zh2x,i,zh2x_i,zh2x_7_ixi.wav,,ixi.jpg,,,,,,,,,,,,,,,,,,,,,,,,,,,,,,,,,
5d410f4d037fb000173a2832,2023-06-16_21h18.52.832,phx_ver10,2022.2.5,MacIntel,60.0024001,,,,,space,0.2923,0,41,41,3,1,4,training,zh2x,a,zh2x_a,zh2x_2_azha.wav,,azha.jpg,,,,,,,,,,,,,,,,,,,,,,,,,,,,,,,,,
5d410f4d037fb000173a2832,2023-06-16_21h18.52.832,phx_ver10,2022.2.5,MacIntel,60.0024001,,,,,,,,,,,,,attn_test,,,,zh2x_1_ezhe.wav,zh2x_8_exe.wav,ezhe.jpg,LEFT,,f,0.0011,space,3.0772,0,0,0,0,1,,,,,,,,,,,,,,,,,,,,,,
5d410f4d037fb000173a2832,2023-06-16_21h18.52.832,phx_ver10,2022.2.5,MacIntel,60.0024001,,,,,space,0.4792,0,42,42,47,1,48,training,zh2x,i,zh2x_i,zh2x_8_ixi.wav,,ixi.jpg,,,,,,,,,,,,,,,,,,,,,,,,,,,,,,,,,
5d410f4d037fb000173a2832,2023-06-16_21h18.52.832,phx_ver10,2022.2.5,MacIntel,60.0024001,,,,,space,0.4174,0,43,43,28,1,29,training,zh2x,e,zh2x_e,zh2x_7_exe.wav,,exe.jpg,,,,,,,,,,,,,,,,,,,,,,,,,,,,,,,,,
5d410f4d037fb000173a2832,2023-06-16_21h18.52.832,phx_ver10,2022.2.5,MacIntel,60.0024001,,,,,space,0.1299,0,44,44,21,1,22,training,zh2x,e,zh2x_e,zh2x_3_ezhe.wav,,ezhe.jpg,,,,,,,,,,,,,,,,,,,,,,,,,,,,,,,,,
5d410f4d037fb000173a2832,2023-06-16_21h18.52.832,phx_ver10,2022.2.5,MacIntel,60.0024001,,,,,space,0.2516,0,45,45,32,1,33,training,zh2x,i,zh2x_i,zh2x_1_izhi.wav,,izhi.jpg,,,,,,,,,,,,,,,,,,,,,,,,,,,,,,,,,
5d410f4d037fb000173a2832,2023-06-16_21h18.52.832,phx_ver10,2022.2.5,MacIntel,60.0024001,,,,,space,0.1299,0,46,46,35,1,36,training,zh2x,i,zh2x_i,zh2x_2_izhi.wav,,izhi.jpg,,,,,,,,,,,,,,,,,,,,,,,,,,,,,,,,,
5d410f4d037fb000173a2832,2023-06-16_21h18.52.832,phx_ver10,2022.2.5,MacIntel,60.0024001,,,,,space,0.1994,0,47,47,26,1,27,training,zh2x,e,zh2x_e,zh2x_6_exe.wav,,exe.jpg,,,,,,,,,,,,,,,,,,,,,,,,,,,,,,,,,
5d410f4d037fb000173a2832,2023-06-16_21h18.52.832,phx_ver10,2022.2.5,MacIntel,60.0024001,,,,,,,,,,,,,attn_test,,,,zh2x_8_axa.wav,zh2x_8_exe.wav,exe.jpg,RIGHT,,j,0.5172,space,0.8708,,,,,,,,,,,,,,,,,,,,,,,,,,,
5d410f4d037fb000173a2832,2023-06-16_21h18.52.832,phx_ver10,2022.2.5,MacIntel,60.0024001,,,,,,,,,,,,,,,,,,,,,,,,,,,,,,,space,0.6648,,,,,,,,,,,,,,,,,,,,
5d410f4d037fb000173a2832,2023-06-16_21h18.52.832,phx_ver10,2022.2.5,MacIntel,60.0024001,,,,,,,,,,,,,,,,,,,,,,,,,,,,,,,,,space,5.3287,,,,,,,,,,,,,,,,,,
5d410f4d037fb000173a2832,2023-06-16_21h18.52.832,phx_ver10,2022.2.5,MacIntel,60.0024001,,,,,,,,,,,,2,testing_pre,,,,auhau.wav,aufau.wav,,FALSE,,,,,,,,,,,,,,,f,4.7779,space,5.4431,0,0,0,1,1,,,,,,,,,
5d410f4d037fb000173a2832,2023-06-16_21h18.52.832,phx_ver10,2022.2.5,MacIntel,60.0024001,,,,,,,,,,,,1,testing_pre,,,,ifi.wav,ifi.wav,,TRUE,,,,,,,,,,,,,,,f,0.6,space,1.0136,0,1,1,0,1,,,,,,,,,
5d410f4d037fb000173a2832,2023-06-16_21h18.52.832,phx_ver10,2022.2.5,MacIntel,60.0024001,,,,,,,,,,,,3,testing_pre,,,,afa.wav,aha.wav,,FALSE,,,,,,,,,,,,,,,j,0.8266,space,1.1889,0,2,2,2,1,,,,,,,,,
5d410f4d037fb000173a2832,2023-06-16_21h18.52.832,phx_ver10,2022.2.5,MacIntel,60.0024001,,,,,,,,,,,,4,testing_pre,,,,eihei.wav,eihei.wav,,TRUE,,,,,,,,,,,,,,,f,0.4168,space,0.9024,0,3,3,3,1,,,,,,,,,
5d410f4d037fb000173a2832,2023-06-16_21h18.52.832,phx_ver10,2022.2.5,MacIntel,60.0024001,,,,,,,,,,,,5,testing_pre,,,,ihi.wav,ifi.wav,,FALSE,,,,,,,,,,,,,,,j,1.1336,space,1.4486,0,4,4,4,1,,,,,,,,,
5d410f4d037fb000173a2832,2023-06-16_21h18.52.832,phx_ver10,2022.2.5,MacIntel,60.0024001,,,,,,,,,,,,,,,,,,,,,,,,,,,,,,,,,,,,,,,,,,,,space,0.6274,,,,,,,
5d410f4d037fb000173a2832,2023-06-16_21h18.52.832,phx_ver10,2022.2.5,MacIntel,60.0024001,,,,,,,,,,,,40,testing_3,zh2sh,e,zh2sh_e,zh2sh_8_eshe.wav,zh2sh_1_ezhe.wav,,FALSE,FALSE,,,,,,,,,,,,,,f,0.8548,space,1.1767,,,,,,,,0,0,0,39,1,,
5d410f4d037fb000173a2832,2023-06-16_21h18.52.832,phx_ver10,2022.2.5,MacIntel,60.0024001,,,,,,,,,,,,53,testing_3,zh2j,ai,zh2j_ai,zh2j_1_aizhai.wav,zh2j_1_aizhai.wav,,TRUE,FALSE,,,,,,,,,,,,,,f,0.4491,space,0.7838,,,,,,,,0,1,1,52,1,,
5d410f4d037fb000173a2832,2023-06-16_21h18.52.832,phx_ver10,2022.2.5,MacIntel,60.0024001,,,,,,,,,,,,79,testing_3,j2x,ai,j2x_ai,j2x_1_aijai.wav,j2x_8_aixai.wav,,FALSE,FALSE,,,,,,,,,,,,,,j,0.7388,space,1.0394,,,,,,,,0,2,2,78,1,,
5d410f4d037fb000173a2832,2023-06-16_21h18.52.832,phx_ver10,2022.2.5,MacIntel,60.0024001,,,,,,,,,,,,11,testing_1,zh2x,i,zh2x_i,zh2x_1_izhi.wav,zh2x_8_ixi.wav,,FALSE,TRUE,,,,,,,,,,,,,,f,0.6174,space,1.0019,,,,,,,,0,3,3,10,1,,
5d410f4d037fb000173a2832,2023-06-16_21h18.52.832,phx_ver10,2022.2.5,MacIntel,60.0024001,,,,,,,,,,,,65,testing_3,zh2j,ei,zh2j_ei,zh2j_1_eizhei.wav,zh2j_1_eizhei.wav,,TRUE,FALSE,,,,,,,,,,,,,,f,0.7498,space,1.0844,,,,,,,,0,4,4,64,1,,
5d410f4d037fb000173a2832,2023-06-16_21h18.52.832,phx_ver10,2022.2.5,MacIntel,60.0024001,,,,,,,,,,,,131,testing_3,sh2j,au,sh2j_au,sh2j_1_aushau.wav,sh2j_8_aujau.wav,,FALSE,FALSE,,,,,,,,,,,,,,j,1.9803,space,2.3949,,,,,,,,0,5,5,130,1,,
5d410f4d037fb000173a2832,2023-06-16_21h18.52.832,phx_ver10,2022.2.5,MacIntel,60.0024001,,,,,,,,,,,,12,testing_1,zh2x,i,zh2x_i,zh2x_8_ixi.wav,zh2x_1_izhi.wav,,FALSE,TRUE,,,,,,,,,,,,,,f,0.3998,space,0.7482,,,,,,,,0,6,6,11,1,,
5d410f4d037fb000173a2832,2023-06-16_21h18.52.832,phx_ver10,2022.2.5,MacIntel,60.0024001,,,,,,,,,,,,8,testing_1,zh2x,e,zh2x_e,zh2x_8_exe.wav,zh2x_1_ezhe.wav,,FALSE,TRUE,,,,,,,,,,,,,,f,0.5448,space,0.8623,,,,,,,,0,7,7,7,1,,
5d410f4d037fb000173a2832,2023-06-16_21h18.52.832,phx_ver10,2022.2.5,MacIntel,60.0024001,,,,,,,,,,,,112,testing_3,sh2x,e,sh2x_e,sh2x_8_exe.wav,sh2x_1_eshe.wav,,FALSE,FALSE,,,,,,,,,,,,,,j,0.4003,space,0.6846,,,,,,,,0,8,8,111,1,,
5d410f4d037fb000173a2832,2023-06-16_21h18.52.832,phx_ver10,2022.2.5,MacIntel,60.0024001,,,,,,,,,,,,33,testing_3,zh2sh,au,zh2sh_au,zh2sh_1_auzhau.wav,zh2sh_1_auzhau.wav,,TRUE,FALSE,,,,,,,,,,,,,,f,0.4742,space,0.8061,,,,,,,,0,9,9,32,1,,
5d410f4d037fb000173a2832,2023-06-16_21h18.52.832,phx_ver10,2022.2.5,MacIntel,60.0024001,,,,,,,,,,,,89,testing_3,j2x,ei,j2x_ei,j2x_1_eijei.wav,j2x_1_eijei.wav,,TRUE,FALSE,,,,,,,,,,,,,,f,0.103,space,0.4521,,,,,,,,0,10,10,88,1,,
5d410f4d037fb000173a2832,2023-06-16_21h18.52.832,phx_ver10,2022.2.5,MacIntel,60.0024001,,,,,,,,,,,,15,testing_2,zh2x,ai,zh2x_ai,zh2x_1_aizhai.wav,zh2x_8_aixai.wav,,FALSE,FALSE,,,,,,,,,,,,,,j,0.5341,space,0.8291,,,,,,,,0,11,11,14,1,,
5d410f4d037fb000173a2832,2023-06-16_21h18.52.832,phx_ver10,2022.2.5,MacIntel,60.0024001,,,,,,,,,,,,91,testing_3,j2x,ei,j2x_ei,j2x_1_eijei.wav,j2x_8_eixei.wav,,FALSE,FALSE,,,,,,,,,,,,,,f,1.0344,space,1.3518,,,,,,,,0,12,12,90,1,,
5d410f4d037fb000173a2832,2023-06-16_21h18.52.832,phx_ver10,2022.2.5,MacIntel,60.0024001,,,,,,,,,,,,101,testing_3,sh2x,ai,sh2x_ai,sh2x_1_aishai.wav,sh2x_1_aishai.wav,,TRUE,FALSE,,,,,,,,,,,,,,f,0.4697,space,0.6991,,,,,,,,0,13,13,100,1,,
5d410f4d037fb000173a2832,2023-06-16_21h18.52.832,phx_ver10,2022.2.5,MacIntel,60.0024001,,,,,,,,,,,,103,testing_3,sh2x,ai,sh2x_ai,sh2x_1_aishai.wav,sh2x_8_aixai.wav,,FALSE,FALSE,,,,,,,,,,,,,,f,0.4284,space,0.8332,,,,,,,,0,14,14,102,1,,
5d410f4d037fb000173a2832,2023-06-16_21h18.52.832,phx_ver10,2022.2.5,MacIntel,60.0024001,,,,,,,,,,,,10,testing_1,zh2x,i,zh2x_i,zh2x_8_ixi.wav,zh2x_8_ixi_copy.wav,,TRUE,TRUE,,,,,,,,,,,,,,f,1.1845,space,1.4289,,,,,,,,0,15,15,9,1,,
5d410f4d037fb000173a2832,2023-06-16_21h18.52.832,phx_ver10,2022.2.5,MacIntel,60.0024001,,,,,,,,,,,,119,testing_3,sh2x,i,sh2x_i,sh2x_1_ishi.wav,sh2x_8_ixi.wav,,FALSE,FALSE,,,,,,,,,,,,,,j,1.0893,space,1.3514,,,,,,,,0,16,16,118,1,,
5d410f4d037fb000173a2832,2023-06-16_21h18.52.832,phx_ver10,2022.2.5,MacIntel,60.0024001,,,,,,,,,,,,124,testing_3,sh2j,a,sh2j_a,sh2j_8_aja.wav,sh2j_1_asha.wav,,FALSE,FALSE,,,,,,,,,,,,,,j,0.0443,space,0.2988,,,,,,,,0,17,17,123,1,,
5d410f4d037fb000173a2832,2023-06-16_21h18.52.832,phx_ver10,2022.2.5,MacIntel,60.0024001,,,,,,,,,,,,125,testing_3,sh2j,ai,sh2j_ai,sh2j_1_aishai.wav,sh2j_1_aishai.wav,,TRUE,FALSE,,,,,,,,,,,,,,f,0.6825,space,0.9357,,,,,,,,0,18,18,124,1,,
5d410f4d037fb000173a2832,2023-06-16_21h18.52.832,phx_ver10,2022.2.5,MacIntel,60.0024001,,,,,,,,,,,,41,testing_3,zh2sh,ei,zh2sh_ei,zh2sh_1_eizhei.wav,zh2sh_1_eizhei.wav,,TRUE,FALSE,,,,,,,,,,,,,,f,0.2721,space,0.5035,,,,,,,,0,19,19,40,1,,
5d410f4d037fb000173a2832,2023-06-16_21h18.52.832,phx_ver10,2022.2.5,MacIntel,60.0024001,,,,,,,,,,,,37,testing_3,zh2sh,e,zh2sh_e,zh2sh_1_ezhe.wav,zh2sh_1_ezhe.wav,,TRUE,FALSE,,,,,,,,,,,,,,f,0.2685,space,0.5701,,,,,,,,0,20,20,36,1,,
5d410f4d037fb000173a2832,2023-06-16_21h18.52.832,phx_ver10,2022.2.5,MacIntel,60.0024001,,,,,,,,,,,,71,testing_3,zh2j,i,zh2j_i,zh2j_1_izhi.wav,zh2j_8_iji.wav,,FALSE,FALSE,,,,,,,,,,,,,,f,0.0365,space,0.3908,,,,,,,,0,21,21,70,1,,
5d410f4d037fb000173a2832,2023-06-16_21h18.52.832,phx_ver10,2022.2.5,MacIntel,60.0024001,,,,,,,,,,,,46,testing_3,zh2sh,i,zh2sh_i,zh2sh_8_ishi.wav,zh2sh_8_ishi.wav,,TRUE,FALSE,,,,,,,,,,,,,,f,0.6343,space,1.0197,,,,,,,,0,22,22,45,1,,
5d410f4d037fb000173a2832,2023-06-16_21h18.52.832,phx_ver10,2022.2.5,MacIntel,60.0024001,,,,,,,,,,,,34,testing_3,zh2sh,au,zh2sh_au,zh2sh_8_aushau.wav,zh2sh_8_aushau.wav,,TRUE,FALSE,,,,,,,,,,,,,,j,1.4011,space,1.6394,,,,,,,,0,23,23,33,1,,
5d410f4d037fb000173a2832,2023-06-16_21h18.52.832,phx_ver10,2022.2.5,MacIntel,60.0024001,,,,,,,,,,,,5,testing_1,zh2x,e,zh2x_e,zh2x_1_ezhe.wav,zh2x_1_ezhe_copy.wav,,TRUE,TRUE,,,,,,,,,,,,,,j,0.3511,space,0.7171,,,,,,,,0,24,24,4,1,,
5d410f4d037fb000173a2832,2023-06-16_21h18.52.832,phx_ver10,2022.2.5,MacIntel,60.0024001,,,,,,,,,,,,129,testing_3,sh2j,au,sh2j_au,sh2j_1_aushau.wav,sh2j_1_aushau.wav,,TRUE,FALSE,,,,,,,,,,,,,,f,0.2535,space,0.5862,,,,,,,,0,25,25,128,1,,
5d410f4d037fb000173a2832,2023-06-16_21h18.52.832,phx_ver10,2022.2.5,MacIntel,60.0024001,,,,,,,,,,,,128,testing_3,sh2j,ai,sh2j_ai,sh2j_8_aijai.wav,sh2j_1_aishai.wav,,FALSE,FALSE,,,,,,,,,,,,,,f,0.0711,space,0.3848,,,,,,,,0,26,26,127,1,,
5d410f4d037fb000173a2832,2023-06-16_21h18.52.832,phx_ver10,2022.2.5,MacIntel,60.0024001,,,,,,,,,,,,48,testing_3,zh2sh,i,zh2sh_i,zh2sh_8_ishi.wav,zh2sh_1_izhi.wav,,FALSE,FALSE,,,,,,,,,,,,,,f,0.0783,space,0.4447,,,,,,,,0,27,27,47,1,,
5d410f4d037fb000173a2832,2023-06-16_21h18.52.832,phx_ver10,2022.2.5,MacIntel,60.0024001,,,,,,,,,,,,82,testing_3,j2x,au,j2x_au,j2x_8_auxau.wav,j2x_8_auxau.wav,,TRUE,FALSE,,,,,,,,,,,,,,j,0.6834,space,1.0924,,,,,,,,0,28,28,81,1,,
5d410f4d037fb000173a2832,2023-06-16_21h18.52.832,phx_ver10,2022.2.5,MacIntel,60.0024001,,,,,,,,,,,,49,testing_3,zh2j,a,zh2j_a,zh2j_1_azha.wav,zh2j_1_azha.wav,,TRUE,FALSE,,,,,,,,,,,,,,j,2.0955,space,2.9976,,,,,,,,0,29,29,48,1,,
5d410f4d037fb000173a2832,2023-06-16_21h18.52.832,phx_ver10,2022.2.5,MacIntel,60.0024001,,,,,,,,,,,,6,testing_1,zh2x,e,zh2x_e,zh2x_8_exe.wav,zh2x_8_exe_copy.wav,,TRUE,TRUE,,,,,,,,,,,,,,j,0.1003,space,0.5342,,,,,,,,0,30,30,5,1,,
5d410f4d037fb000173a2832,2023-06-16_21h18.52.832,phx_ver10,2022.2.5,MacIntel,60.0024001,,,,,,,,,,,,132,testing_3,sh2j,au,sh2j_au,sh2j_8_aujau.wav,sh2j_1_aushau.wav,,FALSE,FALSE,,,,,,,,,,,,,,f,4.0175,space,4.385,,,,,,,,0,31,31,131,1,,
5d410f4d037fb000173a2832,2023-06-16_21h18.52.832,phx_ver10,2022.2.5,MacIntel,60.0024001,,,,,,,,,,,,85,testing_3,j2x,e,j2x_e,j2x_1_eje.wav,j2x_1_eje.wav,,TRUE,FALSE,,,,,,,,,,,,,,j,0.0017,space,5.3613,,,,,,,,0,32,32,84,1,,
5d410f4d037fb000173a2832,2023-06-16_21h18.52.832,phx_ver10,2022.2.5,MacIntel,60.0024001,,,,,,,,,,,,4,testing_1,zh2x,a,zh2x_a,zh2x_8_axa.wav,zh2x_1_azha.wav,,FALSE,TRUE,,,,,,,,,,,,,,j,1.9907,space,2.1709,,,,,,,,0,33,33,3,1,,
5d410f4d037fb000173a2832,2023-06-16_21h18.52.832,phx_ver10,2022.2.5,MacIntel,60.0024001,,,,,,,,,,,,141,testing_3,sh2j,i,sh2j_i,sh2j_1_ishi.wav,sh2j_1_ishi.wav,,TRUE,FALSE,,,,,,,,,,,,,,f,0.13,space,0.5337,,,,,,,,0,34,34,140,1,,
5d410f4d037fb000173a2832,2023-06-16_21h18.52.832,phx_ver10,2022.2.5,MacIntel,60.0024001,,,,,,,,,,,,38,testing_3,zh2sh,e,zh2sh_e,zh2sh_8_eshe.wav,zh2sh_8_eshe.wav,,TRUE,FALSE,,,,,,,,,,,,,,j,1.0847,space,1.3179,,,,,,,,0,35,35,37,1,,
5d410f4d037fb000173a2832,2023-06-16_21h18.52.832,phx_ver10,2022.2.5,MacIntel,60.0024001,,,,,,,,,,,,133,testing_3,sh2j,e,sh2j_e,sh2j_1_eshe.wav,sh2j_1_eshe.wav,,TRUE,FALSE,,,,,,,,,,,,,,j,0.4054,space,0.7011,,,,,,,,0,36,36,132,1,,
5d410f4d037fb000173a2832,2023-06-16_21h18.52.832,phx_ver10,2022.2.5,MacIntel,60.0024001,,,,,,,,,,,,90,testing_3,j2x,ei,j2x_ei,j2x_8_eixei.wav,j2x_8_eixei.wav,,TRUE,FALSE,,,,,,,,,,,,,,f,0.036,space,0.4684,,,,,,,,0,37,37,89,1,,
5d410f4d037fb000173a2832,2023-06-16_21h18.52.832,phx_ver10,2022.2.5,MacIntel,60.0024001,,,,,,,,,,,,117,testing_3,sh2x,i,sh2x_i,sh2x_1_ishi.wav,sh2x_1_ishi.wav,,TRUE,FALSE,,,,,,,,,,,,,,j,0.319,space,0.5695,,,,,,,,0,38,38,116,1,,
5d410f4d037fb000173a2832,2023-06-16_21h18.52.832,phx_ver10,2022.2.5,MacIntel,60.0024001,,,,,,,,,,,,92,testing_3,j2x,ei,j2x_ei,j2x_8_eixei.wav,j2x_1_eijei.wav,,FALSE,FALSE,,,,,,,,,,,,,,f,0.6359,space,0.9684,,,,,,,,0,39,39,91,1,,
5d410f4d037fb000173a2832,2023-06-16_21h18.52.832,phx_ver10,2022.2.5,MacIntel,60.0024001,,,,,,,,,,,,140,testing_3,sh2j,ei,sh2j_ei,sh2j_8_eijei.wav,sh2j_1_eishei.wav,,FALSE,FALSE,,,,,,,,,,,,,,f,0.32,space,0.6334,,,,,,,,0,40,40,139,1,,
5d410f4d037fb000173a2832,2023-06-16_21h18.52.832,phx_ver10,2022.2.5,MacIntel,60.0024001,,,,,,,,,,,,72,testing_3,zh2j,i,zh2j_i,zh2j_8_iji.wav,zh2j_1_izhi.wav,,FALSE,FALSE,,,,,,,,,,,,,,j,0.0247,space,0.2905,,,,,,,,0,41,41,71,1,,
5d410f4d037fb000173a2832,2023-06-16_21h18.52.832,phx_ver10,2022.2.5,MacIntel,60.0024001,,,,,,,,,,,,28,testing_3,zh2sh,a,zh2sh_a,zh2sh_8_asha.wav,zh2sh_1_azha.wav,,FALSE,FALSE,,,,,,,,,,,,,,j,0.3418,space,0.6083,,,,,,,,0,42,42,27,1,,
5d410f4d037fb000173a2832,2023-06-16_21h18.52.832,phx_ver10,2022.2.5,MacIntel,60.0024001,,,,,,,,,,,,35,testing_3,zh2sh,au,zh2sh_au,zh2sh_1_auzhau.wav,zh2sh_8_aushau.wav,,FALSE,FALSE,,,,,,,,,,,,,,f,0.2664,space,0.5637,,,,,,,,0,43,43,34,1,,
5d410f4d037fb000173a2832,2023-06-16_21h18.52.832,phx_ver10,2022.2.5,MacIntel,60.0024001,,,,,,,,,,,,7,testing_1,zh2x,e,zh2x_e,zh2x_1_ezhe.wav,zh2x_8_exe.wav,,FALSE,TRUE,,,,,,,,,,,,,,f,0.6495,space,0.9842,,,,,,,,0,44,44,6,1,,
5d410f4d037fb000173a2832,2023-06-16_21h18.52.832,phx_ver10,2022.2.5,MacIntel,60.0024001,,,,,,,,,,,,110,testing_3,sh2x,e,sh2x_e,sh2x_8_exe.wav,sh2x_8_exe.wav,,TRUE,FALSE,,,,,,,,,,,,,,j,0.2199,space,0.5178,,,,,,,,0,45,45,109,1,,
5d410f4d037fb000173a2832,2023-06-16_21h18.52.832,phx_ver10,2022.2.5,MacIntel,60.0024001,,,,,,,,,,,,118,testing_3,sh2x,i,sh2x_i,sh2x_8_ixi.wav,sh2x_8_ixi.wav,,TRUE,FALSE,,,,,,,,,,,,,,f,0.4436,space,0.8238,,,,,,,,0,46,46,117,1,,
5d410f4d037fb000173a2832,2023-06-16_21h18.52.832,phx_ver10,2022.2.5,MacIntel,60.0024001,,,,,,,,,,,,80,testing_3,j2x,ai,j2x_ai,j2x_8_aixai.wav,j2x_1_aijai.wav,,FALSE,FALSE,,,,,,,,,,,,,,j,0.4865,space,0.8338,,,,,,,,0,47,47,79,1,,
5d410f4d037fb000173a2832,2023-06-16_21h18.52.832,phx_ver10,2022.2.5,MacIntel,60.0024001,,,,,,,,,,,,127,testing_3,sh2j,ai,sh2j_ai,sh2j_1_aishai.wav,sh2j_8_aijai.wav,,FALSE,FALSE,,,,,,,,,,,,,,j,0.2192,space,0.6224,,,,,,,,0,48,48,126,1,,
5d410f4d037fb000173a2832,2023-06-16_21h18.52.832,phx_ver10,2022.2.5,MacIntel,60.0024001,,,,,,,,,,,,111,testing_3,sh2x,e,sh2x_e,sh2x_1_eshe.wav,sh2x_8_exe.wav,,FALSE,FALSE,,,,,,,,,,,,,,f,0.817,space,1.2859,,,,,,,,0,49,49,110,1,,
5d410f4d037fb000173a2832,2023-06-16_21h18.52.832,phx_ver10,2022.2.5,MacIntel,60.0024001,,,,,,,,,,,,135,testing_3,sh2j,e,sh2j_e,sh2j_1_eshe.wav,sh2j_8_eje.wav,,FALSE,FALSE,,,,,,,,,,,,,,j,0.7845,space,1.1492,,,,,,,,0,50,50,134,1,,
5d410f4d037fb000173a2832,2023-06-16_21h18.52.832,phx_ver10,2022.2.5,MacIntel,60.0024001,,,,,,,,,,,,123,testing_3,sh2j,a,sh2j_a,sh2j_1_asha.wav,sh2j_8_aja.wav,,FALSE,FALSE,,,,,,,,,,,,,,j,0.4036,space,0.801,,,,,,,,0,51,51,122,1,,
5d410f4d037fb000173a2832,2023-06-16_21h18.52.832,phx_ver10,2022.2.5,MacIntel,60.0024001,,,,,,,,,,,,50,testing_3,zh2j,a,zh2j_a,zh2j_8_aja.wav,zh2j_8_aja.wav,,TRUE,FALSE,,,,,,,,,,,,,,f,0.2668,space,0.6473,,,,,,,,0,52,52,49,1,,
5d410f4d037fb000173a2832,2023-06-16_21h18.52.832,phx_ver10,2022.2.5,MacIntel,60.0024001,,,,,,,,,,,,130,testing_3,sh2j,au,sh2j_au,sh2j_8_aujau.wav,sh2j_8_aujau.wav,,TRUE,FALSE,,,,,,,,,,,,,,f,0.5181,space,0.9006,,,,,,,,0,53,53,129,1,,
5d410f4d037fb000173a2832,2023-06-16_21h18.52.832,phx_ver10,2022.2.5,MacIntel,60.0024001,,,,,,,,,,,,1,testing_1,zh2x,a,zh2x_a,zh2x_1_azha.wav,zh2x_1_azha_copy.wav,,TRUE,TRUE,,,,,,,,,,,,,,f,0.3481,space,0.7186,,,,,,,,0,54,54,0,1,,
5d410f4d037fb000173a2832,2023-06-16_21h18.52.832,phx_ver10,2022.2.5,MacIntel,60.0024001,,,,,,,,,,,,93,testing_3,j2x,i,j2x_i,j2x_1_iji.wav,j2x_1_iji.wav,,TRUE,FALSE,,,,,,,,,,,,,,f,0.1304,space,0.6663,,,,,,,,0,55,55,92,1,,
5d410f4d037fb000173a2832,2023-06-16_21h18.52.832,phx_ver10,2022.2.5,MacIntel,60.0024001,,,,,,,,,,,,30,testing_3,zh2sh,ai,zh2sh_ai,zh2sh_8_aishai.wav,zh2sh_8_aishai.wav,,TRUE,FALSE,,,,,,,,,,,,,,j,0.4985,space,0.8272,,,,,,,,0,56,56,29,1,,
5d410f4d037fb000173a2832,2023-06-16_21h18.52.832,phx_ver10,2022.2.5,MacIntel,60.0024001,,,,,,,,,,,,56,testing_3,zh2j,ai,zh2j_ai,zh2j_8_aijai.wav,zh2j_1_aizhai.wav,,FALSE,FALSE,,,,,,,,,,,,,,j,0.3639,space,0.7833,,,,,,,,0,57,57,55,1,,
5d410f4d037fb000173a2832,2023-06-16_21h18.52.832,phx_ver10,2022.2.5,MacIntel,60.0024001,,,,,,,,,,,,115,testing_3,sh2x,ei,sh2x_ei,sh2x_1_eishei.wav,sh2x_8_eixei.wav,,FALSE,FALSE,,,,,,,,,,,,,,f,0.551,space,0.9246,,,,,,,,0,58,58,114,1,,
5d410f4d037fb000173a2832,2023-06-16_21h18.52.832,phx_ver10,2022.2.5,MacIntel,60.0024001,,,,,,,,,,,,31,testing_3,zh2sh,ai,zh2sh_ai,zh2sh_1_aizhai.wav,zh2sh_8_aishai.wav,,FALSE,FALSE,,,,,,,,,,,,,,f,0.8458,space,25.3631,,,,,,,,0,59,59,30,1,,
5d410f4d037fb000173a2832,2023-06-16_21h18.52.832,phx_ver10,2022.2.5,MacIntel,60.0024001,,,,,,,,,,,,95,testing_3,j2x,i,j2x_i,j2x_1_iji.wav,j2x_8_ixi.wav,,FALSE,FALSE,,,,,,,,,,,,,,j,0.6019,space,0.9645,,,,,,,,0,60,60,94,1,,
5d410f4d037fb000173a2832,2023-06-16_21h18.52.832,phx_ver10,2022.2.5,MacIntel,60.0024001,,,,,,,,,,,,51,testing_3,zh2j,a,zh2j_a,zh2j_1_azha.wav,zh2j_8_aja.wav,,FALSE,FALSE,,,,,,,,,,,,,,f,0.3074,space,0.6574,,,,,,,,0,61,61,50,1,,
5d410f4d037fb000173a2832,2023-06-16_21h18.52.832,phx_ver10,2022.2.5,MacIntel,60.0024001,,,,,,,,,,,,20,testing_2,zh2x,au,zh2x_au,zh2x_8_auxau.wav,zh2x_1_auzhau.wav,,FALSE,FALSE,,,,,,,,,,,,,,j,0.1814,space,0.8778,,,,,,,,0,62,62,19,1,,
5d410f4d037fb000173a2832,2023-06-16_21h18.52.832,phx_ver10,2022.2.5,MacIntel,60.0024001,,,,,,,,,,,,25,testing_3,zh2sh,a,zh2sh_a,zh2sh_1_azha.wav,zh2sh_1_azha.wav,,TRUE,FALSE,,,,,,,,,,,,,,j,2.433,space,3.916,,,,,,,,0,63,63,24,1,,
5d410f4d037fb000173a2832,2023-06-16_21h18.52.832,phx_ver10,2022.2.5,MacIntel,60.0024001,,,,,,,,,,,,64,testing_3,zh2j,e,zh2j_e,zh2j_8_eje.wav,zh2j_1_ezhe.wav,,FALSE,FALSE,,,,,,,,,,,,,,j,0.2358,space,0.5861,,,,,,,,0,64,64,63,1,,
5d410f4d037fb000173a2832,2023-06-16_21h18.52.832,phx_ver10,2022.2.5,MacIntel,60.0024001,,,,,,,,,,,,52,testing_3,zh2j,a,zh2j_a,zh2j_8_aja.wav,zh2j_1_azha.wav,,FALSE,FALSE,,,,,,,,,,,,,,f,0.2352,space,0.6164,,,,,,,,0,65,65,51,1,,
5d410f4d037fb000173a2832,2023-06-16_21h18.52.832,phx_ver10,2022.2.5,MacIntel,60.0024001,,,,,,,,,,,,54,testing_3,zh2j,ai,zh2j_ai,zh2j_8_aijai.wav,zh2j_8_aijai.wav,,TRUE,FALSE,,,,,,,,,,,,,,f,0.4335,space,0.7533,,,,,,,,0,66,66,53,1,,
5d410f4d037fb000173a2832,2023-06-16_21h18.52.832,phx_ver10,2022.2.5,MacIntel,60.0024001,,,,,,,,,,,,73,testing_3,j2x,a,j2x_a,j2x_1_aja.wav,j2x_1_aja.wav,,TRUE,FALSE,,,,,,,,,,,,,,j,0.4234,space,0.7339,,,,,,,,0,67,67,72,1,,
5d410f4d037fb000173a2832,2023-06-16_21h18.52.832,phx_ver10,2022.2.5,MacIntel,60.0024001,,,,,,,,,,,,81,testing_3,j2x,au,j2x_au,j2x_1_aujau.wav,j2x_1_aujau.wav,,TRUE,FALSE,,,,,,,,,,,,,,j,0.2339,space,0.6171,,,,,,,,0,68,68,80,1,,
5d410f4d037fb000173a2832,2023-06-16_21h18.52.832,phx_ver10,2022.2.5,MacIntel,60.0024001,,,,,,,,,,,,63,testing_3,zh2j,e,zh2j_e,zh2j_1_ezhe.wav,zh2j_8_eje.wav,,FALSE,FALSE,,,,,,,,,,,,,,j,0.4168,space,0.8156,,,,,,,,0,69,69,62,1,,
5d410f4d037fb000173a2832,2023-06-16_21h18.52.832,phx_ver10,2022.2.5,MacIntel,60.0024001,,,,,,,,,,,,76,testing_3,j2x,a,j2x_a,j2x_8_axa.wav,j2x_1_aja.wav,,FALSE,FALSE,,,,,,,,,,,,,,j,0.0157,space,0.4311,,,,,,,,0,70,70,75,1,,
5d410f4d037fb000173a2832,2023-06-16_21h18.52.832,phx_ver10,2022.2.5,MacIntel,60.0024001,,,,,,,,,,,,113,testing_3,sh2x,ei,sh2x_ei,sh2x_1_eishei.wav,sh2x_1_eishei.wav,,TRUE,FALSE,,,,,,,,,,,,,,f,0.3194,space,0.6716,,,,,,,,0,71,71,112,1,,
5d410f4d037fb000173a2832,2023-06-16_21h18.52.832,phx_ver10,2022.2.5,MacIntel,60.0024001,,,,,,,,,,,,60,testing_3,zh2j,au,zh2j_au,zh2j_8_aujau.wav,zh2j_1_auzhau.wav,,FALSE,FALSE,,,,,,,,,,,,,,f,0.0522,space,0.7521,,,,,,,,0,72,72,59,1,,
5d410f4d037fb000173a2832,2023-06-16_21h18.52.832,phx_ver10,2022.2.5,MacIntel,60.0024001,,,,,,,,,,,,105,testing_3,sh2x,au,sh2x_au,sh2x_1_aushau.wav,sh2x_1_aushau.wav,,TRUE,FALSE,,,,,,,,,,,,,,j,0.3841,space,0.7836,,,,,,,,0,73,73,104,1,,
5d410f4d037fb000173a2832,2023-06-16_21h18.52.832,phx_ver10,2022.2.5,MacIntel,60.0024001,,,,,,,,,,,,27,testing_3,zh2sh,a,zh2sh_a,zh2sh_1_azha.wav,zh2sh_8_asha.wav,,FALSE,FALSE,,,,,,,,,,,,,,j,0.4242,space,0.7574,,,,,,,,0,74,74,26,1,,
5d410f4d037fb000173a2832,2023-06-16_21h18.52.832,phx_ver10,2022.2.5,MacIntel,60.0024001,,,,,,,,,,,,45,testing_3,zh2sh,i,zh2sh_i,zh2sh_1_izhi.wav,zh2sh_1_izhi.wav,,TRUE,FALSE,,,,,,,,,,,,,,f,0.4797,space,0.8834,,,,,,,,0,75,75,44,1,,
5d410f4d037fb000173a2832,2023-06-16_21h18.52.832,phx_ver10,2022.2.5,MacIntel,60.0024001,,,,,,,,,,,,13,testing_2,zh2x,ai,zh2x_ai,zh2x_1_aizhai.wav,zh2x_1_aizhai.wav,,TRUE,FALSE,,,,,,,,,,,,,,f,0.1879,space,0.5736,,,,,,,,0,76,76,12,1,,
5d410f4d037fb000173a2832,2023-06-16_21h18.52.832,phx_ver10,2022.2.5,MacIntel,60.0024001,,,,,,,,,,,,77,testing_3,j2x,ai,j2x_ai,j2x_1_aijai.wav,j2x_1_aijai.wav,,TRUE,FALSE,,,,,,,,,,,,,,j,0.2645,space,0.7176,,,,,,,,0,77,77,76,1,,
5d410f4d037fb000173a2832,2023-06-16_21h18.52.832,phx_ver10,2022.2.5,MacIntel,60.0024001,,,,,,,,,,,,102,testing_3,sh2x,ai,sh2x_ai,sh2x_8_aixai.wav,sh2x_8_aixai.wav,,TRUE,FALSE,,,,,,,,,,,,,,f,0.2074,space,0.6069,,,,,,,,0,78,78,101,1,,
5d410f4d037fb000173a2832,2023-06-16_21h18.52.832,phx_ver10,2022.2.5,MacIntel,60.0024001,,,,,,,,,,,,94,testing_3,j2x,i,j2x_i,j2x_8_ixi.wav,j2x_8_ixi.wav,,TRUE,FALSE,,,,,,,,,,,,,,f,0.1176,space,0.5843,,,,,,,,0,79,79,93,1,,
5d410f4d037fb000173a2832,2023-06-16_21h18.52.832,phx_ver10,2022.2.5,MacIntel,60.0024001,,,,,,,,,,,,143,testing_3,sh2j,i,sh2j_i,sh2j_1_ishi.wav,sh2j_8_iji.wav,,FALSE,FALSE,,,,,,,,,,,,,,j,0.8204,space,1.2493,,,,,,,,0,80,80,142,1,,
5d410f4d037fb000173a2832,2023-06-16_21h18.52.832,phx_ver10,2022.2.5,MacIntel,60.0024001,,,,,,,,,,,,97,testing_3,sh2x,a,sh2x_a,sh2x_1_asha.wav,sh2x_1_asha.wav,,TRUE,FALSE,,,,,,,,,,,,,,j,0.6528,space,1.0103,,,,,,,,0,81,81,96,1,,
5d410f4d037fb000173a2832,2023-06-16_21h18.52.832,phx_ver10,2022.2.5,MacIntel,60.0024001,,,,,,,,,,,,107,testing_3,sh2x,au,sh2x_au,sh2x_1_aushau.wav,sh2x_8_auxau.wav,,FALSE,FALSE,,,,,,,,,,,,,,j,0.225,space,0.5753,,,,,,,,0,82,82,106,1,,
5d410f4d037fb000173a2832,2023-06-16_21h18.52.832,phx_ver10,2022.2.5,MacIntel,60.0024001,,,,,,,,,,,,59,testing_3,zh2j,au,zh2j_au,zh2j_1_auzhau.wav,zh2j_8_aujau.wav,,FALSE,FALSE,,,,,,,,,,,,,,f,0.0574,space,0.4234,,,,,,,,0,83,83,58,1,,
5d410f4d037fb000173a2832,2023-06-16_21h18.52.832,phx_ver10,2022.2.5,MacIntel,60.0024001,,,,,,,,,,,,32,testing_3,zh2sh,ai,zh2sh_ai,zh2sh_8_aishai.wav,zh2sh_1_aizhai.wav,,FALSE,FALSE,,,,,,,,,,,,,,j,0.2512,space,0.5664,,,,,,,,0,84,84,31,1,,
5d410f4d037fb000173a2832,2023-06-16_21h18.52.832,phx_ver10,2022.2.5,MacIntel,60.0024001,,,,,,,,,,,,98,testing_3,sh2x,a,sh2x_a,sh2x_8_axa.wav,sh2x_8_axa.wav,,TRUE,FALSE,,,,,,,,,,,,,,j,0.1846,space,0.5133,,,,,,,,0,85,85,97,1,,
5d410f4d037fb000173a2832,2023-06-16_21h18.52.832,phx_ver10,2022.2.5,MacIntel,60.0024001,,,,,,,,,,,,44,testing_3,zh2sh,ei,zh2sh_ei,zh2sh_8_eishei.wav,zh2sh_1_eizhei.wav,,FALSE,FALSE,,,,,,,,,,,,,,j,0.1626,space,0.5633,,,,,,,,0,86,86,43,1,,
5d410f4d037fb000173a2832,2023-06-16_21h18.52.832,phx_ver10,2022.2.5,MacIntel,60.0024001,,,,,,,,,,,,75,testing_3,j2x,a,j2x_a,j2x_1_aja.wav,j2x_8_axa.wav,,FALSE,FALSE,,,,,,,,,,,,,,j,0.0011,space,0.3968,,,,,,,,0,87,87,74,1,,
5d410f4d037fb000173a2832,2023-06-16_21h18.52.832,phx_ver10,2022.2.5,MacIntel,60.0024001,,,,,,,,,,,,99,testing_3,sh2x,a,sh2x_a,sh2x_1_asha.wav,sh2x_8_axa.wav,,FALSE,FALSE,,,,,,,,,,,,,,j,0.0985,space,0.4508,,,,,,,,0,88,88,98,1,,
5d410f4d037fb000173a2832,2023-06-16_21h18.52.832,phx_ver10,2022.2.5,MacIntel,60.0024001,,,,,,,,,,,,61,testing_3,zh2j,e,zh2j_e,zh2j_1_ezhe.wav,zh2j_1_ezhe.wav,,TRUE,FALSE,,,,,,,,,,,,,,f,0.4022,space,0.7359,,,,,,,,0,89,89,60,1,,
5d410f4d037fb000173a2832,2023-06-16_21h18.52.832,phx_ver10,2022.2.5,MacIntel,60.0024001,,,,,,,,,,,,144,testing_3,sh2j,i,sh2j_i,sh2j_8_iji.wav,sh2j_1_ishi.wav,,FALSE,FALSE,,,,,,,,,,,,,,j,0.3032,space,0.6237,,,,,,,,0,90,90,143,1,,
5d410f4d037fb000173a2832,2023-06-16_21h18.52.832,phx_ver10,2022.2.5,MacIntel,60.0024001,,,,,,,,,,,,134,testing_3,sh2j,e,sh2j_e,sh2j_8_eje.wav,sh2j_8_eje.wav,,TRUE,FALSE,,,,,,,,,,,,,,f,0.5082,space,0.8236,,,,,,,,0,91,91,133,1,,
5d410f4d037fb000173a2832,2023-06-16_21h18.52.832,phx_ver10,2022.2.5,MacIntel,60.0024001,,,,,,,,,,,,87,testing_3,j2x,e,j2x_e,j2x_1_eje.wav,j2x_8_exe.wav,,FALSE,FALSE,,,,,,,,,,,,,,,,space,0.8341,,,,,,,,0,92,92,86,1,,
5d410f4d037fb000173a2832,2023-06-16_21h18.52.832,phx_ver10,2022.2.5,MacIntel,60.0024001,,,,,,,,,,,,137,testing_3,sh2j,ei,sh2j_ei,sh2j_1_eishei.wav,sh2j_1_eishei.wav,,TRUE,FALSE,,,,,,,,,,,,,,f,0.391,space,0.7066,,,,,,,,0,93,93,136,1,,
5d410f4d037fb000173a2832,2023-06-16_21h18.52.832,phx_ver10,2022.2.5,MacIntel,60.0024001,,,,,,,,,,,,106,testing_3,sh2x,au,sh2x_au,sh2x_8_auxau.wav,sh2x_8_auxau.wav,,TRUE,FALSE,,,,,,,,,,,,,,j,0.1367,space,0.4742,,,,,,,,0,94,94,105,1,,
5d410f4d037fb000173a2832,2023-06-16_21h18.52.832,phx_ver10,2022.2.5,MacIntel,60.0024001,,,,,,,,,,,,104,testing_3,sh2x,ai,sh2x_ai,sh2x_8_aixai.wav,sh2x_1_aishai.wav,,FALSE,FALSE,,,,,,,,,,,,,,j,0.4496,space,0.767,,,,,,,,0,95,95,103,1,,
5d410f4d037fb000173a2832,2023-06-16_21h18.52.832,phx_ver10,2022.2.5,MacIntel,60.0024001,,,,,,,,,,,,88,testing_3,j2x,e,j2x_e,j2x_8_exe.wav,j2x_1_eje.wav,,FALSE,FALSE,,,,,,,,,,,,,,j,0.1391,space,0.5198,,,,,,,,0,96,96,87,1,,
5d410f4d037fb000173a2832,2023-06-16_21h18.52.832,phx_ver10,2022.2.5,MacIntel,60.0024001,,,,,,,,,,,,14,testing_2,zh2x,ai,zh2x_ai,zh2x_8_aixai.wav,zh2x_8_aixai.wav,,TRUE,FALSE,,,,,,,,,,,,,,f,0.4625,space,0.8184,,,,,,,,0,97,97,13,1,,
5d410f4d037fb000173a2832,2023-06-16_21h18.52.832,phx_ver10,2022.2.5,MacIntel,60.0024001,,,,,,,,,,,,138,testing_3,sh2j,ei,sh2j_ei,sh2j_8_eijei.wav,sh2j_8_eijei.wav,,TRUE,FALSE,,,,,,,,,,,,,,f,0.4011,space,0.7182,,,,,,,,0,98,98,137,1,,
5d410f4d037fb000173a2832,2023-06-16_21h18.52.832,phx_ver10,2022.2.5,MacIntel,60.0024001,,,,,,,,,,,,120,testing_3,sh2x,i,sh2x_i,sh2x_8_ixi.wav,sh2x_1_ishi.wav,,FALSE,FALSE,,,,,,,,,,,,,,j,0.0161,space,0.3678,,,,,,,,0,99,99,119,1,,
5d410f4d037fb000173a2832,2023-06-16_21h18.52.832,phx_ver10,2022.2.5,MacIntel,60.0024001,,,,,,,,,,,,139,testing_3,sh2j,ei,sh2j_ei,sh2j_1_eishei.wav,sh2j_8_eijei.wav,,FALSE,FALSE,,,,,,,,,,,,,,f,0.2308,space,0.6041,,,,,,,,0,100,100,138,1,,
5d410f4d037fb000173a2832,2023-06-16_21h18.52.832,phx_ver10,2022.2.5,MacIntel,60.0024001,,,,,,,,,,,,69,testing_3,zh2j,i,zh2j_i,zh2j_1_izhi.wav,zh2j_1_izhi.wav,,TRUE,FALSE,,,,,,,,,,,,,,f,0.0215,space,0.405,,,,,,,,0,101,101,68,1,,
5d410f4d037fb000173a2832,2023-06-16_21h18.52.832,phx_ver10,2022.2.5,MacIntel,60.0024001,,,,,,,,,,,,109,testing_3,sh2x,e,sh2x_e,sh2x_1_eshe.wav,sh2x_1_eshe.wav,,TRUE,FALSE,,,,,,,,,,,,,,f,0.0157,space,0.3665,,,,,,,,0,102,102,108,1,,
5d410f4d037fb000173a2832,2023-06-16_21h18.52.832,phx_ver10,2022.2.5,MacIntel,60.0024001,,,,,,,,,,,,70,testing_3,zh2j,i,zh2j_i,zh2j_8_iji.wav,zh2j_8_iji.wav,,TRUE,FALSE,,,,,,,,,,,,,,j,0.4339,space,0.7442,,,,,,,,0,103,103,69,1,,
5d410f4d037fb000173a2832,2023-06-16_21h18.52.832,phx_ver10,2022.2.5,MacIntel,60.0024001,,,,,,,,,,,,84,testing_3,j2x,au,j2x_au,j2x_8_auxau.wav,j2x_1_aujau.wav,,FALSE,FALSE,,,,,,,,,,,,,,j,0.3643,space,0.6534,,,,,,,,0,104,104,83,1,,
5d410f4d037fb000173a2832,2023-06-16_21h18.52.832,phx_ver10,2022.2.5,MacIntel,60.0024001,,,,,,,,,,,,43,testing_3,zh2sh,ei,zh2sh_ei,zh2sh_1_eizhei.wav,zh2sh_8_eishei.wav,,FALSE,FALSE,,,,,,,,,,,,,,j,0.0518,space,0.5188,,,,,,,,0,105,105,42,1,,
5d410f4d037fb000173a2832,2023-06-16_21h18.52.832,phx_ver10,2022.2.5,MacIntel,60.0024001,,,,,,,,,,,,55,testing_3,zh2j,ai,zh2j_ai,zh2j_1_aizhai.wav,zh2j_8_aijai.wav,,FALSE,FALSE,,,,,,,,,,,,,,f,3.1088,space,3.4693,,,,,,,,0,106,106,54,1,,
5d410f4d037fb000173a2832,2023-06-16_21h18.52.832,phx_ver10,2022.2.5,MacIntel,60.0024001,,,,,,,,,,,,114,testing_3,sh2x,ei,sh2x_ei,sh2x_8_eixei.wav,sh2x_8_eixei.wav,,TRUE,FALSE,,,,,,,,,,,,,,f,0.1639,space,0.4801,,,,,,,,0,107,107,113,1,,
5d410f4d037fb000173a2832,2023-06-16_21h18.52.832,phx_ver10,2022.2.5,MacIntel,60.0024001,,,,,,,,,,,,16,testing_2,zh2x,ai,zh2x_ai,zh2x_8_aixai.wav,zh2x_1_aizhai.wav,,FALSE,FALSE,,,,,,,,,,,,,,j,0.4324,space,0.7201,,,,,,,,0,108,108,15,1,,
5d410f4d037fb000173a2832,2023-06-16_21h18.52.832,phx_ver10,2022.2.5,MacIntel,60.0024001,,,,,,,,,,,,29,testing_3,zh2sh,ai,zh2sh_ai,zh2sh_1_aizhai.wav,zh2sh_1_aizhai.wav,,TRUE,FALSE,,,,,,,,,,,,,,j,0.2311,space,0.5993,,,,,,,,0,109,109,28,1,,
5d410f4d037fb000173a2832,2023-06-16_21h18.52.832,phx_ver10,2022.2.5,MacIntel,60.0024001,,,,,,,,,,,,9,testing_1,zh2x,i,zh2x_i,zh2x_1_izhi.wav,zh2x_1_izhi_copy.wav,,TRUE,TRUE,,,,,,,,,,,,,,f,0.0637,space,0.7172,,,,,,,,0,110,110,8,1,,
5d410f4d037fb000173a2832,2023-06-16_21h18.52.832,phx_ver10,2022.2.5,MacIntel,60.0024001,,,,,,,,,,,,121,testing_3,sh2j,a,sh2j_a,sh2j_1_asha.wav,sh2j_1_asha.wav,,TRUE,FALSE,,,,,,,,,,,,,,j,0.4414,space,0.7732,,,,,,,,0,111,111,120,1,,
5d410f4d037fb000173a2832,2023-06-16_21h18.52.832,phx_ver10,2022.2.5,MacIntel,60.0024001,,,,,,,,,,,,67,testing_3,zh2j,ei,zh2j_ei,zh2j_1_eizhei.wav,zh2j_8_eijei.wav,,FALSE,FALSE,,,,,,,,,,,,,,f,1.5676,space,1.9601,,,,,,,,0,112,112,66,1,,
5d410f4d037fb000173a2832,2023-06-16_21h18.52.832,phx_ver10,2022.2.5,MacIntel,60.0024001,,,,,,,,,,,,26,testing_3,zh2sh,a,zh2sh_a,zh2sh_8_asha.wav,zh2sh_8_asha.wav,,TRUE,FALSE,,,,,,,,,,,,,,j,0.157,space,0.5528,,,,,,,,0,113,113,25,1,,
5d410f4d037fb000173a2832,2023-06-16_21h18.52.832,phx_ver10,2022.2.5,MacIntel,60.0024001,,,,,,,,,,,,142,testing_3,sh2j,i,sh2j_i,sh2j_8_iji.wav,sh2j_8_iji.wav,,TRUE,FALSE,,,,,,,,,,,,,,f,0.2187,space,0.5952,,,,,,,,0,114,114,141,1,,
5d410f4d037fb000173a2832,2023-06-16_21h18.52.832,phx_ver10,2022.2.5,MacIntel,60.0024001,,,,,,,,,,,,42,testing_3,zh2sh,ei,zh2sh_ei,zh2sh_8_eishei.wav,zh2sh_8_eishei.wav,,TRUE,FALSE,,,,,,,,,,,,,,j,0.9853,space,1.3213,,,,,,,,0,115,115,41,1,,
5d410f4d037fb000173a2832,2023-06-16_21h18.52.832,phx_ver10,2022.2.5,MacIntel,60.0024001,,,,,,,,,,,,116,testing_3,sh2x,ei,sh2x_ei,sh2x_8_eixei.wav,sh2x_1_eishei.wav,,FALSE,FALSE,,,,,,,,,,,,,,j,0.0015,space,0.3497,,,,,,,,0,116,116,115,1,,
5d410f4d037fb000173a2832,2023-06-16_21h18.52.832,phx_ver10,2022.2.5,MacIntel,60.0024001,,,,,,,,,,,,100,testing_3,sh2x,a,sh2x_a,sh2x_8_axa.wav,sh2x_1_asha.wav,,FALSE,FALSE,,,,,,,,,,,,,,j,0.3353,space,0.651,,,,,,,,0,117,117,99,1,,
5d410f4d037fb000173a2832,2023-06-16_21h18.52.832,phx_ver10,2022.2.5,MacIntel,60.0024001,,,,,,,,,,,,108,testing_3,sh2x,au,sh2x_au,sh2x_8_auxau.wav,sh2x_1_aushau.wav,,FALSE,FALSE,,,,,,,,,,,,,,j,0.2829,space,0.8859,,,,,,,,0,118,118,107,1,,
5d410f4d037fb000173a2832,2023-06-16_21h18.52.832,phx_ver10,2022.2.5,MacIntel,60.0024001,,,,,,,,,,,,86,testing_3,j2x,e,j2x_e,j2x_8_exe.wav,j2x_8_exe.wav,,TRUE,FALSE,,,,,,,,,,,,,,f,0.3144,space,0.6481,,,,,,,,0,119,119,85,1,,
5d410f4d037fb000173a2832,2023-06-16_21h18.52.832,phx_ver10,2022.2.5,MacIntel,60.0024001,,,,,,,,,,,,66,testing_3,zh2j,ei,zh2j_ei,zh2j_8_eijei.wav,zh2j_8_eijei.wav,,TRUE,FALSE,,,,,,,,,,,,,,j,0.1019,space,0.4781,,,,,,,,0,120,120,65,1,,
5d410f4d037fb000173a2832,2023-06-16_21h18.52.832,phx_ver10,2022.2.5,MacIntel,60.0024001,,,,,,,,,,,,39,testing_3,zh2sh,e,zh2sh_e,zh2sh_1_ezhe.wav,zh2sh_8_eshe.wav,,FALSE,FALSE,,,,,,,,,,,,,,f,0.3694,space,0.6703,,,,,,,,0,121,121,38,1,,
5d410f4d037fb000173a2832,2023-06-16_21h18.52.832,phx_ver10,2022.2.5,MacIntel,60.0024001,,,,,,,,,,,,2,testing_1,zh2x,a,zh2x_a,zh2x_8_axa.wav,zh2x_8_axa_copy.wav,,TRUE,TRUE,,,,,,,,,,,,,,j,0.467,space,0.7727,,,,,,,,0,122,122,1,1,,
5d410f4d037fb000173a2832,2023-06-16_21h18.52.832,phx_ver10,2022.2.5,MacIntel,60.0024001,,,,,,,,,,,,24,testing_2,zh2x,ei,zh2x_ei,zh2x_8_eixei.wav,zh2x_1_eizhei.wav,,FALSE,FALSE,,,,,,,,,,,,,,j,0.5353,space,0.8658,,,,,,,,0,123,123,23,1,,
5d410f4d037fb000173a2832,2023-06-16_21h18.52.832,phx_ver10,2022.2.5,MacIntel,60.0024001,,,,,,,,,,,,57,testing_3,zh2j,au,zh2j_au,zh2j_1_auzhau.wav,zh2j_1_auzhau.wav,,TRUE,FALSE,,,,,,,,,,,,,,j,0.202,space,0.5211,,,,,,,,0,124,124,56,1,,
5d410f4d037fb000173a2832,2023-06-16_21h18.52.832,phx_ver10,2022.2.5,MacIntel,60.0024001,,,,,,,,,,,,18,testing_2,zh2x,au,zh2x_au,zh2x_8_auxau.wav,zh2x_8_auxau.wav,,TRUE,FALSE,,,,,,,,,,,,,,f,0.3682,space,0.6868,,,,,,,,0,125,125,17,1,,
5d410f4d037fb000173a2832,2023-06-16_21h18.52.832,phx_ver10,2022.2.5,MacIntel,60.0024001,,,,,,,,,,,,22,testing_2,zh2x,ei,zh2x_ei,zh2x_8_eixei.wav,zh2x_8_eixei.wav,,TRUE,FALSE,,,,,,,,,,,,,,f,0.4326,space,0.8679,,,,,,,,0,126,126,21,1,,
5d410f4d037fb000173a2832,2023-06-16_21h18.52.832,phx_ver10,2022.2.5,MacIntel,60.0024001,,,,,,,,,,,,36,testing_3,zh2sh,au,zh2sh_au,zh2sh_8_aushau.wav,zh2sh_1_auzhau.wav,,FALSE,FALSE,,,,,,,,,,,,,,j,0.3832,space,0.7176,,,,,,,,0,127,127,35,1,,
5d410f4d037fb000173a2832,2023-06-16_21h18.52.832,phx_ver10,2022.2.5,MacIntel,60.0024001,,,,,,,,,,,,17,testing_2,zh2x,au,zh2x_au,zh2x_1_auzhau.wav,zh2x_1_auzhau.wav,,TRUE,FALSE,,,,,,,,,,,,,,f,0.1829,space,0.4864,,,,,,,,0,128,128,16,1,,
5d410f4d037fb000173a2832,2023-06-16_21h18.52.832,phx_ver10,2022.2.5,MacIntel,60.0024001,,,,,,,,,,,,74,testing_3,j2x,a,j2x_a,j2x_8_axa.wav,j2x_8_axa.wav,,TRUE,FALSE,,,,,,,,,,,,,,j,0.0684,space,0.4361,,,,,,,,0,129,129,73,1,,
5d410f4d037fb000173a2832,2023-06-16_21h18.52.832,phx_ver10,2022.2.5,MacIntel,60.0024001,,,,,,,,,,,,19,testing_2,zh2x,au,zh2x_au,zh2x_1_auzhau.wav,zh2x_8_auxau.wav,,FALSE,FALSE,,,,,,,,,,,,,,j,0.5438,space,0.9344,,,,,,,,0,130,130,18,1,,
5d410f4d037fb000173a2832,2023-06-16_21h18.52.832,phx_ver10,2022.2.5,MacIntel,60.0024001,,,,,,,,,,,,83,testing_3,j2x,au,j2x_au,j2x_1_aujau.wav,j2x_8_auxau.wav,,FALSE,FALSE,,,,,,,,,,,,,,j,0.0812,space,0.4269,,,,,,,,0,131,131,82,1,,
5d410f4d037fb000173a2832,2023-06-16_21h18.52.832,phx_ver10,2022.2.5,MacIntel,60.0024001,,,,,,,,,,,,62,testing_3,zh2j,e,zh2j_e,zh2j_8_eje.wav,zh2j_8_eje.wav,,TRUE,FALSE,,,,,,,,,,,,,,f,0.3201,space,0.6528,,,,,,,,0,132,132,61,1,,
5d410f4d037fb000173a2832,2023-06-16_21h18.52.832,phx_ver10,2022.2.5,MacIntel,60.0024001,,,,,,,,,,,,126,testing_3,sh2j,ai,sh2j_ai,sh2j_8_aijai.wav,sh2j_8_aijai.wav,,TRUE,FALSE,,,,,,,,,,,,,,f,0.3386,space,0.638,,,,,,,,0,133,133,125,1,,
5d410f4d037fb000173a2832,2023-06-16_21h18.52.832,phx_ver10,2022.2.5,MacIntel,60.0024001,,,,,,,,,,,,78,testing_3,j2x,ai,j2x_ai,j2x_8_aixai.wav,j2x_8_aixai.wav,,TRUE,FALSE,,,,,,,,,,,,,,j,0.186,space,0.5352,,,,,,,,0,134,134,77,1,,
5d410f4d037fb000173a2832,2023-06-16_21h18.52.832,phx_ver10,2022.2.5,MacIntel,60.0024001,,,,,,,,,,,,3,testing_1,zh2x,a,zh2x_a,zh2x_1_azha.wav,zh2x_8_axa.wav,,FALSE,TRUE,,,,,,,,,,,,,,j,0.3141,space,0.6637,,,,,,,,0,135,135,2,1,,
5d410f4d037fb000173a2832,2023-06-16_21h18.52.832,phx_ver10,2022.2.5,MacIntel,60.0024001,,,,,,,,,,,,47,testing_3,zh2sh,i,zh2sh_i,zh2sh_1_izhi.wav,zh2sh_8_ishi.wav,,FALSE,FALSE,,,,,,,,,,,,,,f,0.4173,space,0.7928,,,,,,,,0,136,136,46,1,,
5d410f4d037fb000173a2832,2023-06-16_21h18.52.832,phx_ver10,2022.2.5,MacIntel,60.0024001,,,,,,,,,,,,122,testing_3,sh2j,a,sh2j_a,sh2j_8_aja.wav,sh2j_8_aja.wav,,TRUE,FALSE,,,,,,,,,,,,,,j,0.5992,space,0.9146,,,,,,,,0,137,137,121,1,,
5d410f4d037fb000173a2832,2023-06-16_21h18.52.832,phx_ver10,2022.2.5,MacIntel,60.0024001,,,,,,,,,,,,21,testing_2,zh2x,ei,zh2x_ei,zh2x_1_eizhei.wav,zh2x_1_eizhei.wav,,TRUE,FALSE,,,,,,,,,,,,,,f,0.1205,space,0.5063,,,,,,,,0,138,138,20,1,,
5d410f4d037fb000173a2832,2023-06-16_21h18.52.832,phx_ver10,2022.2.5,MacIntel,60.0024001,,,,,,,,,,,,23,testing_2,zh2x,ei,zh2x_ei,zh2x_1_eizhei.wav,zh2x_8_eixei.wav,,FALSE,FALSE,,,,,,,,,,,,,,j,0.1681,space,0.4691,,,,,,,,0,139,139,22,1,,
5d410f4d037fb000173a2832,2023-06-16_21h18.52.832,phx_ver10,2022.2.5,MacIntel,60.0024001,,,,,,,,,,,,58,testing_3,zh2j,au,zh2j_au,zh2j_8_aujau.wav,zh2j_8_aujau.wav,,TRUE,FALSE,,,,,,,,,,,,,,f,0.431,space,0.747,,,,,,,,0,140,140,57,1,,
5d410f4d037fb000173a2832,2023-06-16_21h18.52.832,phx_ver10,2022.2.5,MacIntel,60.0024001,,,,,,,,,,,,68,testing_3,zh2j,ei,zh2j_ei,zh2j_8_eijei.wav,zh2j_1_eizhei.wav,,FALSE,FALSE,,,,,,,,,,,,,,f,0.0008,space,0.3695,,,,,,,,0,141,141,67,1,,
5d410f4d037fb000173a2832,2023-06-16_21h18.52.832,phx_ver10,2022.2.5,MacIntel,60.0024001,,,,,,,,,,,,136,testing_3,sh2j,e,sh2j_e,sh2j_8_eje.wav,sh2j_1_eshe.wav,,FALSE,FALSE,,,,,,,,,,,,,,j,0.1819,space,0.6027,,,,,,,,0,142,142,135,1,,
5d410f4d037fb000173a2832,2023-06-16_21h18.52.832,phx_ver10,2022.2.5,MacIntel,60.0024001,,,,,,,,,,,,96,testing_3,j2x,i,j2x_i,j2x_8_ixi.wav,j2x_1_iji.wav,,FALSE,FALSE,,,,,,,,,,,,,,j,0.653,space,0.9699,,,,,,,,0,143,143,95,1,,
5d410f4d037fb000173a2832,2023-06-16_21h18.52.832,phx_ver10,2022.2.5,MacIntel,60.0024001,,,,,,,,,,,,,,,,,,,,,,,,,,,,,,,,,,,,,,,,,,,,,,,,,,,space,2.1214
