participant,date,expName,psychopyVersion,OS,frameRate,space_1.keys,space_1.rt,space_2.keys,space_2.rt,space_train.keys,space_train.rt,training.thisRepN,training.thisTrialN,training.thisN,training.thisIndex,training.ran,token_id,task,continuum,vowel,series,sound_1,sound_2,img,same,trained,FJ_attn.keys,FJ_attn.rt,space_attn.keys,space_attn.rt,if_attn_test.thisRepN,if_attn_test.thisTrialN,if_attn_test.thisN,if_attn_test.thisIndex,if_attn_test.ran,space_trans_1.keys,space_trans_1.rt,space_trans_11.keys,space_trans_11.rt,FJ_test.keys,FJ_test.rt,space_test.keys,space_test.rt,testing_pre.thisRepN,testing_pre.thisTrialN,testing_pre.thisN,testing_pre.thisIndex,testing_pre.ran,space_trans_2.keys,space_trans_2.rt,testing_all.thisRepN,testing_all.thisTrialN,testing_all.thisN,testing_all.thisIndex,testing_all.ran,space_ending.keys,space_ending.rt
5d5320870c2a6a0001cc6c7a,2023-06-16_10h30.33.936,phx_ver10,2022.2.5,Win32,60.14314067,,,,,,,,,,,,,,,,,,,,,,,,,,,,,,,,,,,,,,,,,,,,,,,,,,,,
5d5320870c2a6a0001cc6c7a,2023-06-16_10h30.33.936,phx_ver10,2022.2.5,Win32,60.14314067,space,25.7085,,,,,,,,,,,,,,,,,,,,,,,,,,,,,,,,,,,,,,,,,,,,,,,,,,
5d5320870c2a6a0001cc6c7a,2023-06-16_10h30.33.936,phx_ver10,2022.2.5,Win32,60.14314067,,,space,0.2243,,,,,,,,,,,,,,,,,,,,,,,,,,,,,,,,,,,,,,,,,,,,,,,,
5d5320870c2a6a0001cc6c7a,2023-06-16_10h30.33.936,phx_ver10,2022.2.5,Win32,60.14314067,,,,,space,3.1477,0,0,0,30,1,31,training,zh2x,e,zh2x_e,zh2x_7_exe.wav,,exe.jpg,,,,,,,,,,,,,,,,,,,,,,,,,,,,,,,,,
5d5320870c2a6a0001cc6c7a,2023-06-16_10h30.33.936,phx_ver10,2022.2.5,Win32,60.14314067,,,,,space,7.9472,0,1,1,10,1,11,training,zh2x,a,zh2x_a,zh2x_6_axa.wav,,axa.jpg,,,,,,,,,,,,,,,,,,,,,,,,,,,,,,,,,
5d5320870c2a6a0001cc6c7a,2023-06-16_10h30.33.936,phx_ver10,2022.2.5,Win32,60.14314067,,,,,space,4.2724,0,2,2,0,1,1,training,zh2x,a,zh2x_a,zh2x_1_azha.wav,,azha.jpg,,,,,,,,,,,,,,,,,,,,,,,,,,,,,,,,,
5d5320870c2a6a0001cc6c7a,2023-06-16_10h30.33.936,phx_ver10,2022.2.5,Win32,60.14314067,,,,,space,2.6002,0,3,3,32,1,33,training,zh2x,i,zh2x_i,zh2x_1_izhi.wav,,izhi.jpg,,,,,,,,,,,,,,,,,,,,,,,,,,,,,,,,,
5d5320870c2a6a0001cc6c7a,2023-06-16_10h30.33.936,phx_ver10,2022.2.5,Win32,60.14314067,,,,,space,1.1024,0,4,4,12,1,13,training,zh2x,a,zh2x_a,zh2x_7_axa.wav,,axa.jpg,,,,,,,,,,,,,,,,,,,,,,,,,,,,,,,,,
5d5320870c2a6a0001cc6c7a,2023-06-16_10h30.33.936,phx_ver10,2022.2.5,Win32,60.14314067,,,,,space,2.524,0,5,5,24,1,25,training,zh2x,e,zh2x_e,zh2x_5_exe.wav,,exe.jpg,,,,,,,,,,,,,,,,,,,,,,,,,,,,,,,,,
5d5320870c2a6a0001cc6c7a,2023-06-16_10h30.33.936,phx_ver10,2022.2.5,Win32,60.14314067,,,,,,,,,,,,,attn_test,,,,zh2x_1_azha.wav,zh2x_1_izhi.wav,izhi.jpg,RIGHT,,j,3.0015,space,4.8855,0,0,0,0,1,,,,,,,,,,,,,,,,,,,,,,
5d5320870c2a6a0001cc6c7a,2023-06-16_10h30.33.936,phx_ver10,2022.2.5,Win32,60.14314067,,,,,space,1.7582,0,6,6,40,1,41,training,zh2x,i,zh2x_i,zh2x_5_ixi.wav,,ixi.jpg,,,,,,,,,,,,,,,,,,,,,,,,,,,,,,,,,
5d5320870c2a6a0001cc6c7a,2023-06-16_10h30.33.936,phx_ver10,2022.2.5,Win32,60.14314067,,,,,space,0.7163,0,7,7,41,1,42,training,zh2x,i,zh2x_i,zh2x_6_ixi.wav,,ixi.jpg,,,,,,,,,,,,,,,,,,,,,,,,,,,,,,,,,
5d5320870c2a6a0001cc6c7a,2023-06-16_10h30.33.936,phx_ver10,2022.2.5,Win32,60.14314067,,,,,space,1.188,0,8,8,29,1,30,training,zh2x,e,zh2x_e,zh2x_7_exe.wav,,exe.jpg,,,,,,,,,,,,,,,,,,,,,,,,,,,,,,,,,
5d5320870c2a6a0001cc6c7a,2023-06-16_10h30.33.936,phx_ver10,2022.2.5,Win32,60.14314067,,,,,space,1.2003,0,9,9,3,1,4,training,zh2x,a,zh2x_a,zh2x_2_azha.wav,,azha.jpg,,,,,,,,,,,,,,,,,,,,,,,,,,,,,,,,,
5d5320870c2a6a0001cc6c7a,2023-06-16_10h30.33.936,phx_ver10,2022.2.5,Win32,60.14314067,,,,,space,0.9545,0,10,10,44,1,45,training,zh2x,i,zh2x_i,zh2x_7_ixi.wav,,ixi.jpg,,,,,,,,,,,,,,,,,,,,,,,,,,,,,,,,,
5d5320870c2a6a0001cc6c7a,2023-06-16_10h30.33.936,phx_ver10,2022.2.5,Win32,60.14314067,,,,,space,2.0843,0,11,11,16,1,17,training,zh2x,e,zh2x_e,zh2x_1_ezhe.wav,,ezhe.jpg,,,,,,,,,,,,,,,,,,,,,,,,,,,,,,,,,
5d5320870c2a6a0001cc6c7a,2023-06-16_10h30.33.936,phx_ver10,2022.2.5,Win32,60.14314067,,,,,,,,,,,,,attn_test,,,,zh2x_1_azha.wav,zh2x_1_izhi.wav,azha.jpg,LEFT,,f,3.1175,space,4.3744,0,0,0,0,1,,,,,,,,,,,,,,,,,,,,,,
5d5320870c2a6a0001cc6c7a,2023-06-16_10h30.33.936,phx_ver10,2022.2.5,Win32,60.14314067,,,,,space,0.8512,0,12,12,19,1,20,training,zh2x,e,zh2x_e,zh2x_2_ezhe.wav,,ezhe.jpg,,,,,,,,,,,,,,,,,,,,,,,,,,,,,,,,,
5d5320870c2a6a0001cc6c7a,2023-06-16_10h30.33.936,phx_ver10,2022.2.5,Win32,60.14314067,,,,,space,3.267,0,13,13,22,1,23,training,zh2x,e,zh2x_e,zh2x_3_ezhe.wav,,ezhe.jpg,,,,,,,,,,,,,,,,,,,,,,,,,,,,,,,,,
5d5320870c2a6a0001cc6c7a,2023-06-16_10h30.33.936,phx_ver10,2022.2.5,Win32,60.14314067,,,,,space,2.1004,0,14,14,33,1,34,training,zh2x,i,zh2x_i,zh2x_2_izhi.wav,,izhi.jpg,,,,,,,,,,,,,,,,,,,,,,,,,,,,,,,,,
5d5320870c2a6a0001cc6c7a,2023-06-16_10h30.33.936,phx_ver10,2022.2.5,Win32,60.14314067,,,,,space,1.7421,0,15,15,11,1,12,training,zh2x,a,zh2x_a,zh2x_7_axa.wav,,axa.jpg,,,,,,,,,,,,,,,,,,,,,,,,,,,,,,,,,
5d5320870c2a6a0001cc6c7a,2023-06-16_10h30.33.936,phx_ver10,2022.2.5,Win32,60.14314067,,,,,space,0.8159,0,16,16,23,1,24,training,zh2x,e,zh2x_e,zh2x_4_ezhe.wav,,ezhe.jpg,,,,,,,,,,,,,,,,,,,,,,,,,,,,,,,,,
5d5320870c2a6a0001cc6c7a,2023-06-16_10h30.33.936,phx_ver10,2022.2.5,Win32,60.14314067,,,,,space,0.8509,0,17,17,2,1,3,training,zh2x,a,zh2x_a,zh2x_2_azha.wav,,azha.jpg,,,,,,,,,,,,,,,,,,,,,,,,,,,,,,,,,
5d5320870c2a6a0001cc6c7a,2023-06-16_10h30.33.936,phx_ver10,2022.2.5,Win32,60.14314067,,,,,,,,,,,,,attn_test,,,,zh2x_1_izhi.wav,zh2x_1_ezhe.wav,ezhe.jpg,RIGHT,,j,0.6853,space,1.4649,0,0,0,0,1,,,,,,,,,,,,,,,,,,,,,,
5d5320870c2a6a0001cc6c7a,2023-06-16_10h30.33.936,phx_ver10,2022.2.5,Win32,60.14314067,,,,,space,0.8019,0,18,18,35,1,36,training,zh2x,i,zh2x_i,zh2x_2_izhi.wav,,izhi.jpg,,,,,,,,,,,,,,,,,,,,,,,,,,,,,,,,,
5d5320870c2a6a0001cc6c7a,2023-06-16_10h30.33.936,phx_ver10,2022.2.5,Win32,60.14314067,,,,,space,0.5863,0,19,19,20,1,21,training,zh2x,e,zh2x_e,zh2x_2_ezhe.wav,,ezhe.jpg,,,,,,,,,,,,,,,,,,,,,,,,,,,,,,,,,
5d5320870c2a6a0001cc6c7a,2023-06-16_10h30.33.936,phx_ver10,2022.2.5,Win32,60.14314067,,,,,space,0.7185,0,20,20,34,1,35,training,zh2x,i,zh2x_i,zh2x_2_izhi.wav,,izhi.jpg,,,,,,,,,,,,,,,,,,,,,,,,,,,,,,,,,
5d5320870c2a6a0001cc6c7a,2023-06-16_10h30.33.936,phx_ver10,2022.2.5,Win32,60.14314067,,,,,space,0.8087,0,21,21,31,1,32,training,zh2x,e,zh2x_e,zh2x_8_exe.wav,,exe.jpg,,,,,,,,,,,,,,,,,,,,,,,,,,,,,,,,,
5d5320870c2a6a0001cc6c7a,2023-06-16_10h30.33.936,phx_ver10,2022.2.5,Win32,60.14314067,,,,,space,0.4734,0,22,22,36,1,37,training,zh2x,i,zh2x_i,zh2x_2_izhi.wav,,izhi.jpg,,,,,,,,,,,,,,,,,,,,,,,,,,,,,,,,,
5d5320870c2a6a0001cc6c7a,2023-06-16_10h30.33.936,phx_ver10,2022.2.5,Win32,60.14314067,,,,,space,0.2866,0,23,23,5,1,6,training,zh2x,a,zh2x_a,zh2x_3_azha.wav,,azha.jpg,,,,,,,,,,,,,,,,,,,,,,,,,,,,,,,,,
5d5320870c2a6a0001cc6c7a,2023-06-16_10h30.33.936,phx_ver10,2022.2.5,Win32,60.14314067,,,,,,,,,,,,,attn_test,,,,zh2x_1_azha.wav,zh2x_8_exe.wav,exe.jpg,RIGHT,,j,0.0013,space,1.1176,0,0,0,0,1,,,,,,,,,,,,,,,,,,,,,,
5d5320870c2a6a0001cc6c7a,2023-06-16_10h30.33.936,phx_ver10,2022.2.5,Win32,60.14314067,,,,,space,0.405,0,24,24,28,1,29,training,zh2x,e,zh2x_e,zh2x_7_exe.wav,,exe.jpg,,,,,,,,,,,,,,,,,,,,,,,,,,,,,,,,,
5d5320870c2a6a0001cc6c7a,2023-06-16_10h30.33.936,phx_ver10,2022.2.5,Win32,60.14314067,,,,,space,1.3518,0,25,25,18,1,19,training,zh2x,e,zh2x_e,zh2x_2_ezhe.wav,,ezhe.jpg,,,,,,,,,,,,,,,,,,,,,,,,,,,,,,,,,
5d5320870c2a6a0001cc6c7a,2023-06-16_10h30.33.936,phx_ver10,2022.2.5,Win32,60.14314067,,,,,space,0.7585,0,26,26,21,1,22,training,zh2x,e,zh2x_e,zh2x_3_ezhe.wav,,ezhe.jpg,,,,,,,,,,,,,,,,,,,,,,,,,,,,,,,,,
5d5320870c2a6a0001cc6c7a,2023-06-16_10h30.33.936,phx_ver10,2022.2.5,Win32,60.14314067,,,,,space,0.8847,0,27,27,7,1,8,training,zh2x,a,zh2x_a,zh2x_4_azha.wav,,azha.jpg,,,,,,,,,,,,,,,,,,,,,,,,,,,,,,,,,
5d5320870c2a6a0001cc6c7a,2023-06-16_10h30.33.936,phx_ver10,2022.2.5,Win32,60.14314067,,,,,space,0.6518,0,28,28,27,1,28,training,zh2x,e,zh2x_e,zh2x_7_exe.wav,,exe.jpg,,,,,,,,,,,,,,,,,,,,,,,,,,,,,,,,,
5d5320870c2a6a0001cc6c7a,2023-06-16_10h30.33.936,phx_ver10,2022.2.5,Win32,60.14314067,,,,,space,0.9849,0,29,29,47,1,48,training,zh2x,i,zh2x_i,zh2x_8_ixi.wav,,ixi.jpg,,,,,,,,,,,,,,,,,,,,,,,,,,,,,,,,,
5d5320870c2a6a0001cc6c7a,2023-06-16_10h30.33.936,phx_ver10,2022.2.5,Win32,60.14314067,,,,,,,,,,,,,attn_test,,,,zh2x_8_exe.wav,zh2x_8_ixi.wav,ixi.jpg,RIGHT,,j,0.066,space,0.917,0,0,0,0,1,,,,,,,,,,,,,,,,,,,,,,
5d5320870c2a6a0001cc6c7a,2023-06-16_10h30.33.936,phx_ver10,2022.2.5,Win32,60.14314067,,,,,space,1.2997,0,30,30,8,1,9,training,zh2x,a,zh2x_a,zh2x_5_axa.wav,,axa.jpg,,,,,,,,,,,,,,,,,,,,,,,,,,,,,,,,,
5d5320870c2a6a0001cc6c7a,2023-06-16_10h30.33.936,phx_ver10,2022.2.5,Win32,60.14314067,,,,,space,0.2339,0,31,31,38,1,39,training,zh2x,i,zh2x_i,zh2x_3_izhi.wav,,izhi.jpg,,,,,,,,,,,,,,,,,,,,,,,,,,,,,,,,,
5d5320870c2a6a0001cc6c7a,2023-06-16_10h30.33.936,phx_ver10,2022.2.5,Win32,60.14314067,,,,,space,1.0337,0,32,32,9,1,10,training,zh2x,a,zh2x_a,zh2x_6_axa.wav,,axa.jpg,,,,,,,,,,,,,,,,,,,,,,,,,,,,,,,,,
5d5320870c2a6a0001cc6c7a,2023-06-16_10h30.33.936,phx_ver10,2022.2.5,Win32,60.14314067,,,,,space,1.2516,0,33,33,4,1,5,training,zh2x,a,zh2x_a,zh2x_2_azha.wav,,azha.jpg,,,,,,,,,,,,,,,,,,,,,,,,,,,,,,,,,
5d5320870c2a6a0001cc6c7a,2023-06-16_10h30.33.936,phx_ver10,2022.2.5,Win32,60.14314067,,,,,space,0.8922,0,34,34,13,1,14,training,zh2x,a,zh2x_a,zh2x_7_axa.wav,,axa.jpg,,,,,,,,,,,,,,,,,,,,,,,,,,,,,,,,,
5d5320870c2a6a0001cc6c7a,2023-06-16_10h30.33.936,phx_ver10,2022.2.5,Win32,60.14314067,,,,,space,0.6343,0,35,35,26,1,27,training,zh2x,e,zh2x_e,zh2x_6_exe.wav,,exe.jpg,,,,,,,,,,,,,,,,,,,,,,,,,,,,,,,,,
5d5320870c2a6a0001cc6c7a,2023-06-16_10h30.33.936,phx_ver10,2022.2.5,Win32,60.14314067,,,,,,,,,,,,,attn_test,,,,zh2x_1_azha.wav,zh2x_1_izhi.wav,azha.jpg,LEFT,,f,0.8322,space,1.8652,0,0,0,0,1,,,,,,,,,,,,,,,,,,,,,,
5d5320870c2a6a0001cc6c7a,2023-06-16_10h30.33.936,phx_ver10,2022.2.5,Win32,60.14314067,,,,,space,0.4286,0,36,36,25,1,26,training,zh2x,e,zh2x_e,zh2x_6_exe.wav,,exe.jpg,,,,,,,,,,,,,,,,,,,,,,,,,,,,,,,,,
5d5320870c2a6a0001cc6c7a,2023-06-16_10h30.33.936,phx_ver10,2022.2.5,Win32,60.14314067,,,,,space,0.787,0,37,37,14,1,15,training,zh2x,a,zh2x_a,zh2x_7_axa.wav,,axa.jpg,,,,,,,,,,,,,,,,,,,,,,,,,,,,,,,,,
5d5320870c2a6a0001cc6c7a,2023-06-16_10h30.33.936,phx_ver10,2022.2.5,Win32,60.14314067,,,,,space,0.8273,0,38,38,42,1,43,training,zh2x,i,zh2x_i,zh2x_6_ixi.wav,,ixi.jpg,,,,,,,,,,,,,,,,,,,,,,,,,,,,,,,,,
5d5320870c2a6a0001cc6c7a,2023-06-16_10h30.33.936,phx_ver10,2022.2.5,Win32,60.14314067,,,,,space,0.3847,0,39,39,6,1,7,training,zh2x,a,zh2x_a,zh2x_3_azha.wav,,azha.jpg,,,,,,,,,,,,,,,,,,,,,,,,,,,,,,,,,
5d5320870c2a6a0001cc6c7a,2023-06-16_10h30.33.936,phx_ver10,2022.2.5,Win32,60.14314067,,,,,space,0.2429,0,40,40,43,1,44,training,zh2x,i,zh2x_i,zh2x_7_ixi.wav,,ixi.jpg,,,,,,,,,,,,,,,,,,,,,,,,,,,,,,,,,
5d5320870c2a6a0001cc6c7a,2023-06-16_10h30.33.936,phx_ver10,2022.2.5,Win32,60.14314067,,,,,space,0.6675,0,41,41,45,1,46,training,zh2x,i,zh2x_i,zh2x_7_ixi.wav,,ixi.jpg,,,,,,,,,,,,,,,,,,,,,,,,,,,,,,,,,
5d5320870c2a6a0001cc6c7a,2023-06-16_10h30.33.936,phx_ver10,2022.2.5,Win32,60.14314067,,,,,,,,,,,,,attn_test,,,,zh2x_1_azha.wav,zh2x_8_exe.wav,exe.jpg,RIGHT,,j,0.4943,space,2.2683,0,0,0,0,1,,,,,,,,,,,,,,,,,,,,,,
5d5320870c2a6a0001cc6c7a,2023-06-16_10h30.33.936,phx_ver10,2022.2.5,Win32,60.14314067,,,,,space,0.5834,0,42,42,1,1,2,training,zh2x,a,zh2x_a,zh2x_2_azha.wav,,azha.jpg,,,,,,,,,,,,,,,,,,,,,,,,,,,,,,,,,
5d5320870c2a6a0001cc6c7a,2023-06-16_10h30.33.936,phx_ver10,2022.2.5,Win32,60.14314067,,,,,space,0.689,0,43,43,15,1,16,training,zh2x,a,zh2x_a,zh2x_8_axa.wav,,axa.jpg,,,,,,,,,,,,,,,,,,,,,,,,,,,,,,,,,
5d5320870c2a6a0001cc6c7a,2023-06-16_10h30.33.936,phx_ver10,2022.2.5,Win32,60.14314067,,,,,space,1.0026,0,44,44,46,1,47,training,zh2x,i,zh2x_i,zh2x_7_ixi.wav,,ixi.jpg,,,,,,,,,,,,,,,,,,,,,,,,,,,,,,,,,
5d5320870c2a6a0001cc6c7a,2023-06-16_10h30.33.936,phx_ver10,2022.2.5,Win32,60.14314067,,,,,space,1.9058,0,45,45,39,1,40,training,zh2x,i,zh2x_i,zh2x_4_izhi.wav,,izhi.jpg,,,,,,,,,,,,,,,,,,,,,,,,,,,,,,,,,
5d5320870c2a6a0001cc6c7a,2023-06-16_10h30.33.936,phx_ver10,2022.2.5,Win32,60.14314067,,,,,space,1.1173,0,46,46,17,1,18,training,zh2x,e,zh2x_e,zh2x_2_ezhe.wav,,ezhe.jpg,,,,,,,,,,,,,,,,,,,,,,,,,,,,,,,,,
5d5320870c2a6a0001cc6c7a,2023-06-16_10h30.33.936,phx_ver10,2022.2.5,Win32,60.14314067,,,,,space,0.0041,0,47,47,37,1,38,training,zh2x,i,zh2x_i,zh2x_3_izhi.wav,,izhi.jpg,,,,,,,,,,,,,,,,,,,,,,,,,,,,,,,,,
5d5320870c2a6a0001cc6c7a,2023-06-16_10h30.33.936,phx_ver10,2022.2.5,Win32,60.14314067,,,,,,,,,,,,,attn_test,,,,zh2x_8_exe.wav,zh2x_8_ixi.wav,ixi.jpg,RIGHT,,j,0.3173,space,1.4544,,,,,,,,,,,,,,,,,,,,,,,,,,,
5d5320870c2a6a0001cc6c7a,2023-06-16_10h30.33.936,phx_ver10,2022.2.5,Win32,60.14314067,,,,,,,,,,,,,,,,,,,,,,,,,,,,,,,space,1.7341,,,,,,,,,,,,,,,,,,,,
5d5320870c2a6a0001cc6c7a,2023-06-16_10h30.33.936,phx_ver10,2022.2.5,Win32,60.14314067,,,,,,,,,,,,,,,,,,,,,,,,,,,,,,,,,space,6.5738,,,,,,,,,,,,,,,,,,
5d5320870c2a6a0001cc6c7a,2023-06-16_10h30.33.936,phx_ver10,2022.2.5,Win32,60.14314067,,,,,,,,,,,,4,testing_pre,,,,eihei.wav,eihei.wav,,TRUE,,,,,,,,,,,,,,,f,5.7662,space,6.9107,0,0,0,3,1,,,,,,,,,
5d5320870c2a6a0001cc6c7a,2023-06-16_10h30.33.936,phx_ver10,2022.2.5,Win32,60.14314067,,,,,,,,,,,,3,testing_pre,,,,afa.wav,aha.wav,,FALSE,,,,,,,,,,,,,,,j,0.337,space,1.9644,0,1,1,2,1,,,,,,,,,
5d5320870c2a6a0001cc6c7a,2023-06-16_10h30.33.936,phx_ver10,2022.2.5,Win32,60.14314067,,,,,,,,,,,,5,testing_pre,,,,ihi.wav,ifi.wav,,FALSE,,,,,,,,,,,,,,,j,0.486,space,1.7843,0,2,2,4,1,,,,,,,,,
5d5320870c2a6a0001cc6c7a,2023-06-16_10h30.33.936,phx_ver10,2022.2.5,Win32,60.14314067,,,,,,,,,,,,2,testing_pre,,,,auhau.wav,aufau.wav,,FALSE,,,,,,,,,,,,,,,j,0.9427,space,1.7506,0,3,3,1,1,,,,,,,,,
5d5320870c2a6a0001cc6c7a,2023-06-16_10h30.33.936,phx_ver10,2022.2.5,Win32,60.14314067,,,,,,,,,,,,1,testing_pre,,,,ifi.wav,ifi.wav,,TRUE,,,,,,,,,,,,,,,f,0.4083,space,1.3529,0,4,4,0,1,,,,,,,,,
5d5320870c2a6a0001cc6c7a,2023-06-16_10h30.33.936,phx_ver10,2022.2.5,Win32,60.14314067,,,,,,,,,,,,,,,,,,,,,,,,,,,,,,,,,,,,,,,,,,,,space,3.4384,,,,,,,
5d5320870c2a6a0001cc6c7a,2023-06-16_10h30.33.936,phx_ver10,2022.2.5,Win32,60.14314067,,,,,,,,,,,,106,testing_3,sh2x,au,sh2x_au,sh2x_8_auxau.wav,sh2x_8_auxau.wav,,TRUE,FALSE,,,,,,,,,,,,,,f,0.7389,space,1.885,,,,,,,,0,0,0,105,1,,
5d5320870c2a6a0001cc6c7a,2023-06-16_10h30.33.936,phx_ver10,2022.2.5,Win32,60.14314067,,,,,,,,,,,,23,testing_2,zh2x,ei,zh2x_ei,zh2x_1_eizhei.wav,zh2x_8_eixei.wav,,FALSE,FALSE,,,,,,,,,,,,,,j,0.5652,space,1.6305,,,,,,,,0,1,1,22,1,,
5d5320870c2a6a0001cc6c7a,2023-06-16_10h30.33.936,phx_ver10,2022.2.5,Win32,60.14314067,,,,,,,,,,,,110,testing_3,sh2x,e,sh2x_e,sh2x_8_exe.wav,sh2x_8_exe.wav,,TRUE,FALSE,,,,,,,,,,,,,,f,0.2035,space,0.9521,,,,,,,,0,2,2,109,1,,
5d5320870c2a6a0001cc6c7a,2023-06-16_10h30.33.936,phx_ver10,2022.2.5,Win32,60.14314067,,,,,,,,,,,,81,testing_3,j2x,au,j2x_au,j2x_1_aujau.wav,j2x_1_aujau.wav,,TRUE,FALSE,,,,,,,,,,,,,,f,0.2005,space,0.7347,,,,,,,,0,3,3,80,1,,
5d5320870c2a6a0001cc6c7a,2023-06-16_10h30.33.936,phx_ver10,2022.2.5,Win32,60.14314067,,,,,,,,,,,,65,testing_3,zh2j,ei,zh2j_ei,zh2j_1_eizhei.wav,zh2j_1_eizhei.wav,,TRUE,FALSE,,,,,,,,,,,,,,f,0.2106,space,0.8535,,,,,,,,0,4,4,64,1,,
5d5320870c2a6a0001cc6c7a,2023-06-16_10h30.33.936,phx_ver10,2022.2.5,Win32,60.14314067,,,,,,,,,,,,140,testing_3,sh2j,ei,sh2j_ei,sh2j_8_eijei.wav,sh2j_1_eishei.wav,,FALSE,FALSE,,,,,,,,,,,,,,j,0.8214,space,1.3514,,,,,,,,0,5,5,139,1,,
5d5320870c2a6a0001cc6c7a,2023-06-16_10h30.33.936,phx_ver10,2022.2.5,Win32,60.14314067,,,,,,,,,,,,17,testing_2,zh2x,au,zh2x_au,zh2x_1_auzhau.wav,zh2x_1_auzhau.wav,,TRUE,FALSE,,,,,,,,,,,,,,f,1.1178,space,1.7272,,,,,,,,0,6,6,16,1,,
5d5320870c2a6a0001cc6c7a,2023-06-16_10h30.33.936,phx_ver10,2022.2.5,Win32,60.14314067,,,,,,,,,,,,59,testing_3,zh2j,au,zh2j_au,zh2j_1_auzhau.wav,zh2j_8_aujau.wav,,FALSE,FALSE,,,,,,,,,,,,,,f,0.7241,space,1.2401,,,,,,,,0,7,7,58,1,,
5d5320870c2a6a0001cc6c7a,2023-06-16_10h30.33.936,phx_ver10,2022.2.5,Win32,60.14314067,,,,,,,,,,,,72,testing_3,zh2j,i,zh2j_i,zh2j_8_iji.wav,zh2j_1_izhi.wav,,FALSE,FALSE,,,,,,,,,,,,,,f,0.7477,space,1.3643,,,,,,,,0,8,8,71,1,,
5d5320870c2a6a0001cc6c7a,2023-06-16_10h30.33.936,phx_ver10,2022.2.5,Win32,60.14314067,,,,,,,,,,,,29,testing_3,zh2sh,ai,zh2sh_ai,zh2sh_1_aizhai.wav,zh2sh_1_aizhai.wav,,TRUE,FALSE,,,,,,,,,,,,,,f,0.208,space,1.0995,,,,,,,,0,9,9,28,1,,
5d5320870c2a6a0001cc6c7a,2023-06-16_10h30.33.936,phx_ver10,2022.2.5,Win32,60.14314067,,,,,,,,,,,,70,testing_3,zh2j,i,zh2j_i,zh2j_8_iji.wav,zh2j_8_iji.wav,,TRUE,FALSE,,,,,,,,,,,,,,f,1.0991,space,1.6505,,,,,,,,0,10,10,69,1,,
5d5320870c2a6a0001cc6c7a,2023-06-16_10h30.33.936,phx_ver10,2022.2.5,Win32,60.14314067,,,,,,,,,,,,109,testing_3,sh2x,e,sh2x_e,sh2x_1_eshe.wav,sh2x_1_eshe.wav,,TRUE,FALSE,,,,,,,,,,,,,,f,0.1176,space,0.6746,,,,,,,,0,11,11,108,1,,
5d5320870c2a6a0001cc6c7a,2023-06-16_10h30.33.936,phx_ver10,2022.2.5,Win32,60.14314067,,,,,,,,,,,,75,testing_3,j2x,a,j2x_a,j2x_1_aja.wav,j2x_8_axa.wav,,FALSE,FALSE,,,,,,,,,,,,,,j,0.054,space,0.5897,,,,,,,,0,12,12,74,1,,
5d5320870c2a6a0001cc6c7a,2023-06-16_10h30.33.936,phx_ver10,2022.2.5,Win32,60.14314067,,,,,,,,,,,,134,testing_3,sh2j,e,sh2j_e,sh2j_8_eje.wav,sh2j_8_eje.wav,,TRUE,FALSE,,,,,,,,,,,,,,f,0.3991,space,1.1677,,,,,,,,0,13,13,133,1,,
5d5320870c2a6a0001cc6c7a,2023-06-16_10h30.33.936,phx_ver10,2022.2.5,Win32,60.14314067,,,,,,,,,,,,63,testing_3,zh2j,e,zh2j_e,zh2j_1_ezhe.wav,zh2j_8_eje.wav,,FALSE,FALSE,,,,,,,,,,,,,,f,1.4519,space,2.1695,,,,,,,,0,14,14,62,1,,
5d5320870c2a6a0001cc6c7a,2023-06-16_10h30.33.936,phx_ver10,2022.2.5,Win32,60.14314067,,,,,,,,,,,,138,testing_3,sh2j,ei,sh2j_ei,sh2j_8_eijei.wav,sh2j_8_eijei.wav,,TRUE,FALSE,,,,,,,,,,,,,,f,0.1175,space,0.6345,,,,,,,,0,15,15,137,1,,
5d5320870c2a6a0001cc6c7a,2023-06-16_10h30.33.936,phx_ver10,2022.2.5,Win32,60.14314067,,,,,,,,,,,,99,testing_3,sh2x,a,sh2x_a,sh2x_1_asha.wav,sh2x_8_axa.wav,,FALSE,FALSE,,,,,,,,,,,,,,j,0.7005,space,1.0739,,,,,,,,0,16,16,98,1,,
5d5320870c2a6a0001cc6c7a,2023-06-16_10h30.33.936,phx_ver10,2022.2.5,Win32,60.14314067,,,,,,,,,,,,30,testing_3,zh2sh,ai,zh2sh_ai,zh2sh_8_aishai.wav,zh2sh_8_aishai.wav,,TRUE,FALSE,,,,,,,,,,,,,,f,0.1513,space,0.5301,,,,,,,,0,17,17,29,1,,
5d5320870c2a6a0001cc6c7a,2023-06-16_10h30.33.936,phx_ver10,2022.2.5,Win32,60.14314067,,,,,,,,,,,,66,testing_3,zh2j,ei,zh2j_ei,zh2j_8_eijei.wav,zh2j_8_eijei.wav,,TRUE,FALSE,,,,,,,,,,,,,,f,0.0008,space,0.5012,,,,,,,,0,18,18,65,1,,
5d5320870c2a6a0001cc6c7a,2023-06-16_10h30.33.936,phx_ver10,2022.2.5,Win32,60.14314067,,,,,,,,,,,,21,testing_2,zh2x,ei,zh2x_ei,zh2x_1_eizhei.wav,zh2x_1_eizhei.wav,,TRUE,FALSE,,,,,,,,,,,,,,f,0.1054,space,0.5849,,,,,,,,0,19,19,20,1,,
5d5320870c2a6a0001cc6c7a,2023-06-16_10h30.33.936,phx_ver10,2022.2.5,Win32,60.14314067,,,,,,,,,,,,69,testing_3,zh2j,i,zh2j_i,zh2j_1_izhi.wav,zh2j_1_izhi.wav,,TRUE,FALSE,,,,,,,,,,,,,,f,0.6842,space,1.0377,,,,,,,,0,20,20,68,1,,
5d5320870c2a6a0001cc6c7a,2023-06-16_10h30.33.936,phx_ver10,2022.2.5,Win32,60.14314067,,,,,,,,,,,,113,testing_3,sh2x,ei,sh2x_ei,sh2x_1_eishei.wav,sh2x_1_eishei.wav,,TRUE,FALSE,,,,,,,,,,,,,,f,0.5852,space,1.0502,,,,,,,,0,21,21,112,1,,
5d5320870c2a6a0001cc6c7a,2023-06-16_10h30.33.936,phx_ver10,2022.2.5,Win32,60.14314067,,,,,,,,,,,,51,testing_3,zh2j,a,zh2j_a,zh2j_1_azha.wav,zh2j_8_aja.wav,,FALSE,FALSE,,,,,,,,,,,,,,f,0.7006,space,1.1002,,,,,,,,0,22,22,50,1,,
5d5320870c2a6a0001cc6c7a,2023-06-16_10h30.33.936,phx_ver10,2022.2.5,Win32,60.14314067,,,,,,,,,,,,42,testing_3,zh2sh,ei,zh2sh_ei,zh2sh_8_eishei.wav,zh2sh_8_eishei.wav,,TRUE,FALSE,,,,,,,,,,,,,,f,0.593,space,0.9707,,,,,,,,0,23,23,41,1,,
5d5320870c2a6a0001cc6c7a,2023-06-16_10h30.33.936,phx_ver10,2022.2.5,Win32,60.14314067,,,,,,,,,,,,24,testing_2,zh2x,ei,zh2x_ei,zh2x_8_eixei.wav,zh2x_1_eizhei.wav,,FALSE,FALSE,,,,,,,,,,,,,,j,0.5098,space,0.9346,,,,,,,,0,24,24,23,1,,
5d5320870c2a6a0001cc6c7a,2023-06-16_10h30.33.936,phx_ver10,2022.2.5,Win32,60.14314067,,,,,,,,,,,,84,testing_3,j2x,au,j2x_au,j2x_8_auxau.wav,j2x_1_aujau.wav,,FALSE,FALSE,,,,,,,,,,,,,,j,1.2709,space,1.8181,,,,,,,,0,25,25,83,1,,
5d5320870c2a6a0001cc6c7a,2023-06-16_10h30.33.936,phx_ver10,2022.2.5,Win32,60.14314067,,,,,,,,,,,,76,testing_3,j2x,a,j2x_a,j2x_8_axa.wav,j2x_1_aja.wav,,FALSE,FALSE,,,,,,,,,,,,,,f,1.8344,space,2.3994,,,,,,,,0,26,26,75,1,,
5d5320870c2a6a0001cc6c7a,2023-06-16_10h30.33.936,phx_ver10,2022.2.5,Win32,60.14314067,,,,,,,,,,,,89,testing_3,j2x,ei,j2x_ei,j2x_1_eijei.wav,j2x_1_eijei.wav,,TRUE,FALSE,,,,,,,,,,,,,,f,0.6858,space,1.1529,,,,,,,,0,27,27,88,1,,
5d5320870c2a6a0001cc6c7a,2023-06-16_10h30.33.936,phx_ver10,2022.2.5,Win32,60.14314067,,,,,,,,,,,,125,testing_3,sh2j,ai,sh2j_ai,sh2j_1_aishai.wav,sh2j_1_aishai.wav,,TRUE,FALSE,,,,,,,,,,,,,,f,0.5183,space,0.8846,,,,,,,,0,28,28,124,1,,
5d5320870c2a6a0001cc6c7a,2023-06-16_10h30.33.936,phx_ver10,2022.2.5,Win32,60.14314067,,,,,,,,,,,,92,testing_3,j2x,ei,j2x_ei,j2x_8_eixei.wav,j2x_1_eijei.wav,,FALSE,FALSE,,,,,,,,,,,,,,j,0.449,space,0.8246,,,,,,,,0,29,29,91,1,,
5d5320870c2a6a0001cc6c7a,2023-06-16_10h30.33.936,phx_ver10,2022.2.5,Win32,60.14314067,,,,,,,,,,,,3,testing_1,zh2x,a,zh2x_a,zh2x_1_azha.wav,zh2x_8_axa.wav,,FALSE,TRUE,,,,,,,,,,,,,,j,0.4171,space,0.8346,,,,,,,,0,30,30,2,1,,
5d5320870c2a6a0001cc6c7a,2023-06-16_10h30.33.936,phx_ver10,2022.2.5,Win32,60.14314067,,,,,,,,,,,,39,testing_3,zh2sh,e,zh2sh_e,zh2sh_1_ezhe.wav,zh2sh_8_eshe.wav,,FALSE,FALSE,,,,,,,,,,,,,,j,0.1575,space,0.609,,,,,,,,0,31,31,38,1,,
5d5320870c2a6a0001cc6c7a,2023-06-16_10h30.33.936,phx_ver10,2022.2.5,Win32,60.14314067,,,,,,,,,,,,6,testing_1,zh2x,e,zh2x_e,zh2x_8_exe.wav,zh2x_8_exe_copy.wav,,TRUE,TRUE,,,,,,,,,,,,,,f,0.4338,space,0.8013,,,,,,,,0,32,32,5,1,,
5d5320870c2a6a0001cc6c7a,2023-06-16_10h30.33.936,phx_ver10,2022.2.5,Win32,60.14314067,,,,,,,,,,,,137,testing_3,sh2j,ei,sh2j_ei,sh2j_1_eishei.wav,sh2j_1_eishei.wav,,TRUE,FALSE,,,,,,,,,,,,,,f,0.4209,space,0.8179,,,,,,,,0,33,33,136,1,,
5d5320870c2a6a0001cc6c7a,2023-06-16_10h30.33.936,phx_ver10,2022.2.5,Win32,60.14314067,,,,,,,,,,,,50,testing_3,zh2j,a,zh2j_a,zh2j_8_aja.wav,zh2j_8_aja.wav,,TRUE,FALSE,,,,,,,,,,,,,,f,0.1552,space,0.6041,,,,,,,,0,34,34,49,1,,
5d5320870c2a6a0001cc6c7a,2023-06-16_10h30.33.936,phx_ver10,2022.2.5,Win32,60.14314067,,,,,,,,,,,,101,testing_3,sh2x,ai,sh2x_ai,sh2x_1_aishai.wav,sh2x_1_aishai.wav,,TRUE,FALSE,,,,,,,,,,,,,,f,0.0841,space,0.5512,,,,,,,,0,35,35,100,1,,
5d5320870c2a6a0001cc6c7a,2023-06-16_10h30.33.936,phx_ver10,2022.2.5,Win32,60.14314067,,,,,,,,,,,,26,testing_3,zh2sh,a,zh2sh_a,zh2sh_8_asha.wav,zh2sh_8_asha.wav,,TRUE,FALSE,,,,,,,,,,,,,,f,0.1956,space,0.645,,,,,,,,0,36,36,25,1,,
5d5320870c2a6a0001cc6c7a,2023-06-16_10h30.33.936,phx_ver10,2022.2.5,Win32,60.14314067,,,,,,,,,,,,8,testing_1,zh2x,e,zh2x_e,zh2x_8_exe.wav,zh2x_1_ezhe.wav,,FALSE,TRUE,,,,,,,,,,,,,,j,0.3342,space,0.7004,,,,,,,,0,37,37,7,1,,
5d5320870c2a6a0001cc6c7a,2023-06-16_10h30.33.936,phx_ver10,2022.2.5,Win32,60.14314067,,,,,,,,,,,,68,testing_3,zh2j,ei,zh2j_ei,zh2j_8_eijei.wav,zh2j_1_eizhei.wav,,FALSE,FALSE,,,,,,,,,,,,,,f,0.4897,space,0.8852,,,,,,,,0,38,38,67,1,,
5d5320870c2a6a0001cc6c7a,2023-06-16_10h30.33.936,phx_ver10,2022.2.5,Win32,60.14314067,,,,,,,,,,,,11,testing_1,zh2x,i,zh2x_i,zh2x_1_izhi.wav,zh2x_8_ixi.wav,,FALSE,TRUE,,,,,,,,,,,,,,j,0.6228,space,1.0676,,,,,,,,0,39,39,10,1,,
5d5320870c2a6a0001cc6c7a,2023-06-16_10h30.33.936,phx_ver10,2022.2.5,Win32,60.14314067,,,,,,,,,,,,19,testing_2,zh2x,au,zh2x_au,zh2x_1_auzhau.wav,zh2x_8_auxau.wav,,FALSE,FALSE,,,,,,,,,,,,,,j,0.4922,space,0.9361,,,,,,,,0,40,40,18,1,,
5d5320870c2a6a0001cc6c7a,2023-06-16_10h30.33.936,phx_ver10,2022.2.5,Win32,60.14314067,,,,,,,,,,,,15,testing_2,zh2x,ai,zh2x_ai,zh2x_1_aizhai.wav,zh2x_8_aixai.wav,,FALSE,FALSE,,,,,,,,,,,,,,j,0.4228,space,0.7663,,,,,,,,0,41,41,14,1,,
5d5320870c2a6a0001cc6c7a,2023-06-16_10h30.33.936,phx_ver10,2022.2.5,Win32,60.14314067,,,,,,,,,,,,94,testing_3,j2x,i,j2x_i,j2x_8_ixi.wav,j2x_8_ixi.wav,,TRUE,FALSE,,,,,,,,,,,,,,f,0.2009,space,0.6054,,,,,,,,0,42,42,93,1,,
5d5320870c2a6a0001cc6c7a,2023-06-16_10h30.33.936,phx_ver10,2022.2.5,Win32,60.14314067,,,,,,,,,,,,121,testing_3,sh2j,a,sh2j_a,sh2j_1_asha.wav,sh2j_1_asha.wav,,TRUE,FALSE,,,,,,,,,,,,,,f,0.0515,space,0.4182,,,,,,,,0,43,43,120,1,,
5d5320870c2a6a0001cc6c7a,2023-06-16_10h30.33.936,phx_ver10,2022.2.5,Win32,60.14314067,,,,,,,,,,,,5,testing_1,zh2x,e,zh2x_e,zh2x_1_ezhe.wav,zh2x_1_ezhe_copy.wav,,TRUE,TRUE,,,,,,,,,,,,,,f,0.5504,space,0.8998,,,,,,,,0,44,44,4,1,,
5d5320870c2a6a0001cc6c7a,2023-06-16_10h30.33.936,phx_ver10,2022.2.5,Win32,60.14314067,,,,,,,,,,,,139,testing_3,sh2j,ei,sh2j_ei,sh2j_1_eishei.wav,sh2j_8_eijei.wav,,FALSE,FALSE,,,,,,,,,,,,,,j,0.1353,space,0.5727,,,,,,,,0,45,45,138,1,,
5d5320870c2a6a0001cc6c7a,2023-06-16_10h30.33.936,phx_ver10,2022.2.5,Win32,60.14314067,,,,,,,,,,,,56,testing_3,zh2j,ai,zh2j_ai,zh2j_8_aijai.wav,zh2j_1_aizhai.wav,,FALSE,FALSE,,,,,,,,,,,,,,f,0.2355,space,0.6029,,,,,,,,0,46,46,55,1,,
5d5320870c2a6a0001cc6c7a,2023-06-16_10h30.33.936,phx_ver10,2022.2.5,Win32,60.14314067,,,,,,,,,,,,32,testing_3,zh2sh,ai,zh2sh_ai,zh2sh_8_aishai.wav,zh2sh_1_aizhai.wav,,FALSE,FALSE,,,,,,,,,,,,,,j,0.0861,space,0.5178,,,,,,,,0,47,47,31,1,,
5d5320870c2a6a0001cc6c7a,2023-06-16_10h30.33.936,phx_ver10,2022.2.5,Win32,60.14314067,,,,,,,,,,,,115,testing_3,sh2x,ei,sh2x_ei,sh2x_1_eishei.wav,sh2x_8_eixei.wav,,FALSE,FALSE,,,,,,,,,,,,,,f,0.853,space,1.1859,,,,,,,,0,48,48,114,1,,
5d5320870c2a6a0001cc6c7a,2023-06-16_10h30.33.936,phx_ver10,2022.2.5,Win32,60.14314067,,,,,,,,,,,,96,testing_3,j2x,i,j2x_i,j2x_8_ixi.wav,j2x_1_iji.wav,,FALSE,FALSE,,,,,,,,,,,,,,j,0.7218,space,1.1348,,,,,,,,0,49,49,95,1,,
5d5320870c2a6a0001cc6c7a,2023-06-16_10h30.33.936,phx_ver10,2022.2.5,Win32,60.14314067,,,,,,,,,,,,34,testing_3,zh2sh,au,zh2sh_au,zh2sh_8_aushau.wav,zh2sh_8_aushau.wav,,TRUE,FALSE,,,,,,,,,,,,,,f,0.357,space,0.8055,,,,,,,,0,50,50,33,1,,
5d5320870c2a6a0001cc6c7a,2023-06-16_10h30.33.936,phx_ver10,2022.2.5,Win32,60.14314067,,,,,,,,,,,,40,testing_3,zh2sh,e,zh2sh_e,zh2sh_8_eshe.wav,zh2sh_1_ezhe.wav,,FALSE,FALSE,,,,,,,,,,,,,,j,0.5011,space,0.9003,,,,,,,,0,51,51,39,1,,
5d5320870c2a6a0001cc6c7a,2023-06-16_10h30.33.936,phx_ver10,2022.2.5,Win32,60.14314067,,,,,,,,,,,,77,testing_3,j2x,ai,j2x_ai,j2x_1_aijai.wav,j2x_1_aijai.wav,,TRUE,FALSE,,,,,,,,,,,,,,f,0.2584,space,0.6027,,,,,,,,0,52,52,76,1,,
5d5320870c2a6a0001cc6c7a,2023-06-16_10h30.33.936,phx_ver10,2022.2.5,Win32,60.14314067,,,,,,,,,,,,111,testing_3,sh2x,e,sh2x_e,sh2x_1_eshe.wav,sh2x_8_exe.wav,,FALSE,FALSE,,,,,,,,,,,,,,j,0.3365,space,0.7171,,,,,,,,0,53,53,110,1,,
5d5320870c2a6a0001cc6c7a,2023-06-16_10h30.33.936,phx_ver10,2022.2.5,Win32,60.14314067,,,,,,,,,,,,103,testing_3,sh2x,ai,sh2x_ai,sh2x_1_aishai.wav,sh2x_8_aixai.wav,,FALSE,FALSE,,,,,,,,,,,,,,j,0.6838,space,1.0835,,,,,,,,0,54,54,102,1,,
5d5320870c2a6a0001cc6c7a,2023-06-16_10h30.33.936,phx_ver10,2022.2.5,Win32,60.14314067,,,,,,,,,,,,35,testing_3,zh2sh,au,zh2sh_au,zh2sh_1_auzhau.wav,zh2sh_8_aushau.wav,,FALSE,FALSE,,,,,,,,,,,,,,j,0.1354,space,0.5679,,,,,,,,0,55,55,34,1,,
5d5320870c2a6a0001cc6c7a,2023-06-16_10h30.33.936,phx_ver10,2022.2.5,Win32,60.14314067,,,,,,,,,,,,31,testing_3,zh2sh,ai,zh2sh_ai,zh2sh_1_aizhai.wav,zh2sh_8_aishai.wav,,FALSE,FALSE,,,,,,,,,,,,,,j,0.5675,space,1.035,,,,,,,,0,56,56,30,1,,
5d5320870c2a6a0001cc6c7a,2023-06-16_10h30.33.936,phx_ver10,2022.2.5,Win32,60.14314067,,,,,,,,,,,,85,testing_3,j2x,e,j2x_e,j2x_1_eje.wav,j2x_1_eje.wav,,TRUE,FALSE,,,,,,,,,,,,,,f,0.3378,space,0.6884,,,,,,,,0,57,57,84,1,,
5d5320870c2a6a0001cc6c7a,2023-06-16_10h30.33.936,phx_ver10,2022.2.5,Win32,60.14314067,,,,,,,,,,,,108,testing_3,sh2x,au,sh2x_au,sh2x_8_auxau.wav,sh2x_1_aushau.wav,,FALSE,FALSE,,,,,,,,,,,,,,f,1.2308,space,1.7688,,,,,,,,0,58,58,107,1,,
5d5320870c2a6a0001cc6c7a,2023-06-16_10h30.33.936,phx_ver10,2022.2.5,Win32,60.14314067,,,,,,,,,,,,105,testing_3,sh2x,au,sh2x_au,sh2x_1_aushau.wav,sh2x_1_aushau.wav,,TRUE,FALSE,,,,,,,,,,,,,,f,0.0538,space,0.4537,,,,,,,,0,59,59,104,1,,
5d5320870c2a6a0001cc6c7a,2023-06-16_10h30.33.936,phx_ver10,2022.2.5,Win32,60.14314067,,,,,,,,,,,,129,testing_3,sh2j,au,sh2j_au,sh2j_1_aushau.wav,sh2j_1_aushau.wav,,TRUE,FALSE,,,,,,,,,,,,,,f,0.5349,space,0.8506,,,,,,,,0,60,60,128,1,,
5d5320870c2a6a0001cc6c7a,2023-06-16_10h30.33.936,phx_ver10,2022.2.5,Win32,60.14314067,,,,,,,,,,,,60,testing_3,zh2j,au,zh2j_au,zh2j_8_aujau.wav,zh2j_1_auzhau.wav,,FALSE,FALSE,,,,,,,,,,,,,,f,0.5168,space,0.9016,,,,,,,,0,61,61,59,1,,
5d5320870c2a6a0001cc6c7a,2023-06-16_10h30.33.936,phx_ver10,2022.2.5,Win32,60.14314067,,,,,,,,,,,,28,testing_3,zh2sh,a,zh2sh_a,zh2sh_8_asha.wav,zh2sh_1_azha.wav,,FALSE,FALSE,,,,,,,,,,,,,,j,0.0325,space,0.4404,,,,,,,,0,62,62,27,1,,
5d5320870c2a6a0001cc6c7a,2023-06-16_10h30.33.936,phx_ver10,2022.2.5,Win32,60.14314067,,,,,,,,,,,,104,testing_3,sh2x,ai,sh2x_ai,sh2x_8_aixai.wav,sh2x_1_aishai.wav,,FALSE,FALSE,,,,,,,,,,,,,,f,0.023,space,0.3155,,,,,,,,0,63,63,103,1,,
5d5320870c2a6a0001cc6c7a,2023-06-16_10h30.33.936,phx_ver10,2022.2.5,Win32,60.14314067,,,,,,,,,,,,117,testing_3,sh2x,i,sh2x_i,sh2x_1_ishi.wav,sh2x_1_ishi.wav,,TRUE,FALSE,,,,,,,,,,,,,,f,0.3532,space,0.7174,,,,,,,,0,64,64,116,1,,
5d5320870c2a6a0001cc6c7a,2023-06-16_10h30.33.936,phx_ver10,2022.2.5,Win32,60.14314067,,,,,,,,,,,,141,testing_3,sh2j,i,sh2j_i,sh2j_1_ishi.wav,sh2j_1_ishi.wav,,TRUE,FALSE,,,,,,,,,,,,,,f,0.0013,space,0.3306,,,,,,,,0,65,65,140,1,,
5d5320870c2a6a0001cc6c7a,2023-06-16_10h30.33.936,phx_ver10,2022.2.5,Win32,60.14314067,,,,,,,,,,,,52,testing_3,zh2j,a,zh2j_a,zh2j_8_aja.wav,zh2j_1_azha.wav,,FALSE,FALSE,,,,,,,,,,,,,,f,0.0835,space,0.4398,,,,,,,,0,66,66,51,1,,
5d5320870c2a6a0001cc6c7a,2023-06-16_10h30.33.936,phx_ver10,2022.2.5,Win32,60.14314067,,,,,,,,,,,,25,testing_3,zh2sh,a,zh2sh_a,zh2sh_1_azha.wav,zh2sh_1_azha.wav,,TRUE,FALSE,,,,,,,,,,,,,,f,0.1184,space,0.4353,,,,,,,,0,67,67,24,1,,
5d5320870c2a6a0001cc6c7a,2023-06-16_10h30.33.936,phx_ver10,2022.2.5,Win32,60.14314067,,,,,,,,,,,,41,testing_3,zh2sh,ei,zh2sh_ei,zh2sh_1_eizhei.wav,zh2sh_1_eizhei.wav,,TRUE,FALSE,,,,,,,,,,,,,,f,0.5254,space,0.8511,,,,,,,,0,68,68,40,1,,
5d5320870c2a6a0001cc6c7a,2023-06-16_10h30.33.936,phx_ver10,2022.2.5,Win32,60.14314067,,,,,,,,,,,,97,testing_3,sh2x,a,sh2x_a,sh2x_1_asha.wav,sh2x_1_asha.wav,,TRUE,FALSE,,,,,,,,,,,,,,f,1.1211,space,1.4003,,,,,,,,0,69,69,96,1,,
5d5320870c2a6a0001cc6c7a,2023-06-16_10h30.33.936,phx_ver10,2022.2.5,Win32,60.14314067,,,,,,,,,,,,20,testing_2,zh2x,au,zh2x_au,zh2x_8_auxau.wav,zh2x_1_auzhau.wav,,FALSE,FALSE,,,,,,,,,,,,,,j,0.4014,space,0.7675,,,,,,,,0,70,70,19,1,,
5d5320870c2a6a0001cc6c7a,2023-06-16_10h30.33.936,phx_ver10,2022.2.5,Win32,60.14314067,,,,,,,,,,,,131,testing_3,sh2j,au,sh2j_au,sh2j_1_aushau.wav,sh2j_8_aujau.wav,,FALSE,FALSE,,,,,,,,,,,,,,j,0.4787,space,0.8129,,,,,,,,0,71,71,130,1,,
5d5320870c2a6a0001cc6c7a,2023-06-16_10h30.33.936,phx_ver10,2022.2.5,Win32,60.14314067,,,,,,,,,,,,73,testing_3,j2x,a,j2x_a,j2x_1_aja.wav,j2x_1_aja.wav,,TRUE,FALSE,,,,,,,,,,,,,,f,0.0397,space,0.4588,,,,,,,,0,72,72,72,1,,
5d5320870c2a6a0001cc6c7a,2023-06-16_10h30.33.936,phx_ver10,2022.2.5,Win32,60.14314067,,,,,,,,,,,,22,testing_2,zh2x,ei,zh2x_ei,zh2x_8_eixei.wav,zh2x_8_eixei.wav,,TRUE,FALSE,,,,,,,,,,,,,,f,0.5013,space,0.8738,,,,,,,,0,73,73,21,1,,
5d5320870c2a6a0001cc6c7a,2023-06-16_10h30.33.936,phx_ver10,2022.2.5,Win32,60.14314067,,,,,,,,,,,,100,testing_3,sh2x,a,sh2x_a,sh2x_8_axa.wav,sh2x_1_asha.wav,,FALSE,FALSE,,,,,,,,,,,,,,j,1.6118,space,2.003,,,,,,,,0,74,74,99,1,,
5d5320870c2a6a0001cc6c7a,2023-06-16_10h30.33.936,phx_ver10,2022.2.5,Win32,60.14314067,,,,,,,,,,,,126,testing_3,sh2j,ai,sh2j_ai,sh2j_8_aijai.wav,sh2j_8_aijai.wav,,TRUE,FALSE,,,,,,,,,,,,,,f,0.31,space,0.651,,,,,,,,0,75,75,125,1,,
5d5320870c2a6a0001cc6c7a,2023-06-16_10h30.33.936,phx_ver10,2022.2.5,Win32,60.14314067,,,,,,,,,,,,83,testing_3,j2x,au,j2x_au,j2x_1_aujau.wav,j2x_8_auxau.wav,,FALSE,FALSE,,,,,,,,,,,,,,j,0.1357,space,0.6221,,,,,,,,0,76,76,82,1,,
5d5320870c2a6a0001cc6c7a,2023-06-16_10h30.33.936,phx_ver10,2022.2.5,Win32,60.14314067,,,,,,,,,,,,9,testing_1,zh2x,i,zh2x_i,zh2x_1_izhi.wav,zh2x_1_izhi_copy.wav,,TRUE,TRUE,,,,,,,,,,,,,,f,0.3735,space,0.7039,,,,,,,,0,77,77,8,1,,
5d5320870c2a6a0001cc6c7a,2023-06-16_10h30.33.936,phx_ver10,2022.2.5,Win32,60.14314067,,,,,,,,,,,,102,testing_3,sh2x,ai,sh2x_ai,sh2x_8_aixai.wav,sh2x_8_aixai.wav,,TRUE,FALSE,,,,,,,,,,,,,,f,0.5182,space,0.8839,,,,,,,,0,78,78,101,1,,
5d5320870c2a6a0001cc6c7a,2023-06-16_10h30.33.936,phx_ver10,2022.2.5,Win32,60.14314067,,,,,,,,,,,,143,testing_3,sh2j,i,sh2j_i,sh2j_1_ishi.wav,sh2j_8_iji.wav,,FALSE,FALSE,,,,,,,,,,,,,,j,0.4059,space,0.7228,,,,,,,,0,79,79,142,1,,
5d5320870c2a6a0001cc6c7a,2023-06-16_10h30.33.936,phx_ver10,2022.2.5,Win32,60.14314067,,,,,,,,,,,,1,testing_1,zh2x,a,zh2x_a,zh2x_1_azha.wav,zh2x_1_azha_copy.wav,,TRUE,TRUE,,,,,,,,,,,,,,f,0.1728,space,0.5169,,,,,,,,0,80,80,0,1,,
5d5320870c2a6a0001cc6c7a,2023-06-16_10h30.33.936,phx_ver10,2022.2.5,Win32,60.14314067,,,,,,,,,,,,93,testing_3,j2x,i,j2x_i,j2x_1_iji.wav,j2x_1_iji.wav,,TRUE,FALSE,,,,,,,,,,,,,,f,0.0943,space,0.45,,,,,,,,0,81,81,92,1,,
5d5320870c2a6a0001cc6c7a,2023-06-16_10h30.33.936,phx_ver10,2022.2.5,Win32,60.14314067,,,,,,,,,,,,61,testing_3,zh2j,e,zh2j_e,zh2j_1_ezhe.wav,zh2j_1_ezhe.wav,,TRUE,FALSE,,,,,,,,,,,,,,f,0.1824,space,0.6158,,,,,,,,0,82,82,60,1,,
5d5320870c2a6a0001cc6c7a,2023-06-16_10h30.33.936,phx_ver10,2022.2.5,Win32,60.14314067,,,,,,,,,,,,45,testing_3,zh2sh,i,zh2sh_i,zh2sh_1_izhi.wav,zh2sh_1_izhi.wav,,TRUE,FALSE,,,,,,,,,,,,,,f,0.3856,space,0.6842,,,,,,,,0,83,83,44,1,,
5d5320870c2a6a0001cc6c7a,2023-06-16_10h30.33.936,phx_ver10,2022.2.5,Win32,60.14314067,,,,,,,,,,,,10,testing_1,zh2x,i,zh2x_i,zh2x_8_ixi.wav,zh2x_8_ixi_copy.wav,,TRUE,TRUE,,,,,,,,,,,,,,f,0.1677,space,0.5884,,,,,,,,0,84,84,9,1,,
5d5320870c2a6a0001cc6c7a,2023-06-16_10h30.33.936,phx_ver10,2022.2.5,Win32,60.14314067,,,,,,,,,,,,144,testing_3,sh2j,i,sh2j_i,sh2j_8_iji.wav,sh2j_1_ishi.wav,,FALSE,FALSE,,,,,,,,,,,,,,j,3.1317,space,3.6987,,,,,,,,0,85,85,143,1,,
5d5320870c2a6a0001cc6c7a,2023-06-16_10h30.33.936,phx_ver10,2022.2.5,Win32,60.14314067,,,,,,,,,,,,130,testing_3,sh2j,au,sh2j_au,sh2j_8_aujau.wav,sh2j_8_aujau.wav,,TRUE,FALSE,,,,,,,,,,,,,,f,0.5493,space,1.5718,,,,,,,,0,86,86,129,1,,
5d5320870c2a6a0001cc6c7a,2023-06-16_10h30.33.936,phx_ver10,2022.2.5,Win32,60.14314067,,,,,,,,,,,,82,testing_3,j2x,au,j2x_au,j2x_8_auxau.wav,j2x_8_auxau.wav,,TRUE,FALSE,,,,,,,,,,,,,,f,0.1013,space,0.4707,,,,,,,,0,87,87,81,1,,
5d5320870c2a6a0001cc6c7a,2023-06-16_10h30.33.936,phx_ver10,2022.2.5,Win32,60.14314067,,,,,,,,,,,,44,testing_3,zh2sh,ei,zh2sh_ei,zh2sh_8_eishei.wav,zh2sh_1_eizhei.wav,,FALSE,FALSE,,,,,,,,,,,,,,j,0.2342,space,0.5846,,,,,,,,0,88,88,43,1,,
5d5320870c2a6a0001cc6c7a,2023-06-16_10h30.33.936,phx_ver10,2022.2.5,Win32,60.14314067,,,,,,,,,,,,46,testing_3,zh2sh,i,zh2sh_i,zh2sh_8_ishi.wav,zh2sh_8_ishi.wav,,TRUE,FALSE,,,,,,,,,,,,,,f,0.0011,space,0.5244,,,,,,,,0,89,89,45,1,,
5d5320870c2a6a0001cc6c7a,2023-06-16_10h30.33.936,phx_ver10,2022.2.5,Win32,60.14314067,,,,,,,,,,,,80,testing_3,j2x,ai,j2x_ai,j2x_8_aixai.wav,j2x_1_aijai.wav,,FALSE,FALSE,,,,,,,,,,,,,,j,0.2147,space,0.5828,,,,,,,,0,90,90,79,1,,
5d5320870c2a6a0001cc6c7a,2023-06-16_10h30.33.936,phx_ver10,2022.2.5,Win32,60.14314067,,,,,,,,,,,,53,testing_3,zh2j,ai,zh2j_ai,zh2j_1_aizhai.wav,zh2j_1_aizhai.wav,,TRUE,FALSE,,,,,,,,,,,,,,f,0.1174,space,0.485,,,,,,,,0,91,91,52,1,,
5d5320870c2a6a0001cc6c7a,2023-06-16_10h30.33.936,phx_ver10,2022.2.5,Win32,60.14314067,,,,,,,,,,,,87,testing_3,j2x,e,j2x_e,j2x_1_eje.wav,j2x_8_exe.wav,,FALSE,FALSE,,,,,,,,,,,,,,j,0.2172,space,0.6207,,,,,,,,0,92,92,86,1,,
5d5320870c2a6a0001cc6c7a,2023-06-16_10h30.33.936,phx_ver10,2022.2.5,Win32,60.14314067,,,,,,,,,,,,123,testing_3,sh2j,a,sh2j_a,sh2j_1_asha.wav,sh2j_8_aja.wav,,FALSE,FALSE,,,,,,,,,,,,,,j,0.0733,space,0.4513,,,,,,,,0,93,93,122,1,,
5d5320870c2a6a0001cc6c7a,2023-06-16_10h30.33.936,phx_ver10,2022.2.5,Win32,60.14314067,,,,,,,,,,,,47,testing_3,zh2sh,i,zh2sh_i,zh2sh_1_izhi.wav,zh2sh_8_ishi.wav,,FALSE,FALSE,,,,,,,,,,,,,,f,0.8143,space,1.3336,,,,,,,,0,94,94,46,1,,
5d5320870c2a6a0001cc6c7a,2023-06-16_10h30.33.936,phx_ver10,2022.2.5,Win32,60.14314067,,,,,,,,,,,,118,testing_3,sh2x,i,sh2x_i,sh2x_8_ixi.wav,sh2x_8_ixi.wav,,TRUE,FALSE,,,,,,,,,,,,,,f,0.1167,space,0.4659,,,,,,,,0,95,95,117,1,,
5d5320870c2a6a0001cc6c7a,2023-06-16_10h30.33.936,phx_ver10,2022.2.5,Win32,60.14314067,,,,,,,,,,,,12,testing_1,zh2x,i,zh2x_i,zh2x_8_ixi.wav,zh2x_1_izhi.wav,,FALSE,TRUE,,,,,,,,,,,,,,j,0.5163,space,1.167,,,,,,,,0,96,96,11,1,,
5d5320870c2a6a0001cc6c7a,2023-06-16_10h30.33.936,phx_ver10,2022.2.5,Win32,60.14314067,,,,,,,,,,,,54,testing_3,zh2j,ai,zh2j_ai,zh2j_8_aijai.wav,zh2j_8_aijai.wav,,TRUE,FALSE,,,,,,,,,,,,,,f,0.9573,space,1.3005,,,,,,,,0,97,97,53,1,,
5d5320870c2a6a0001cc6c7a,2023-06-16_10h30.33.936,phx_ver10,2022.2.5,Win32,60.14314067,,,,,,,,,,,,36,testing_3,zh2sh,au,zh2sh_au,zh2sh_8_aushau.wav,zh2sh_1_auzhau.wav,,FALSE,FALSE,,,,,,,,,,,,,,j,0.3019,space,0.8715,,,,,,,,0,98,98,35,1,,
5d5320870c2a6a0001cc6c7a,2023-06-16_10h30.33.936,phx_ver10,2022.2.5,Win32,60.14314067,,,,,,,,,,,,98,testing_3,sh2x,a,sh2x_a,sh2x_8_axa.wav,sh2x_8_axa.wav,,TRUE,FALSE,,,,,,,,,,,,,,f,0.5692,space,0.9538,,,,,,,,0,99,99,97,1,,
5d5320870c2a6a0001cc6c7a,2023-06-16_10h30.33.936,phx_ver10,2022.2.5,Win32,60.14314067,,,,,,,,,,,,133,testing_3,sh2j,e,sh2j_e,sh2j_1_eshe.wav,sh2j_1_eshe.wav,,TRUE,FALSE,,,,,,,,,,,,,,f,0.5675,space,0.8752,,,,,,,,0,100,100,132,1,,
5d5320870c2a6a0001cc6c7a,2023-06-16_10h30.33.936,phx_ver10,2022.2.5,Win32,60.14314067,,,,,,,,,,,,116,testing_3,sh2x,ei,sh2x_ei,sh2x_8_eixei.wav,sh2x_1_eishei.wav,,FALSE,FALSE,,,,,,,,,,,,,,f,0.1252,space,0.4697,,,,,,,,0,101,101,115,1,,
5d5320870c2a6a0001cc6c7a,2023-06-16_10h30.33.936,phx_ver10,2022.2.5,Win32,60.14314067,,,,,,,,,,,,79,testing_3,j2x,ai,j2x_ai,j2x_1_aijai.wav,j2x_8_aixai.wav,,FALSE,FALSE,,,,,,,,,,,,,,j,0.3923,space,0.7253,,,,,,,,0,102,102,78,1,,
5d5320870c2a6a0001cc6c7a,2023-06-16_10h30.33.936,phx_ver10,2022.2.5,Win32,60.14314067,,,,,,,,,,,,64,testing_3,zh2j,e,zh2j_e,zh2j_8_eje.wav,zh2j_1_ezhe.wav,,FALSE,FALSE,,,,,,,,,,,,,,f,0.5838,space,0.9372,,,,,,,,0,103,103,63,1,,
5d5320870c2a6a0001cc6c7a,2023-06-16_10h30.33.936,phx_ver10,2022.2.5,Win32,60.14314067,,,,,,,,,,,,57,testing_3,zh2j,au,zh2j_au,zh2j_1_auzhau.wav,zh2j_1_auzhau.wav,,TRUE,FALSE,,,,,,,,,,,,,,f,0.1395,space,0.4338,,,,,,,,0,104,104,56,1,,
5d5320870c2a6a0001cc6c7a,2023-06-16_10h30.33.936,phx_ver10,2022.2.5,Win32,60.14314067,,,,,,,,,,,,49,testing_3,zh2j,a,zh2j_a,zh2j_1_azha.wav,zh2j_1_azha.wav,,TRUE,FALSE,,,,,,,,,,,,,,f,0.1997,space,0.5505,,,,,,,,0,105,105,48,1,,
5d5320870c2a6a0001cc6c7a,2023-06-16_10h30.33.936,phx_ver10,2022.2.5,Win32,60.14314067,,,,,,,,,,,,90,testing_3,j2x,ei,j2x_ei,j2x_8_eixei.wav,j2x_8_eixei.wav,,TRUE,FALSE,,,,,,,,,,,,,,f,0.412,space,0.7447,,,,,,,,0,106,106,89,1,,
5d5320870c2a6a0001cc6c7a,2023-06-16_10h30.33.936,phx_ver10,2022.2.5,Win32,60.14314067,,,,,,,,,,,,18,testing_2,zh2x,au,zh2x_au,zh2x_8_auxau.wav,zh2x_8_auxau.wav,,TRUE,FALSE,,,,,,,,,,,,,,f,0.2521,space,0.6339,,,,,,,,0,107,107,17,1,,
5d5320870c2a6a0001cc6c7a,2023-06-16_10h30.33.936,phx_ver10,2022.2.5,Win32,60.14314067,,,,,,,,,,,,74,testing_3,j2x,a,j2x_a,j2x_8_axa.wav,j2x_8_axa.wav,,TRUE,FALSE,,,,,,,,,,,,,,f,0.0639,space,0.4375,,,,,,,,0,108,108,73,1,,
5d5320870c2a6a0001cc6c7a,2023-06-16_10h30.33.936,phx_ver10,2022.2.5,Win32,60.14314067,,,,,,,,,,,,33,testing_3,zh2sh,au,zh2sh_au,zh2sh_1_auzhau.wav,zh2sh_1_auzhau.wav,,TRUE,FALSE,,,,,,,,,,,,,,f,0.4813,space,0.7847,,,,,,,,0,109,109,32,1,,
5d5320870c2a6a0001cc6c7a,2023-06-16_10h30.33.936,phx_ver10,2022.2.5,Win32,60.14314067,,,,,,,,,,,,67,testing_3,zh2j,ei,zh2j_ei,zh2j_1_eizhei.wav,zh2j_8_eijei.wav,,FALSE,FALSE,,,,,,,,,,,,,,f,0.4676,space,0.8079,,,,,,,,0,110,110,66,1,,
5d5320870c2a6a0001cc6c7a,2023-06-16_10h30.33.936,phx_ver10,2022.2.5,Win32,60.14314067,,,,,,,,,,,,38,testing_3,zh2sh,e,zh2sh_e,zh2sh_8_eshe.wav,zh2sh_8_eshe.wav,,TRUE,FALSE,,,,,,,,,,,,,,f,0.0937,space,0.4013,,,,,,,,0,111,111,37,1,,
5d5320870c2a6a0001cc6c7a,2023-06-16_10h30.33.936,phx_ver10,2022.2.5,Win32,60.14314067,,,,,,,,,,,,58,testing_3,zh2j,au,zh2j_au,zh2j_8_aujau.wav,zh2j_8_aujau.wav,,TRUE,FALSE,,,,,,,,,,,,,,f,0.2125,space,0.5767,,,,,,,,0,112,112,57,1,,
5d5320870c2a6a0001cc6c7a,2023-06-16_10h30.33.936,phx_ver10,2022.2.5,Win32,60.14314067,,,,,,,,,,,,71,testing_3,zh2j,i,zh2j_i,zh2j_1_izhi.wav,zh2j_8_iji.wav,,FALSE,FALSE,,,,,,,,,,,,,,f,0.2841,space,0.6752,,,,,,,,0,113,113,70,1,,
5d5320870c2a6a0001cc6c7a,2023-06-16_10h30.33.936,phx_ver10,2022.2.5,Win32,60.14314067,,,,,,,,,,,,4,testing_1,zh2x,a,zh2x_a,zh2x_8_axa.wav,zh2x_1_azha.wav,,FALSE,TRUE,,,,,,,,,,,,,,j,0.0532,space,0.4515,,,,,,,,0,114,114,3,1,,
5d5320870c2a6a0001cc6c7a,2023-06-16_10h30.33.936,phx_ver10,2022.2.5,Win32,60.14314067,,,,,,,,,,,,13,testing_2,zh2x,ai,zh2x_ai,zh2x_1_aizhai.wav,zh2x_1_aizhai.wav,,TRUE,FALSE,,,,,,,,,,,,,,f,0.1343,space,0.5002,,,,,,,,0,115,115,12,1,,
5d5320870c2a6a0001cc6c7a,2023-06-16_10h30.33.936,phx_ver10,2022.2.5,Win32,60.14314067,,,,,,,,,,,,43,testing_3,zh2sh,ei,zh2sh_ei,zh2sh_1_eizhei.wav,zh2sh_8_eishei.wav,,FALSE,FALSE,,,,,,,,,,,,,,j,0.5346,space,0.8898,,,,,,,,0,116,116,42,1,,
5d5320870c2a6a0001cc6c7a,2023-06-16_10h30.33.936,phx_ver10,2022.2.5,Win32,60.14314067,,,,,,,,,,,,136,testing_3,sh2j,e,sh2j_e,sh2j_8_eje.wav,sh2j_1_eshe.wav,,FALSE,FALSE,,,,,,,,,,,,,,j,0.6174,space,0.9664,,,,,,,,0,117,117,135,1,,
5d5320870c2a6a0001cc6c7a,2023-06-16_10h30.33.936,phx_ver10,2022.2.5,Win32,60.14314067,,,,,,,,,,,,78,testing_3,j2x,ai,j2x_ai,j2x_8_aixai.wav,j2x_8_aixai.wav,,TRUE,FALSE,,,,,,,,,,,,,,f,0.1415,space,0.5004,,,,,,,,0,118,118,77,1,,
5d5320870c2a6a0001cc6c7a,2023-06-16_10h30.33.936,phx_ver10,2022.2.5,Win32,60.14314067,,,,,,,,,,,,124,testing_3,sh2j,a,sh2j_a,sh2j_8_aja.wav,sh2j_1_asha.wav,,FALSE,FALSE,,,,,,,,,,,,,,j,0.5203,space,0.9509,,,,,,,,0,119,119,123,1,,
5d5320870c2a6a0001cc6c7a,2023-06-16_10h30.33.936,phx_ver10,2022.2.5,Win32,60.14314067,,,,,,,,,,,,55,testing_3,zh2j,ai,zh2j_ai,zh2j_1_aizhai.wav,zh2j_8_aijai.wav,,FALSE,FALSE,,,,,,,,,,,,,,f,0.0552,space,0.6333,,,,,,,,0,120,120,54,1,,
5d5320870c2a6a0001cc6c7a,2023-06-16_10h30.33.936,phx_ver10,2022.2.5,Win32,60.14314067,,,,,,,,,,,,107,testing_3,sh2x,au,sh2x_au,sh2x_1_aushau.wav,sh2x_8_auxau.wav,,FALSE,FALSE,,,,,,,,,,,,,,j,0.207,space,0.7198,,,,,,,,0,121,121,106,1,,
5d5320870c2a6a0001cc6c7a,2023-06-16_10h30.33.936,phx_ver10,2022.2.5,Win32,60.14314067,,,,,,,,,,,,62,testing_3,zh2j,e,zh2j_e,zh2j_8_eje.wav,zh2j_8_eje.wav,,TRUE,FALSE,,,,,,,,,,,,,,f,0.014,space,0.3499,,,,,,,,0,122,122,61,1,,
5d5320870c2a6a0001cc6c7a,2023-06-16_10h30.33.936,phx_ver10,2022.2.5,Win32,60.14314067,,,,,,,,,,,,114,testing_3,sh2x,ei,sh2x_ei,sh2x_8_eixei.wav,sh2x_8_eixei.wav,,TRUE,FALSE,,,,,,,,,,,,,,f,0.4645,space,0.7172,,,,,,,,0,123,123,113,1,,
5d5320870c2a6a0001cc6c7a,2023-06-16_10h30.33.936,phx_ver10,2022.2.5,Win32,60.14314067,,,,,,,,,,,,37,testing_3,zh2sh,e,zh2sh_e,zh2sh_1_ezhe.wav,zh2sh_1_ezhe.wav,,TRUE,FALSE,,,,,,,,,,,,,,f,0.5067,space,1.1071,,,,,,,,0,124,124,36,1,,
5d5320870c2a6a0001cc6c7a,2023-06-16_10h30.33.936,phx_ver10,2022.2.5,Win32,60.14314067,,,,,,,,,,,,128,testing_3,sh2j,ai,sh2j_ai,sh2j_8_aijai.wav,sh2j_1_aishai.wav,,FALSE,FALSE,,,,,,,,,,,,,,j,0.4232,space,0.756,,,,,,,,0,125,125,127,1,,
5d5320870c2a6a0001cc6c7a,2023-06-16_10h30.33.936,phx_ver10,2022.2.5,Win32,60.14314067,,,,,,,,,,,,7,testing_1,zh2x,e,zh2x_e,zh2x_1_ezhe.wav,zh2x_8_exe.wav,,FALSE,TRUE,,,,,,,,,,,,,,j,0.1715,space,0.5154,,,,,,,,0,126,126,6,1,,
5d5320870c2a6a0001cc6c7a,2023-06-16_10h30.33.936,phx_ver10,2022.2.5,Win32,60.14314067,,,,,,,,,,,,122,testing_3,sh2j,a,sh2j_a,sh2j_8_aja.wav,sh2j_8_aja.wav,,TRUE,FALSE,,,,,,,,,,,,,,f,1.0379,space,1.3004,,,,,,,,0,127,127,121,1,,
5d5320870c2a6a0001cc6c7a,2023-06-16_10h30.33.936,phx_ver10,2022.2.5,Win32,60.14314067,,,,,,,,,,,,95,testing_3,j2x,i,j2x_i,j2x_1_iji.wav,j2x_8_ixi.wav,,FALSE,FALSE,,,,,,,,,,,,,,j,0.2411,space,0.5669,,,,,,,,0,128,128,94,1,,
5d5320870c2a6a0001cc6c7a,2023-06-16_10h30.33.936,phx_ver10,2022.2.5,Win32,60.14314067,,,,,,,,,,,,132,testing_3,sh2j,au,sh2j_au,sh2j_8_aujau.wav,sh2j_1_aushau.wav,,FALSE,FALSE,,,,,,,,,,,,,,j,0.0783,space,0.4033,,,,,,,,0,129,129,131,1,,
5d5320870c2a6a0001cc6c7a,2023-06-16_10h30.33.936,phx_ver10,2022.2.5,Win32,60.14314067,,,,,,,,,,,,88,testing_3,j2x,e,j2x_e,j2x_8_exe.wav,j2x_1_eje.wav,,FALSE,FALSE,,,,,,,,,,,,,,j,0.4355,space,0.9039,,,,,,,,0,130,130,87,1,,
5d5320870c2a6a0001cc6c7a,2023-06-16_10h30.33.936,phx_ver10,2022.2.5,Win32,60.14314067,,,,,,,,,,,,16,testing_2,zh2x,ai,zh2x_ai,zh2x_8_aixai.wav,zh2x_1_aizhai.wav,,FALSE,FALSE,,,,,,,,,,,,,,j,0.4619,space,0.7925,,,,,,,,0,131,131,15,1,,
5d5320870c2a6a0001cc6c7a,2023-06-16_10h30.33.936,phx_ver10,2022.2.5,Win32,60.14314067,,,,,,,,,,,,91,testing_3,j2x,ei,j2x_ei,j2x_1_eijei.wav,j2x_8_eixei.wav,,FALSE,FALSE,,,,,,,,,,,,,,j,0.2167,space,0.59,,,,,,,,0,132,132,90,1,,
5d5320870c2a6a0001cc6c7a,2023-06-16_10h30.33.936,phx_ver10,2022.2.5,Win32,60.14314067,,,,,,,,,,,,120,testing_3,sh2x,i,sh2x_i,sh2x_8_ixi.wav,sh2x_1_ishi.wav,,FALSE,FALSE,,,,,,,,,,,,,,f,0.0308,space,0.4323,,,,,,,,0,133,133,119,1,,
5d5320870c2a6a0001cc6c7a,2023-06-16_10h30.33.936,phx_ver10,2022.2.5,Win32,60.14314067,,,,,,,,,,,,112,testing_3,sh2x,e,sh2x_e,sh2x_8_exe.wav,sh2x_1_eshe.wav,,FALSE,FALSE,,,,,,,,,,,,,,j,0.2186,space,0.6007,,,,,,,,0,134,134,111,1,,
5d5320870c2a6a0001cc6c7a,2023-06-16_10h30.33.936,phx_ver10,2022.2.5,Win32,60.14314067,,,,,,,,,,,,119,testing_3,sh2x,i,sh2x_i,sh2x_1_ishi.wav,sh2x_8_ixi.wav,,FALSE,FALSE,,,,,,,,,,,,,,f,0.389,space,0.7158,,,,,,,,0,135,135,118,1,,
5d5320870c2a6a0001cc6c7a,2023-06-16_10h30.33.936,phx_ver10,2022.2.5,Win32,60.14314067,,,,,,,,,,,,48,testing_3,zh2sh,i,zh2sh_i,zh2sh_8_ishi.wav,zh2sh_1_izhi.wav,,FALSE,FALSE,,,,,,,,,,,,,,j,1.3848,space,1.8098,,,,,,,,0,136,136,47,1,,
5d5320870c2a6a0001cc6c7a,2023-06-16_10h30.33.936,phx_ver10,2022.2.5,Win32,60.14314067,,,,,,,,,,,,127,testing_3,sh2j,ai,sh2j_ai,sh2j_1_aishai.wav,sh2j_8_aijai.wav,,FALSE,FALSE,,,,,,,,,,,,,,j,0.2382,space,0.5221,,,,,,,,0,137,137,126,1,,
5d5320870c2a6a0001cc6c7a,2023-06-16_10h30.33.936,phx_ver10,2022.2.5,Win32,60.14314067,,,,,,,,,,,,86,testing_3,j2x,e,j2x_e,j2x_8_exe.wav,j2x_8_exe.wav,,TRUE,FALSE,,,,,,,,,,,,,,f,0.4011,space,0.7518,,,,,,,,0,138,138,85,1,,
5d5320870c2a6a0001cc6c7a,2023-06-16_10h30.33.936,phx_ver10,2022.2.5,Win32,60.14314067,,,,,,,,,,,,2,testing_1,zh2x,a,zh2x_a,zh2x_8_axa.wav,zh2x_8_axa_copy.wav,,TRUE,TRUE,,,,,,,,,,,,,,f,0.0015,space,0.3515,,,,,,,,0,139,139,1,1,,
5d5320870c2a6a0001cc6c7a,2023-06-16_10h30.33.936,phx_ver10,2022.2.5,Win32,60.14314067,,,,,,,,,,,,14,testing_2,zh2x,ai,zh2x_ai,zh2x_8_aixai.wav,zh2x_8_aixai.wav,,TRUE,FALSE,,,,,,,,,,,,,,f,0.4042,space,0.7234,,,,,,,,0,140,140,13,1,,
5d5320870c2a6a0001cc6c7a,2023-06-16_10h30.33.936,phx_ver10,2022.2.5,Win32,60.14314067,,,,,,,,,,,,135,testing_3,sh2j,e,sh2j_e,sh2j_1_eshe.wav,sh2j_8_eje.wav,,FALSE,FALSE,,,,,,,,,,,,,,j,0.0328,space,0.4579,,,,,,,,0,141,141,134,1,,
5d5320870c2a6a0001cc6c7a,2023-06-16_10h30.33.936,phx_ver10,2022.2.5,Win32,60.14314067,,,,,,,,,,,,27,testing_3,zh2sh,a,zh2sh_a,zh2sh_1_azha.wav,zh2sh_8_asha.wav,,FALSE,FALSE,,,,,,,,,,,,,,j,0.4582,space,0.7888,,,,,,,,0,142,142,26,1,,
5d5320870c2a6a0001cc6c7a,2023-06-16_10h30.33.936,phx_ver10,2022.2.5,Win32,60.14314067,,,,,,,,,,,,142,testing_3,sh2j,i,sh2j_i,sh2j_8_iji.wav,sh2j_8_iji.wav,,TRUE,FALSE,,,,,,,,,,,,,,f,0.5257,space,0.8357,,,,,,,,0,143,143,141,1,,
5d5320870c2a6a0001cc6c7a,2023-06-16_10h30.33.936,phx_ver10,2022.2.5,Win32,60.14314067,,,,,,,,,,,,,,,,,,,,,,,,,,,,,,,,,,,,,,,,,,,,,,,,,,,space,2.2351
