participant,date,expName,psychopyVersion,OS,frameRate,space_1.keys,space_1.rt,space_2.keys,space_2.rt,space_train.keys,space_train.rt,training.thisRepN,training.thisTrialN,training.thisN,training.thisIndex,training.ran,token_id,task,continuum,vowel,series,sound_1,sound_2,img,same,trained,FJ_attn.keys,FJ_attn.rt,space_attn.keys,space_attn.rt,if_attn_test.thisRepN,if_attn_test.thisTrialN,if_attn_test.thisN,if_attn_test.thisIndex,if_attn_test.ran,space_trans_1.keys,space_trans_1.rt,space_trans_11.keys,space_trans_11.rt,FJ_test.keys,FJ_test.rt,space_test.keys,space_test.rt,testing_pre.thisRepN,testing_pre.thisTrialN,testing_pre.thisN,testing_pre.thisIndex,testing_pre.ran,space_trans_2.keys,space_trans_2.rt,testing_all.thisRepN,testing_all.thisTrialN,testing_all.thisN,testing_all.thisIndex,testing_all.ran,space_ending.keys,space_ending.rt
5d7de72016b0a00001c36af3,2023-06-16_21h25.56.462,phx_ver10,2022.2.5,MacIntel,62.5,,,,,,,,,,,,,,,,,,,,,,,,,,,,,,,,,,,,,,,,,,,,,,,,,,,,
5d7de72016b0a00001c36af3,2023-06-16_21h25.56.462,phx_ver10,2022.2.5,MacIntel,62.5,space,3.871,,,,,,,,,,,,,,,,,,,,,,,,,,,,,,,,,,,,,,,,,,,,,,,,,,
5d7de72016b0a00001c36af3,2023-06-16_21h25.56.462,phx_ver10,2022.2.5,MacIntel,62.5,,,space,0.98,,,,,,,,,,,,,,,,,,,,,,,,,,,,,,,,,,,,,,,,,,,,,,,,
5d7de72016b0a00001c36af3,2023-06-16_21h25.56.462,phx_ver10,2022.2.5,MacIntel,62.5,,,,,space,1.193,0,0,0,10,1,11,training,zh2x,a,zh2x_a,zh2x_6_axa.wav,,axa.jpg,,,,,,,,,,,,,,,,,,,,,,,,,,,,,,,,,
5d7de72016b0a00001c36af3,2023-06-16_21h25.56.462,phx_ver10,2022.2.5,MacIntel,62.5,,,,,space,1.219,0,1,1,44,1,45,training,zh2x,i,zh2x_i,zh2x_7_ixi.wav,,ixi.jpg,,,,,,,,,,,,,,,,,,,,,,,,,,,,,,,,,
5d7de72016b0a00001c36af3,2023-06-16_21h25.56.462,phx_ver10,2022.2.5,MacIntel,62.5,,,,,space,0.384,0,2,2,46,1,47,training,zh2x,i,zh2x_i,zh2x_7_ixi.wav,,ixi.jpg,,,,,,,,,,,,,,,,,,,,,,,,,,,,,,,,,
5d7de72016b0a00001c36af3,2023-06-16_21h25.56.462,phx_ver10,2022.2.5,MacIntel,62.5,,,,,space,0.5,0,3,3,0,1,1,training,zh2x,a,zh2x_a,zh2x_1_azha.wav,,azha.jpg,,,,,,,,,,,,,,,,,,,,,,,,,,,,,,,,,
5d7de72016b0a00001c36af3,2023-06-16_21h25.56.462,phx_ver10,2022.2.5,MacIntel,62.5,,,,,space,0.493,0,4,4,34,1,35,training,zh2x,i,zh2x_i,zh2x_2_izhi.wav,,izhi.jpg,,,,,,,,,,,,,,,,,,,,,,,,,,,,,,,,,
5d7de72016b0a00001c36af3,2023-06-16_21h25.56.462,phx_ver10,2022.2.5,MacIntel,62.5,,,,,space,1.217,0,5,5,19,1,20,training,zh2x,e,zh2x_e,zh2x_2_ezhe.wav,,ezhe.jpg,,,,,,,,,,,,,,,,,,,,,,,,,,,,,,,,,
5d7de72016b0a00001c36af3,2023-06-16_21h25.56.462,phx_ver10,2022.2.5,MacIntel,62.5,,,,,,,,,,,,,attn_test,,,,zh2x_8_ixi.wav,zh2x_1_ezhe.wav,ixi.jpg,LEFT,,f,4.905,space,6.888,0,0,0,0,1,,,,,,,,,,,,,,,,,,,,,,
5d7de72016b0a00001c36af3,2023-06-16_21h25.56.462,phx_ver10,2022.2.5,MacIntel,62.5,,,,,space,1.652,0,6,6,36,1,37,training,zh2x,i,zh2x_i,zh2x_2_izhi.wav,,izhi.jpg,,,,,,,,,,,,,,,,,,,,,,,,,,,,,,,,,
5d7de72016b0a00001c36af3,2023-06-16_21h25.56.462,phx_ver10,2022.2.5,MacIntel,62.5,,,,,space,4.467,0,7,7,30,1,31,training,zh2x,e,zh2x_e,zh2x_7_exe.wav,,exe.jpg,,,,,,,,,,,,,,,,,,,,,,,,,,,,,,,,,
5d7de72016b0a00001c36af3,2023-06-16_21h25.56.462,phx_ver10,2022.2.5,MacIntel,62.5,,,,,space,1.104,0,8,8,18,1,19,training,zh2x,e,zh2x_e,zh2x_2_ezhe.wav,,ezhe.jpg,,,,,,,,,,,,,,,,,,,,,,,,,,,,,,,,,
5d7de72016b0a00001c36af3,2023-06-16_21h25.56.462,phx_ver10,2022.2.5,MacIntel,62.5,,,,,space,0.534,0,9,9,29,1,30,training,zh2x,e,zh2x_e,zh2x_7_exe.wav,,exe.jpg,,,,,,,,,,,,,,,,,,,,,,,,,,,,,,,,,
5d7de72016b0a00001c36af3,2023-06-16_21h25.56.462,phx_ver10,2022.2.5,MacIntel,62.5,,,,,space,0.801,0,10,10,47,1,48,training,zh2x,i,zh2x_i,zh2x_8_ixi.wav,,ixi.jpg,,,,,,,,,,,,,,,,,,,,,,,,,,,,,,,,,
5d7de72016b0a00001c36af3,2023-06-16_21h25.56.462,phx_ver10,2022.2.5,MacIntel,62.5,,,,,space,0.435,0,11,11,20,1,21,training,zh2x,e,zh2x_e,zh2x_2_ezhe.wav,,ezhe.jpg,,,,,,,,,,,,,,,,,,,,,,,,,,,,,,,,,
5d7de72016b0a00001c36af3,2023-06-16_21h25.56.462,phx_ver10,2022.2.5,MacIntel,62.5,,,,,,,,,,,,,attn_test,,,,zh2x_8_ixi.wav,zh2x_1_ezhe.wav,ezhe.jpg,RIGHT,,j,1.072,space,1.351,0,0,0,0,1,,,,,,,,,,,,,,,,,,,,,,
5d7de72016b0a00001c36af3,2023-06-16_21h25.56.462,phx_ver10,2022.2.5,MacIntel,62.5,,,,,space,3.051,0,12,12,38,1,39,training,zh2x,i,zh2x_i,zh2x_3_izhi.wav,,izhi.jpg,,,,,,,,,,,,,,,,,,,,,,,,,,,,,,,,,
5d7de72016b0a00001c36af3,2023-06-16_21h25.56.462,phx_ver10,2022.2.5,MacIntel,62.5,,,,,space,0.792,0,13,13,27,1,28,training,zh2x,e,zh2x_e,zh2x_7_exe.wav,,exe.jpg,,,,,,,,,,,,,,,,,,,,,,,,,,,,,,,,,
5d7de72016b0a00001c36af3,2023-06-16_21h25.56.462,phx_ver10,2022.2.5,MacIntel,62.5,,,,,space,4.223,0,14,14,12,1,13,training,zh2x,a,zh2x_a,zh2x_7_axa.wav,,axa.jpg,,,,,,,,,,,,,,,,,,,,,,,,,,,,,,,,,
5d7de72016b0a00001c36af3,2023-06-16_21h25.56.462,phx_ver10,2022.2.5,MacIntel,62.5,,,,,space,0.467,0,15,15,35,1,36,training,zh2x,i,zh2x_i,zh2x_2_izhi.wav,,izhi.jpg,,,,,,,,,,,,,,,,,,,,,,,,,,,,,,,,,
5d7de72016b0a00001c36af3,2023-06-16_21h25.56.462,phx_ver10,2022.2.5,MacIntel,62.5,,,,,space,0.322,0,16,16,24,1,25,training,zh2x,e,zh2x_e,zh2x_5_exe.wav,,exe.jpg,,,,,,,,,,,,,,,,,,,,,,,,,,,,,,,,,
5d7de72016b0a00001c36af3,2023-06-16_21h25.56.462,phx_ver10,2022.2.5,MacIntel,62.5,,,,,space,0.257,0,17,17,23,1,24,training,zh2x,e,zh2x_e,zh2x_4_ezhe.wav,,ezhe.jpg,,,,,,,,,,,,,,,,,,,,,,,,,,,,,,,,,
5d7de72016b0a00001c36af3,2023-06-16_21h25.56.462,phx_ver10,2022.2.5,MacIntel,62.5,,,,,,,,,,,,,attn_test,,,,zh2x_8_ixi.wav,zh2x_1_izhi.wav,izhi.jpg,RIGHT,,f,1.209,space,1.602,0,0,0,0,1,,,,,,,,,,,,,,,,,,,,,,
5d7de72016b0a00001c36af3,2023-06-16_21h25.56.462,phx_ver10,2022.2.5,MacIntel,62.5,,,,,space,0.45,0,18,18,9,1,10,training,zh2x,a,zh2x_a,zh2x_6_axa.wav,,axa.jpg,,,,,,,,,,,,,,,,,,,,,,,,,,,,,,,,,
5d7de72016b0a00001c36af3,2023-06-16_21h25.56.462,phx_ver10,2022.2.5,MacIntel,62.5,,,,,space,0.302,0,19,19,22,1,23,training,zh2x,e,zh2x_e,zh2x_3_ezhe.wav,,ezhe.jpg,,,,,,,,,,,,,,,,,,,,,,,,,,,,,,,,,
5d7de72016b0a00001c36af3,2023-06-16_21h25.56.462,phx_ver10,2022.2.5,MacIntel,62.5,,,,,space,0.316,0,20,20,41,1,42,training,zh2x,i,zh2x_i,zh2x_6_ixi.wav,,ixi.jpg,,,,,,,,,,,,,,,,,,,,,,,,,,,,,,,,,
5d7de72016b0a00001c36af3,2023-06-16_21h25.56.462,phx_ver10,2022.2.5,MacIntel,62.5,,,,,space,0.234,0,21,21,32,1,33,training,zh2x,i,zh2x_i,zh2x_1_izhi.wav,,izhi.jpg,,,,,,,,,,,,,,,,,,,,,,,,,,,,,,,,,
5d7de72016b0a00001c36af3,2023-06-16_21h25.56.462,phx_ver10,2022.2.5,MacIntel,62.5,,,,,space,0.267,0,22,22,21,1,22,training,zh2x,e,zh2x_e,zh2x_3_ezhe.wav,,ezhe.jpg,,,,,,,,,,,,,,,,,,,,,,,,,,,,,,,,,
5d7de72016b0a00001c36af3,2023-06-16_21h25.56.462,phx_ver10,2022.2.5,MacIntel,62.5,,,,,space,0.27,0,23,23,2,1,3,training,zh2x,a,zh2x_a,zh2x_2_azha.wav,,azha.jpg,,,,,,,,,,,,,,,,,,,,,,,,,,,,,,,,,
5d7de72016b0a00001c36af3,2023-06-16_21h25.56.462,phx_ver10,2022.2.5,MacIntel,62.5,,,,,,,,,,,,,attn_test,,,,zh2x_1_azha.wav,zh2x_8_axa.wav,axa.jpg,RIGHT,,f,0.641,space,0.903,0,0,0,0,1,,,,,,,,,,,,,,,,,,,,,,
5d7de72016b0a00001c36af3,2023-06-16_21h25.56.462,phx_ver10,2022.2.5,MacIntel,62.5,,,,,space,0.221,0,24,24,45,1,46,training,zh2x,i,zh2x_i,zh2x_7_ixi.wav,,ixi.jpg,,,,,,,,,,,,,,,,,,,,,,,,,,,,,,,,,
5d7de72016b0a00001c36af3,2023-06-16_21h25.56.462,phx_ver10,2022.2.5,MacIntel,62.5,,,,,space,0.383,0,25,25,31,1,32,training,zh2x,e,zh2x_e,zh2x_8_exe.wav,,exe.jpg,,,,,,,,,,,,,,,,,,,,,,,,,,,,,,,,,
5d7de72016b0a00001c36af3,2023-06-16_21h25.56.462,phx_ver10,2022.2.5,MacIntel,62.5,,,,,space,0.285,0,26,26,16,1,17,training,zh2x,e,zh2x_e,zh2x_1_ezhe.wav,,ezhe.jpg,,,,,,,,,,,,,,,,,,,,,,,,,,,,,,,,,
5d7de72016b0a00001c36af3,2023-06-16_21h25.56.462,phx_ver10,2022.2.5,MacIntel,62.5,,,,,space,0.352,0,27,27,37,1,38,training,zh2x,i,zh2x_i,zh2x_3_izhi.wav,,izhi.jpg,,,,,,,,,,,,,,,,,,,,,,,,,,,,,,,,,
5d7de72016b0a00001c36af3,2023-06-16_21h25.56.462,phx_ver10,2022.2.5,MacIntel,62.5,,,,,space,0.267,0,28,28,26,1,27,training,zh2x,e,zh2x_e,zh2x_6_exe.wav,,exe.jpg,,,,,,,,,,,,,,,,,,,,,,,,,,,,,,,,,
5d7de72016b0a00001c36af3,2023-06-16_21h25.56.462,phx_ver10,2022.2.5,MacIntel,62.5,,,,,space,0.201,0,29,29,39,1,40,training,zh2x,i,zh2x_i,zh2x_4_izhi.wav,,izhi.jpg,,,,,,,,,,,,,,,,,,,,,,,,,,,,,,,,,
5d7de72016b0a00001c36af3,2023-06-16_21h25.56.462,phx_ver10,2022.2.5,MacIntel,62.5,,,,,,,,,,,,,attn_test,,,,zh2x_1_izhi.wav,zh2x_8_exe.wav,izhi.jpg,LEFT,,f,0.433,space,0.733,0,0,0,0,1,,,,,,,,,,,,,,,,,,,,,,
5d7de72016b0a00001c36af3,2023-06-16_21h25.56.462,phx_ver10,2022.2.5,MacIntel,62.5,,,,,space,0.134,0,30,30,33,1,34,training,zh2x,i,zh2x_i,zh2x_2_izhi.wav,,izhi.jpg,,,,,,,,,,,,,,,,,,,,,,,,,,,,,,,,,
5d7de72016b0a00001c36af3,2023-06-16_21h25.56.462,phx_ver10,2022.2.5,MacIntel,62.5,,,,,space,0.458,0,31,31,25,1,26,training,zh2x,e,zh2x_e,zh2x_6_exe.wav,,exe.jpg,,,,,,,,,,,,,,,,,,,,,,,,,,,,,,,,,
5d7de72016b0a00001c36af3,2023-06-16_21h25.56.462,phx_ver10,2022.2.5,MacIntel,62.5,,,,,space,0.034,0,32,32,8,1,9,training,zh2x,a,zh2x_a,zh2x_5_axa.wav,,axa.jpg,,,,,,,,,,,,,,,,,,,,,,,,,,,,,,,,,
5d7de72016b0a00001c36af3,2023-06-16_21h25.56.462,phx_ver10,2022.2.5,MacIntel,62.5,,,,,space,0.683,0,33,33,11,1,12,training,zh2x,a,zh2x_a,zh2x_7_axa.wav,,axa.jpg,,,,,,,,,,,,,,,,,,,,,,,,,,,,,,,,,
5d7de72016b0a00001c36af3,2023-06-16_21h25.56.462,phx_ver10,2022.2.5,MacIntel,62.5,,,,,space,0.258,0,34,34,13,1,14,training,zh2x,a,zh2x_a,zh2x_7_axa.wav,,axa.jpg,,,,,,,,,,,,,,,,,,,,,,,,,,,,,,,,,
5d7de72016b0a00001c36af3,2023-06-16_21h25.56.462,phx_ver10,2022.2.5,MacIntel,62.5,,,,,space,0.505,0,35,35,28,1,29,training,zh2x,e,zh2x_e,zh2x_7_exe.wav,,exe.jpg,,,,,,,,,,,,,,,,,,,,,,,,,,,,,,,,,
5d7de72016b0a00001c36af3,2023-06-16_21h25.56.462,phx_ver10,2022.2.5,MacIntel,62.5,,,,,,,,,,,,,attn_test,,,,zh2x_8_axa.wav,zh2x_8_ixi.wav,axa.jpg,LEFT,,f,0.399,space,0.717,0,0,0,0,1,,,,,,,,,,,,,,,,,,,,,,
5d7de72016b0a00001c36af3,2023-06-16_21h25.56.462,phx_ver10,2022.2.5,MacIntel,62.5,,,,,space,0.2,0,36,36,17,1,18,training,zh2x,e,zh2x_e,zh2x_2_ezhe.wav,,ezhe.jpg,,,,,,,,,,,,,,,,,,,,,,,,,,,,,,,,,
5d7de72016b0a00001c36af3,2023-06-16_21h25.56.462,phx_ver10,2022.2.5,MacIntel,62.5,,,,,space,0.217,0,37,37,6,1,7,training,zh2x,a,zh2x_a,zh2x_3_azha.wav,,azha.jpg,,,,,,,,,,,,,,,,,,,,,,,,,,,,,,,,,
5d7de72016b0a00001c36af3,2023-06-16_21h25.56.462,phx_ver10,2022.2.5,MacIntel,62.5,,,,,space,0.576,0,38,38,14,1,15,training,zh2x,a,zh2x_a,zh2x_7_axa.wav,,axa.jpg,,,,,,,,,,,,,,,,,,,,,,,,,,,,,,,,,
5d7de72016b0a00001c36af3,2023-06-16_21h25.56.462,phx_ver10,2022.2.5,MacIntel,62.5,,,,,space,0.285,0,39,39,42,1,43,training,zh2x,i,zh2x_i,zh2x_6_ixi.wav,,ixi.jpg,,,,,,,,,,,,,,,,,,,,,,,,,,,,,,,,,
5d7de72016b0a00001c36af3,2023-06-16_21h25.56.462,phx_ver10,2022.2.5,MacIntel,62.5,,,,,space,0.251,0,40,40,5,1,6,training,zh2x,a,zh2x_a,zh2x_3_azha.wav,,azha.jpg,,,,,,,,,,,,,,,,,,,,,,,,,,,,,,,,,
5d7de72016b0a00001c36af3,2023-06-16_21h25.56.462,phx_ver10,2022.2.5,MacIntel,62.5,,,,,space,0.501,0,41,41,43,1,44,training,zh2x,i,zh2x_i,zh2x_7_ixi.wav,,ixi.jpg,,,,,,,,,,,,,,,,,,,,,,,,,,,,,,,,,
5d7de72016b0a00001c36af3,2023-06-16_21h25.56.462,phx_ver10,2022.2.5,MacIntel,62.5,,,,,,,,,,,,,attn_test,,,,zh2x_8_ixi.wav,zh2x_8_axa.wav,ixi.jpg,LEFT,,f,0.191,space,0.75,0,0,0,0,1,,,,,,,,,,,,,,,,,,,,,,
5d7de72016b0a00001c36af3,2023-06-16_21h25.56.462,phx_ver10,2022.2.5,MacIntel,62.5,,,,,space,0.233,0,42,42,15,1,16,training,zh2x,a,zh2x_a,zh2x_8_axa.wav,,axa.jpg,,,,,,,,,,,,,,,,,,,,,,,,,,,,,,,,,
5d7de72016b0a00001c36af3,2023-06-16_21h25.56.462,phx_ver10,2022.2.5,MacIntel,62.5,,,,,space,0.033,0,43,43,7,1,8,training,zh2x,a,zh2x_a,zh2x_4_azha.wav,,azha.jpg,,,,,,,,,,,,,,,,,,,,,,,,,,,,,,,,,
5d7de72016b0a00001c36af3,2023-06-16_21h25.56.462,phx_ver10,2022.2.5,MacIntel,62.5,,,,,space,0.034,0,44,44,4,1,5,training,zh2x,a,zh2x_a,zh2x_2_azha.wav,,azha.jpg,,,,,,,,,,,,,,,,,,,,,,,,,,,,,,,,,
5d7de72016b0a00001c36af3,2023-06-16_21h25.56.462,phx_ver10,2022.2.5,MacIntel,62.5,,,,,space,0.332,0,45,45,40,1,41,training,zh2x,i,zh2x_i,zh2x_5_ixi.wav,,ixi.jpg,,,,,,,,,,,,,,,,,,,,,,,,,,,,,,,,,
5d7de72016b0a00001c36af3,2023-06-16_21h25.56.462,phx_ver10,2022.2.5,MacIntel,62.5,,,,,space,0.192,0,46,46,1,1,2,training,zh2x,a,zh2x_a,zh2x_2_azha.wav,,azha.jpg,,,,,,,,,,,,,,,,,,,,,,,,,,,,,,,,,
5d7de72016b0a00001c36af3,2023-06-16_21h25.56.462,phx_ver10,2022.2.5,MacIntel,62.5,,,,,space,0.316,0,47,47,3,1,4,training,zh2x,a,zh2x_a,zh2x_2_azha.wav,,azha.jpg,,,,,,,,,,,,,,,,,,,,,,,,,,,,,,,,,
5d7de72016b0a00001c36af3,2023-06-16_21h25.56.462,phx_ver10,2022.2.5,MacIntel,62.5,,,,,,,,,,,,,attn_test,,,,zh2x_8_axa.wav,zh2x_8_exe.wav,axa.jpg,LEFT,,f,1.274,space,1.583,,,,,,,,,,,,,,,,,,,,,,,,,,,
5d7de72016b0a00001c36af3,2023-06-16_21h25.56.462,phx_ver10,2022.2.5,MacIntel,62.5,,,,,,,,,,,,,,,,,,,,,,,,,,,,,,,space,0.483,,,,,,,,,,,,,,,,,,,,
5d7de72016b0a00001c36af3,2023-06-16_21h25.56.462,phx_ver10,2022.2.5,MacIntel,62.5,,,,,,,,,,,,,,,,,,,,,,,,,,,,,,,,,space,2.249,,,,,,,,,,,,,,,,,,
5d7de72016b0a00001c36af3,2023-06-16_21h25.56.462,phx_ver10,2022.2.5,MacIntel,62.5,,,,,,,,,,,,3,testing_pre,,,,afa.wav,aha.wav,,FALSE,,,,,,,,,,,,,,,j,0.906,space,1.311,0,0,0,2,1,,,,,,,,,
5d7de72016b0a00001c36af3,2023-06-16_21h25.56.462,phx_ver10,2022.2.5,MacIntel,62.5,,,,,,,,,,,,2,testing_pre,,,,auhau.wav,aufau.wav,,FALSE,,,,,,,,,,,,,,,j,1.584,space,1.886,0,1,1,1,1,,,,,,,,,
5d7de72016b0a00001c36af3,2023-06-16_21h25.56.462,phx_ver10,2022.2.5,MacIntel,62.5,,,,,,,,,,,,4,testing_pre,,,,eihei.wav,eihei.wav,,TRUE,,,,,,,,,,,,,,,f,0.618,space,0.884,0,2,2,3,1,,,,,,,,,
5d7de72016b0a00001c36af3,2023-06-16_21h25.56.462,phx_ver10,2022.2.5,MacIntel,62.5,,,,,,,,,,,,1,testing_pre,,,,ifi.wav,ifi.wav,,TRUE,,,,,,,,,,,,,,,f,0.087,space,0.366,0,3,3,0,1,,,,,,,,,
5d7de72016b0a00001c36af3,2023-06-16_21h25.56.462,phx_ver10,2022.2.5,MacIntel,62.5,,,,,,,,,,,,5,testing_pre,,,,ihi.wav,ifi.wav,,FALSE,,,,,,,,,,,,,,,j,0.075,space,0.334,0,4,4,4,1,,,,,,,,,
5d7de72016b0a00001c36af3,2023-06-16_21h25.56.462,phx_ver10,2022.2.5,MacIntel,62.5,,,,,,,,,,,,,,,,,,,,,,,,,,,,,,,,,,,,,,,,,,,,space,0.737,,,,,,,
5d7de72016b0a00001c36af3,2023-06-16_21h25.56.462,phx_ver10,2022.2.5,MacIntel,62.5,,,,,,,,,,,,2,testing_1,zh2x,a,zh2x_a,zh2x_8_axa.wav,zh2x_8_axa_copy.wav,,TRUE,TRUE,,,,,,,,,,,,,,f,0.575,space,0.857,,,,,,,,0,0,0,1,1,,
5d7de72016b0a00001c36af3,2023-06-16_21h25.56.462,phx_ver10,2022.2.5,MacIntel,62.5,,,,,,,,,,,,137,testing_3,sh2j,ei,sh2j_ei,sh2j_1_eishei.wav,sh2j_1_eishei.wav,,TRUE,FALSE,,,,,,,,,,,,,,f,0.292,space,0.54,,,,,,,,0,1,1,136,1,,
5d7de72016b0a00001c36af3,2023-06-16_21h25.56.462,phx_ver10,2022.2.5,MacIntel,62.5,,,,,,,,,,,,88,testing_3,j2x,e,j2x_e,j2x_8_exe.wav,j2x_1_eje.wav,,FALSE,FALSE,,,,,,,,,,,,,,j,0.143,space,0.417,,,,,,,,0,2,2,87,1,,
5d7de72016b0a00001c36af3,2023-06-16_21h25.56.462,phx_ver10,2022.2.5,MacIntel,62.5,,,,,,,,,,,,33,testing_3,zh2sh,au,zh2sh_au,zh2sh_1_auzhau.wav,zh2sh_1_auzhau.wav,,TRUE,FALSE,,,,,,,,,,,,,,f,0.075,space,0.307,,,,,,,,0,3,3,32,1,,
5d7de72016b0a00001c36af3,2023-06-16_21h25.56.462,phx_ver10,2022.2.5,MacIntel,62.5,,,,,,,,,,,,23,testing_2,zh2x,ei,zh2x_ei,zh2x_1_eizhei.wav,zh2x_8_eixei.wav,,FALSE,FALSE,,,,,,,,,,,,,,j,0.485,space,0.703,,,,,,,,0,4,4,22,1,,
5d7de72016b0a00001c36af3,2023-06-16_21h25.56.462,phx_ver10,2022.2.5,MacIntel,62.5,,,,,,,,,,,,91,testing_3,j2x,ei,j2x_ei,j2x_1_eijei.wav,j2x_8_eixei.wav,,FALSE,FALSE,,,,,,,,,,,,,,j,0.167,space,0.434,,,,,,,,0,5,5,90,1,,
5d7de72016b0a00001c36af3,2023-06-16_21h25.56.462,phx_ver10,2022.2.5,MacIntel,62.5,,,,,,,,,,,,37,testing_3,zh2sh,e,zh2sh_e,zh2sh_1_ezhe.wav,zh2sh_1_ezhe.wav,,TRUE,FALSE,,,,,,,,,,,,,,f,0.167,space,0.472,,,,,,,,0,6,6,36,1,,
5d7de72016b0a00001c36af3,2023-06-16_21h25.56.462,phx_ver10,2022.2.5,MacIntel,62.5,,,,,,,,,,,,18,testing_2,zh2x,au,zh2x_au,zh2x_8_auxau.wav,zh2x_8_auxau.wav,,TRUE,FALSE,,,,,,,,,,,,,,f,0.092,space,0.366,,,,,,,,0,7,7,17,1,,
5d7de72016b0a00001c36af3,2023-06-16_21h25.56.462,phx_ver10,2022.2.5,MacIntel,62.5,,,,,,,,,,,,134,testing_3,sh2j,e,sh2j_e,sh2j_8_eje.wav,sh2j_8_eje.wav,,TRUE,FALSE,,,,,,,,,,,,,,f,0.622,space,0.838,,,,,,,,0,8,8,133,1,,
5d7de72016b0a00001c36af3,2023-06-16_21h25.56.462,phx_ver10,2022.2.5,MacIntel,62.5,,,,,,,,,,,,79,testing_3,j2x,ai,j2x_ai,j2x_1_aijai.wav,j2x_8_aixai.wav,,FALSE,FALSE,,,,,,,,,,,,,,j,0.084,space,0.387,,,,,,,,0,9,9,78,1,,
5d7de72016b0a00001c36af3,2023-06-16_21h25.56.462,phx_ver10,2022.2.5,MacIntel,62.5,,,,,,,,,,,,77,testing_3,j2x,ai,j2x_ai,j2x_1_aijai.wav,j2x_1_aijai.wav,,TRUE,FALSE,,,,,,,,,,,,,,f,0.218,space,0.477,,,,,,,,0,10,10,76,1,,
5d7de72016b0a00001c36af3,2023-06-16_21h25.56.462,phx_ver10,2022.2.5,MacIntel,62.5,,,,,,,,,,,,53,testing_3,zh2j,ai,zh2j_ai,zh2j_1_aizhai.wav,zh2j_1_aizhai.wav,,TRUE,FALSE,,,,,,,,,,,,,,f,0.116,space,0.34,,,,,,,,0,11,11,52,1,,
5d7de72016b0a00001c36af3,2023-06-16_21h25.56.462,phx_ver10,2022.2.5,MacIntel,62.5,,,,,,,,,,,,81,testing_3,j2x,au,j2x_au,j2x_1_aujau.wav,j2x_1_aujau.wav,,TRUE,FALSE,,,,,,,,,,,,,,f,0.45,space,0.707,,,,,,,,0,12,12,80,1,,
5d7de72016b0a00001c36af3,2023-06-16_21h25.56.462,phx_ver10,2022.2.5,MacIntel,62.5,,,,,,,,,,,,31,testing_3,zh2sh,ai,zh2sh_ai,zh2sh_1_aizhai.wav,zh2sh_8_aishai.wav,,FALSE,FALSE,,,,,,,,,,,,,,j,0.072,space,0.419,,,,,,,,0,13,13,30,1,,
5d7de72016b0a00001c36af3,2023-06-16_21h25.56.462,phx_ver10,2022.2.5,MacIntel,62.5,,,,,,,,,,,,24,testing_2,zh2x,ei,zh2x_ei,zh2x_8_eixei.wav,zh2x_1_eizhei.wav,,FALSE,FALSE,,,,,,,,,,,,,,j,0.017,space,0.341,,,,,,,,0,14,14,23,1,,
5d7de72016b0a00001c36af3,2023-06-16_21h25.56.462,phx_ver10,2022.2.5,MacIntel,62.5,,,,,,,,,,,,97,testing_3,sh2x,a,sh2x_a,sh2x_1_asha.wav,sh2x_1_asha.wav,,TRUE,FALSE,,,,,,,,,,,,,,f,0.072,space,0.257,,,,,,,,0,15,15,96,1,,
5d7de72016b0a00001c36af3,2023-06-16_21h25.56.462,phx_ver10,2022.2.5,MacIntel,62.5,,,,,,,,,,,,74,testing_3,j2x,a,j2x_a,j2x_8_axa.wav,j2x_8_axa.wav,,TRUE,FALSE,,,,,,,,,,,,,,f,0.142,space,0.354,,,,,,,,0,16,16,73,1,,
5d7de72016b0a00001c36af3,2023-06-16_21h25.56.462,phx_ver10,2022.2.5,MacIntel,62.5,,,,,,,,,,,,22,testing_2,zh2x,ei,zh2x_ei,zh2x_8_eixei.wav,zh2x_8_eixei.wav,,TRUE,FALSE,,,,,,,,,,,,,,f,0.075,space,0.35,,,,,,,,0,17,17,21,1,,
5d7de72016b0a00001c36af3,2023-06-16_21h25.56.462,phx_ver10,2022.2.5,MacIntel,62.5,,,,,,,,,,,,66,testing_3,zh2j,ei,zh2j_ei,zh2j_8_eijei.wav,zh2j_8_eijei.wav,,TRUE,FALSE,,,,,,,,,,,,,,f,0.451,space,0.701,,,,,,,,0,18,18,65,1,,
5d7de72016b0a00001c36af3,2023-06-16_21h25.56.462,phx_ver10,2022.2.5,MacIntel,62.5,,,,,,,,,,,,71,testing_3,zh2j,i,zh2j_i,zh2j_1_izhi.wav,zh2j_8_iji.wav,,FALSE,FALSE,,,,,,,,,,,,,,f,0.184,space,0.399,,,,,,,,0,19,19,70,1,,
5d7de72016b0a00001c36af3,2023-06-16_21h25.56.462,phx_ver10,2022.2.5,MacIntel,62.5,,,,,,,,,,,,103,testing_3,sh2x,ai,sh2x_ai,sh2x_1_aishai.wav,sh2x_8_aixai.wav,,FALSE,FALSE,,,,,,,,,,,,,,f,0.101,space,0.303,,,,,,,,0,20,20,102,1,,
5d7de72016b0a00001c36af3,2023-06-16_21h25.56.462,phx_ver10,2022.2.5,MacIntel,62.5,,,,,,,,,,,,101,testing_3,sh2x,ai,sh2x_ai,sh2x_1_aishai.wav,sh2x_1_aishai.wav,,TRUE,FALSE,,,,,,,,,,,,,,f,0.117,space,0.4,,,,,,,,0,21,21,100,1,,
5d7de72016b0a00001c36af3,2023-06-16_21h25.56.462,phx_ver10,2022.2.5,MacIntel,62.5,,,,,,,,,,,,6,testing_1,zh2x,e,zh2x_e,zh2x_8_exe.wav,zh2x_8_exe_copy.wav,,TRUE,TRUE,,,,,,,,,,,,,,f,0.042,space,0.234,,,,,,,,0,22,22,5,1,,
5d7de72016b0a00001c36af3,2023-06-16_21h25.56.462,phx_ver10,2022.2.5,MacIntel,62.5,,,,,,,,,,,,42,testing_3,zh2sh,ei,zh2sh_ei,zh2sh_8_eishei.wav,zh2sh_8_eishei.wav,,TRUE,FALSE,,,,,,,,,,,,,,f,0.001,space,0.317,,,,,,,,0,23,23,41,1,,
5d7de72016b0a00001c36af3,2023-06-16_21h25.56.462,phx_ver10,2022.2.5,MacIntel,62.5,,,,,,,,,,,,108,testing_3,sh2x,au,sh2x_au,sh2x_8_auxau.wav,sh2x_1_aushau.wav,,FALSE,FALSE,,,,,,,,,,,,,,f,0.555,space,0.72,,,,,,,,0,24,24,107,1,,
5d7de72016b0a00001c36af3,2023-06-16_21h25.56.462,phx_ver10,2022.2.5,MacIntel,62.5,,,,,,,,,,,,52,testing_3,zh2j,a,zh2j_a,zh2j_8_aja.wav,zh2j_1_azha.wav,,FALSE,FALSE,,,,,,,,,,,,,,f,0.072,space,0.3,,,,,,,,0,25,25,51,1,,
5d7de72016b0a00001c36af3,2023-06-16_21h25.56.462,phx_ver10,2022.2.5,MacIntel,62.5,,,,,,,,,,,,128,testing_3,sh2j,ai,sh2j_ai,sh2j_8_aijai.wav,sh2j_1_aishai.wav,,FALSE,FALSE,,,,,,,,,,,,,,j,0.139,space,0.451,,,,,,,,0,26,26,127,1,,
5d7de72016b0a00001c36af3,2023-06-16_21h25.56.462,phx_ver10,2022.2.5,MacIntel,62.5,,,,,,,,,,,,121,testing_3,sh2j,a,sh2j_a,sh2j_1_asha.wav,sh2j_1_asha.wav,,TRUE,FALSE,,,,,,,,,,,,,,f,0.27,space,0.599,,,,,,,,0,27,27,120,1,,
5d7de72016b0a00001c36af3,2023-06-16_21h25.56.462,phx_ver10,2022.2.5,MacIntel,62.5,,,,,,,,,,,,90,testing_3,j2x,ei,j2x_ei,j2x_8_eixei.wav,j2x_8_eixei.wav,,TRUE,FALSE,,,,,,,,,,,,,,f,0.6,space,0.87,,,,,,,,0,28,28,89,1,,
5d7de72016b0a00001c36af3,2023-06-16_21h25.56.462,phx_ver10,2022.2.5,MacIntel,62.5,,,,,,,,,,,,95,testing_3,j2x,i,j2x_i,j2x_1_iji.wav,j2x_8_ixi.wav,,FALSE,FALSE,,,,,,,,,,,,,,f,0.44,space,0.72,,,,,,,,0,29,29,94,1,,
5d7de72016b0a00001c36af3,2023-06-16_21h25.56.462,phx_ver10,2022.2.5,MacIntel,62.5,,,,,,,,,,,,113,testing_3,sh2x,ei,sh2x_ei,sh2x_1_eishei.wav,sh2x_1_eishei.wav,,TRUE,FALSE,,,,,,,,,,,,,,f,0.117,space,0.39,,,,,,,,0,30,30,112,1,,
5d7de72016b0a00001c36af3,2023-06-16_21h25.56.462,phx_ver10,2022.2.5,MacIntel,62.5,,,,,,,,,,,,11,testing_1,zh2x,i,zh2x_i,zh2x_1_izhi.wav,zh2x_8_ixi.wav,,FALSE,TRUE,,,,,,,,,,,,,,j,0.455,space,0.8,,,,,,,,0,31,31,10,1,,
5d7de72016b0a00001c36af3,2023-06-16_21h25.56.462,phx_ver10,2022.2.5,MacIntel,62.5,,,,,,,,,,,,138,testing_3,sh2j,ei,sh2j_ei,sh2j_8_eijei.wav,sh2j_8_eijei.wav,,TRUE,FALSE,,,,,,,,,,,,,,f,0.15,space,0.409,,,,,,,,0,32,32,137,1,,
5d7de72016b0a00001c36af3,2023-06-16_21h25.56.462,phx_ver10,2022.2.5,MacIntel,62.5,,,,,,,,,,,,114,testing_3,sh2x,ei,sh2x_ei,sh2x_8_eixei.wav,sh2x_8_eixei.wav,,TRUE,FALSE,,,,,,,,,,,,,,f,0.134,space,0.366,,,,,,,,0,33,33,113,1,,
5d7de72016b0a00001c36af3,2023-06-16_21h25.56.462,phx_ver10,2022.2.5,MacIntel,62.5,,,,,,,,,,,,143,testing_3,sh2j,i,sh2j_i,sh2j_1_ishi.wav,sh2j_8_iji.wav,,FALSE,FALSE,,,,,,,,,,,,,,f,0.676,space,0.884,,,,,,,,0,34,34,142,1,,
5d7de72016b0a00001c36af3,2023-06-16_21h25.56.462,phx_ver10,2022.2.5,MacIntel,62.5,,,,,,,,,,,,102,testing_3,sh2x,ai,sh2x_ai,sh2x_8_aixai.wav,sh2x_8_aixai.wav,,TRUE,FALSE,,,,,,,,,,,,,,f,0.074,space,0.34,,,,,,,,0,35,35,101,1,,
5d7de72016b0a00001c36af3,2023-06-16_21h25.56.462,phx_ver10,2022.2.5,MacIntel,62.5,,,,,,,,,,,,59,testing_3,zh2j,au,zh2j_au,zh2j_1_auzhau.wav,zh2j_8_aujau.wav,,FALSE,FALSE,,,,,,,,,,,,,,f,0.017,space,0.216,,,,,,,,0,36,36,58,1,,
5d7de72016b0a00001c36af3,2023-06-16_21h25.56.462,phx_ver10,2022.2.5,MacIntel,62.5,,,,,,,,,,,,73,testing_3,j2x,a,j2x_a,j2x_1_aja.wav,j2x_1_aja.wav,,TRUE,FALSE,,,,,,,,,,,,,,f,0.074,space,0.267,,,,,,,,0,37,37,72,1,,
5d7de72016b0a00001c36af3,2023-06-16_21h25.56.462,phx_ver10,2022.2.5,MacIntel,62.5,,,,,,,,,,,,38,testing_3,zh2sh,e,zh2sh_e,zh2sh_8_eshe.wav,zh2sh_8_eshe.wav,,TRUE,FALSE,,,,,,,,,,,,,,f,0.574,space,0.806,,,,,,,,0,38,38,37,1,,
5d7de72016b0a00001c36af3,2023-06-16_21h25.56.462,phx_ver10,2022.2.5,MacIntel,62.5,,,,,,,,,,,,116,testing_3,sh2x,ei,sh2x_ei,sh2x_8_eixei.wav,sh2x_1_eishei.wav,,FALSE,FALSE,,,,,,,,,,,,,,f,0.139,space,0.42,,,,,,,,0,39,39,115,1,,
5d7de72016b0a00001c36af3,2023-06-16_21h25.56.462,phx_ver10,2022.2.5,MacIntel,62.5,,,,,,,,,,,,17,testing_2,zh2x,au,zh2x_au,zh2x_1_auzhau.wav,zh2x_1_auzhau.wav,,TRUE,FALSE,,,,,,,,,,,,,,f,0.073,space,0.383,,,,,,,,0,40,40,16,1,,
5d7de72016b0a00001c36af3,2023-06-16_21h25.56.462,phx_ver10,2022.2.5,MacIntel,62.5,,,,,,,,,,,,29,testing_3,zh2sh,ai,zh2sh_ai,zh2sh_1_aizhai.wav,zh2sh_1_aizhai.wav,,TRUE,FALSE,,,,,,,,,,,,,,f,0.134,space,0.401,,,,,,,,0,41,41,28,1,,
5d7de72016b0a00001c36af3,2023-06-16_21h25.56.462,phx_ver10,2022.2.5,MacIntel,62.5,,,,,,,,,,,,16,testing_2,zh2x,ai,zh2x_ai,zh2x_8_aixai.wav,zh2x_1_aizhai.wav,,FALSE,FALSE,,,,,,,,,,,,,,j,0.024,space,0.368,,,,,,,,0,42,42,15,1,,
5d7de72016b0a00001c36af3,2023-06-16_21h25.56.462,phx_ver10,2022.2.5,MacIntel,62.5,,,,,,,,,,,,13,testing_2,zh2x,ai,zh2x_ai,zh2x_1_aizhai.wav,zh2x_1_aizhai.wav,,TRUE,FALSE,,,,,,,,,,,,,,f,0.026,space,0.223,,,,,,,,0,43,43,12,1,,
5d7de72016b0a00001c36af3,2023-06-16_21h25.56.462,phx_ver10,2022.2.5,MacIntel,62.5,,,,,,,,,,,,78,testing_3,j2x,ai,j2x_ai,j2x_8_aixai.wav,j2x_8_aixai.wav,,TRUE,FALSE,,,,,,,,,,,,,,f,0.018,space,0.268,,,,,,,,0,44,44,77,1,,
5d7de72016b0a00001c36af3,2023-06-16_21h25.56.462,phx_ver10,2022.2.5,MacIntel,62.5,,,,,,,,,,,,65,testing_3,zh2j,ei,zh2j_ei,zh2j_1_eizhei.wav,zh2j_1_eizhei.wav,,TRUE,FALSE,,,,,,,,,,,,,,f,0.018,space,0.235,,,,,,,,0,45,45,64,1,,
5d7de72016b0a00001c36af3,2023-06-16_21h25.56.462,phx_ver10,2022.2.5,MacIntel,62.5,,,,,,,,,,,,70,testing_3,zh2j,i,zh2j_i,zh2j_8_iji.wav,zh2j_8_iji.wav,,TRUE,FALSE,,,,,,,,,,,,,,f,0.037,space,0.25,,,,,,,,0,46,46,69,1,,
5d7de72016b0a00001c36af3,2023-06-16_21h25.56.462,phx_ver10,2022.2.5,MacIntel,62.5,,,,,,,,,,,,62,testing_3,zh2j,e,zh2j_e,zh2j_8_eje.wav,zh2j_8_eje.wav,,TRUE,FALSE,,,,,,,,,,,,,,f,0.025,space,0.25,,,,,,,,0,47,47,61,1,,
5d7de72016b0a00001c36af3,2023-06-16_21h25.56.462,phx_ver10,2022.2.5,MacIntel,62.5,,,,,,,,,,,,84,testing_3,j2x,au,j2x_au,j2x_8_auxau.wav,j2x_1_aujau.wav,,FALSE,FALSE,,,,,,,,,,,,,,j,0.003,space,0.236,,,,,,,,0,48,48,83,1,,
5d7de72016b0a00001c36af3,2023-06-16_21h25.56.462,phx_ver10,2022.2.5,MacIntel,62.5,,,,,,,,,,,,89,testing_3,j2x,ei,j2x_ei,j2x_1_eijei.wav,j2x_1_eijei.wav,,TRUE,FALSE,,,,,,,,,,,,,,f,0.017,space,0.354,,,,,,,,0,49,49,88,1,,
5d7de72016b0a00001c36af3,2023-06-16_21h25.56.462,phx_ver10,2022.2.5,MacIntel,62.5,,,,,,,,,,,,3,testing_1,zh2x,a,zh2x_a,zh2x_1_azha.wav,zh2x_8_axa.wav,,FALSE,TRUE,,,,,,,,,,,,,,j,1.99,space,2.233,,,,,,,,0,50,50,2,1,,
5d7de72016b0a00001c36af3,2023-06-16_21h25.56.462,phx_ver10,2022.2.5,MacIntel,62.5,,,,,,,,,,,,20,testing_2,zh2x,au,zh2x_au,zh2x_8_auxau.wav,zh2x_1_auzhau.wav,,FALSE,FALSE,,,,,,,,,,,,,,j,0.485,space,0.722,,,,,,,,0,51,51,19,1,,
5d7de72016b0a00001c36af3,2023-06-16_21h25.56.462,phx_ver10,2022.2.5,MacIntel,62.5,,,,,,,,,,,,40,testing_3,zh2sh,e,zh2sh_e,zh2sh_8_eshe.wav,zh2sh_1_ezhe.wav,,FALSE,FALSE,,,,,,,,,,,,,,j,0.167,space,0.352,,,,,,,,0,52,52,39,1,,
5d7de72016b0a00001c36af3,2023-06-16_21h25.56.462,phx_ver10,2022.2.5,MacIntel,62.5,,,,,,,,,,,,64,testing_3,zh2j,e,zh2j_e,zh2j_8_eje.wav,zh2j_1_ezhe.wav,,FALSE,FALSE,,,,,,,,,,,,,,f,0.018,space,0.237,,,,,,,,0,53,53,63,1,,
5d7de72016b0a00001c36af3,2023-06-16_21h25.56.462,phx_ver10,2022.2.5,MacIntel,62.5,,,,,,,,,,,,104,testing_3,sh2x,ai,sh2x_ai,sh2x_8_aixai.wav,sh2x_1_aishai.wav,,FALSE,FALSE,,,,,,,,,,,,,,f,0.306,space,0.552,,,,,,,,0,54,54,103,1,,
5d7de72016b0a00001c36af3,2023-06-16_21h25.56.462,phx_ver10,2022.2.5,MacIntel,62.5,,,,,,,,,,,,99,testing_3,sh2x,a,sh2x_a,sh2x_1_asha.wav,sh2x_8_axa.wav,,FALSE,FALSE,,,,,,,,,,,,,,f,0.15,space,0.371,,,,,,,,0,55,55,98,1,,
5d7de72016b0a00001c36af3,2023-06-16_21h25.56.462,phx_ver10,2022.2.5,MacIntel,62.5,,,,,,,,,,,,82,testing_3,j2x,au,j2x_au,j2x_8_auxau.wav,j2x_8_auxau.wav,,TRUE,FALSE,,,,,,,,,,,,,,f,0.084,space,0.406,,,,,,,,0,56,56,81,1,,
5d7de72016b0a00001c36af3,2023-06-16_21h25.56.462,phx_ver10,2022.2.5,MacIntel,62.5,,,,,,,,,,,,46,testing_3,zh2sh,i,zh2sh_i,zh2sh_8_ishi.wav,zh2sh_8_ishi.wav,,TRUE,FALSE,,,,,,,,,,,,,,f,0.075,space,0.303,,,,,,,,0,57,57,45,1,,
5d7de72016b0a00001c36af3,2023-06-16_21h25.56.462,phx_ver10,2022.2.5,MacIntel,62.5,,,,,,,,,,,,4,testing_1,zh2x,a,zh2x_a,zh2x_8_axa.wav,zh2x_1_azha.wav,,FALSE,TRUE,,,,,,,,,,,,,,j,0.041,space,0.267,,,,,,,,0,58,58,3,1,,
5d7de72016b0a00001c36af3,2023-06-16_21h25.56.462,phx_ver10,2022.2.5,MacIntel,62.5,,,,,,,,,,,,12,testing_1,zh2x,i,zh2x_i,zh2x_8_ixi.wav,zh2x_1_izhi.wav,,FALSE,TRUE,,,,,,,,,,,,,,f,0.05,space,0.267,,,,,,,,0,59,59,11,1,,
5d7de72016b0a00001c36af3,2023-06-16_21h25.56.462,phx_ver10,2022.2.5,MacIntel,62.5,,,,,,,,,,,,111,testing_3,sh2x,e,sh2x_e,sh2x_1_eshe.wav,sh2x_8_exe.wav,,FALSE,FALSE,,,,,,,,,,,,,,f,0.053,space,0.267,,,,,,,,0,60,60,110,1,,
5d7de72016b0a00001c36af3,2023-06-16_21h25.56.462,phx_ver10,2022.2.5,MacIntel,62.5,,,,,,,,,,,,131,testing_3,sh2j,au,sh2j_au,sh2j_1_aushau.wav,sh2j_8_aujau.wav,,FALSE,FALSE,,,,,,,,,,,,,,j,0.542,space,0.867,,,,,,,,0,61,61,130,1,,
5d7de72016b0a00001c36af3,2023-06-16_21h25.56.462,phx_ver10,2022.2.5,MacIntel,62.5,,,,,,,,,,,,39,testing_3,zh2sh,e,zh2sh_e,zh2sh_1_ezhe.wav,zh2sh_8_eshe.wav,,FALSE,FALSE,,,,,,,,,,,,,,j,0.456,space,0.834,,,,,,,,0,62,62,38,1,,
5d7de72016b0a00001c36af3,2023-06-16_21h25.56.462,phx_ver10,2022.2.5,MacIntel,62.5,,,,,,,,,,,,118,testing_3,sh2x,i,sh2x_i,sh2x_8_ixi.wav,sh2x_8_ixi.wav,,TRUE,FALSE,,,,,,,,,,,,,,f,0.025,space,0.238,,,,,,,,0,63,63,117,1,,
5d7de72016b0a00001c36af3,2023-06-16_21h25.56.462,phx_ver10,2022.2.5,MacIntel,62.5,,,,,,,,,,,,87,testing_3,j2x,e,j2x_e,j2x_1_eje.wav,j2x_8_exe.wav,,FALSE,FALSE,,,,,,,,,,,,,,f,0.151,space,0.4,,,,,,,,0,64,64,86,1,,
5d7de72016b0a00001c36af3,2023-06-16_21h25.56.462,phx_ver10,2022.2.5,MacIntel,62.5,,,,,,,,,,,,51,testing_3,zh2j,a,zh2j_a,zh2j_1_azha.wav,zh2j_8_aja.wav,,FALSE,FALSE,,,,,,,,,,,,,,f,0.317,space,0.575,,,,,,,,0,65,65,50,1,,
5d7de72016b0a00001c36af3,2023-06-16_21h25.56.462,phx_ver10,2022.2.5,MacIntel,62.5,,,,,,,,,,,,49,testing_3,zh2j,a,zh2j_a,zh2j_1_azha.wav,zh2j_1_azha.wav,,TRUE,FALSE,,,,,,,,,,,,,,f,0.05,space,0.287,,,,,,,,0,66,66,48,1,,
5d7de72016b0a00001c36af3,2023-06-16_21h25.56.462,phx_ver10,2022.2.5,MacIntel,62.5,,,,,,,,,,,,106,testing_3,sh2x,au,sh2x_au,sh2x_8_auxau.wav,sh2x_8_auxau.wav,,TRUE,FALSE,,,,,,,,,,,,,,f,0.376,space,1.251,,,,,,,,0,67,67,105,1,,
5d7de72016b0a00001c36af3,2023-06-16_21h25.56.462,phx_ver10,2022.2.5,MacIntel,62.5,,,,,,,,,,,,120,testing_3,sh2x,i,sh2x_i,sh2x_8_ixi.wav,sh2x_1_ishi.wav,,FALSE,FALSE,,,,,,,,,,,,,,f,0.091,space,0.3,,,,,,,,0,68,68,119,1,,
5d7de72016b0a00001c36af3,2023-06-16_21h25.56.462,phx_ver10,2022.2.5,MacIntel,62.5,,,,,,,,,,,,15,testing_2,zh2x,ai,zh2x_ai,zh2x_1_aizhai.wav,zh2x_8_aixai.wav,,FALSE,FALSE,,,,,,,,,,,,,,j,0.059,space,0.288,,,,,,,,0,69,69,14,1,,
5d7de72016b0a00001c36af3,2023-06-16_21h25.56.462,phx_ver10,2022.2.5,MacIntel,62.5,,,,,,,,,,,,7,testing_1,zh2x,e,zh2x_e,zh2x_1_ezhe.wav,zh2x_8_exe.wav,,FALSE,TRUE,,,,,,,,,,,,,,f,0.123,space,0.384,,,,,,,,0,70,70,6,1,,
5d7de72016b0a00001c36af3,2023-06-16_21h25.56.462,phx_ver10,2022.2.5,MacIntel,62.5,,,,,,,,,,,,68,testing_3,zh2j,ei,zh2j_ei,zh2j_8_eijei.wav,zh2j_1_eizhei.wav,,FALSE,FALSE,,,,,,,,,,,,,,f,0.29,space,0.555,,,,,,,,0,71,71,67,1,,
5d7de72016b0a00001c36af3,2023-06-16_21h25.56.462,phx_ver10,2022.2.5,MacIntel,62.5,,,,,,,,,,,,119,testing_3,sh2x,i,sh2x_i,sh2x_1_ishi.wav,sh2x_8_ixi.wav,,FALSE,FALSE,,,,,,,,,,,,,,f,0.049,space,0.254,,,,,,,,0,72,72,118,1,,
5d7de72016b0a00001c36af3,2023-06-16_21h25.56.462,phx_ver10,2022.2.5,MacIntel,62.5,,,,,,,,,,,,124,testing_3,sh2j,a,sh2j_a,sh2j_8_aja.wav,sh2j_1_asha.wav,,FALSE,FALSE,,,,,,,,,,,,,,j,0.101,space,0.333,,,,,,,,0,73,73,123,1,,
5d7de72016b0a00001c36af3,2023-06-16_21h25.56.462,phx_ver10,2022.2.5,MacIntel,62.5,,,,,,,,,,,,47,testing_3,zh2sh,i,zh2sh_i,zh2sh_1_izhi.wav,zh2sh_8_ishi.wav,,FALSE,FALSE,,,,,,,,,,,,,,j,0.074,space,0.289,,,,,,,,0,74,74,46,1,,
5d7de72016b0a00001c36af3,2023-06-16_21h25.56.462,phx_ver10,2022.2.5,MacIntel,62.5,,,,,,,,,,,,133,testing_3,sh2j,e,sh2j_e,sh2j_1_eshe.wav,sh2j_1_eshe.wav,,TRUE,FALSE,,,,,,,,,,,,,,f,0.592,space,0.806,,,,,,,,0,75,75,132,1,,
5d7de72016b0a00001c36af3,2023-06-16_21h25.56.462,phx_ver10,2022.2.5,MacIntel,62.5,,,,,,,,,,,,112,testing_3,sh2x,e,sh2x_e,sh2x_8_exe.wav,sh2x_1_eshe.wav,,FALSE,FALSE,,,,,,,,,,,,,,f,0.059,space,0.484,,,,,,,,0,76,76,111,1,,
5d7de72016b0a00001c36af3,2023-06-16_21h25.56.462,phx_ver10,2022.2.5,MacIntel,62.5,,,,,,,,,,,,144,testing_3,sh2j,i,sh2j_i,sh2j_8_iji.wav,sh2j_1_ishi.wav,,FALSE,FALSE,,,,,,,,,,,,,,f,0.083,space,0.282,,,,,,,,0,77,77,143,1,,
5d7de72016b0a00001c36af3,2023-06-16_21h25.56.462,phx_ver10,2022.2.5,MacIntel,62.5,,,,,,,,,,,,67,testing_3,zh2j,ei,zh2j_ei,zh2j_1_eizhei.wav,zh2j_8_eijei.wav,,FALSE,FALSE,,,,,,,,,,,,,,f,0.017,space,0.25,,,,,,,,0,78,78,66,1,,
5d7de72016b0a00001c36af3,2023-06-16_21h25.56.462,phx_ver10,2022.2.5,MacIntel,62.5,,,,,,,,,,,,100,testing_3,sh2x,a,sh2x_a,sh2x_8_axa.wav,sh2x_1_asha.wav,,FALSE,FALSE,,,,,,,,,,,,,,f,0.4,space,0.634,,,,,,,,0,79,79,99,1,,
5d7de72016b0a00001c36af3,2023-06-16_21h25.56.462,phx_ver10,2022.2.5,MacIntel,62.5,,,,,,,,,,,,41,testing_3,zh2sh,ei,zh2sh_ei,zh2sh_1_eizhei.wav,zh2sh_1_eizhei.wav,,TRUE,FALSE,,,,,,,,,,,,,,f,0.333,space,0.587,,,,,,,,0,80,80,40,1,,
5d7de72016b0a00001c36af3,2023-06-16_21h25.56.462,phx_ver10,2022.2.5,MacIntel,62.5,,,,,,,,,,,,69,testing_3,zh2j,i,zh2j_i,zh2j_1_izhi.wav,zh2j_1_izhi.wav,,TRUE,FALSE,,,,,,,,,,,,,,f,0.221,space,0.49,,,,,,,,0,81,81,68,1,,
5d7de72016b0a00001c36af3,2023-06-16_21h25.56.462,phx_ver10,2022.2.5,MacIntel,62.5,,,,,,,,,,,,122,testing_3,sh2j,a,sh2j_a,sh2j_8_aja.wav,sh2j_8_aja.wav,,TRUE,FALSE,,,,,,,,,,,,,,f,0.238,space,0.576,,,,,,,,0,82,82,121,1,,
5d7de72016b0a00001c36af3,2023-06-16_21h25.56.462,phx_ver10,2022.2.5,MacIntel,62.5,,,,,,,,,,,,26,testing_3,zh2sh,a,zh2sh_a,zh2sh_8_asha.wav,zh2sh_8_asha.wav,,TRUE,FALSE,,,,,,,,,,,,,,f,0.234,space,0.534,,,,,,,,0,83,83,25,1,,
5d7de72016b0a00001c36af3,2023-06-16_21h25.56.462,phx_ver10,2022.2.5,MacIntel,62.5,,,,,,,,,,,,34,testing_3,zh2sh,au,zh2sh_au,zh2sh_8_aushau.wav,zh2sh_8_aushau.wav,,TRUE,FALSE,,,,,,,,,,,,,,f,0.168,space,0.517,,,,,,,,0,84,84,33,1,,
5d7de72016b0a00001c36af3,2023-06-16_21h25.56.462,phx_ver10,2022.2.5,MacIntel,62.5,,,,,,,,,,,,63,testing_3,zh2j,e,zh2j_e,zh2j_1_ezhe.wav,zh2j_8_eje.wav,,FALSE,FALSE,,,,,,,,,,,,,,f,0.2,space,0.453,,,,,,,,0,85,85,62,1,,
5d7de72016b0a00001c36af3,2023-06-16_21h25.56.462,phx_ver10,2022.2.5,MacIntel,62.5,,,,,,,,,,,,30,testing_3,zh2sh,ai,zh2sh_ai,zh2sh_8_aishai.wav,zh2sh_8_aishai.wav,,TRUE,FALSE,,,,,,,,,,,,,,f,0.206,space,0.533,,,,,,,,0,86,86,29,1,,
5d7de72016b0a00001c36af3,2023-06-16_21h25.56.462,phx_ver10,2022.2.5,MacIntel,62.5,,,,,,,,,,,,50,testing_3,zh2j,a,zh2j_a,zh2j_8_aja.wav,zh2j_8_aja.wav,,TRUE,FALSE,,,,,,,,,,,,,,f,0.153,space,0.418,,,,,,,,0,87,87,49,1,,
5d7de72016b0a00001c36af3,2023-06-16_21h25.56.462,phx_ver10,2022.2.5,MacIntel,62.5,,,,,,,,,,,,43,testing_3,zh2sh,ei,zh2sh_ei,zh2sh_1_eizhei.wav,zh2sh_8_eishei.wav,,FALSE,FALSE,,,,,,,,,,,,,,j,0.351,space,0.634,,,,,,,,0,88,88,42,1,,
5d7de72016b0a00001c36af3,2023-06-16_21h25.56.462,phx_ver10,2022.2.5,MacIntel,62.5,,,,,,,,,,,,93,testing_3,j2x,i,j2x_i,j2x_1_iji.wav,j2x_1_iji.wav,,TRUE,FALSE,,,,,,,,,,,,,,f,0.083,space,0.29,,,,,,,,0,89,89,92,1,,
5d7de72016b0a00001c36af3,2023-06-16_21h25.56.462,phx_ver10,2022.2.5,MacIntel,62.5,,,,,,,,,,,,129,testing_3,sh2j,au,sh2j_au,sh2j_1_aushau.wav,sh2j_1_aushau.wav,,TRUE,FALSE,,,,,,,,,,,,,,f,0.167,space,0.808,,,,,,,,0,90,90,128,1,,
5d7de72016b0a00001c36af3,2023-06-16_21h25.56.462,phx_ver10,2022.2.5,MacIntel,62.5,,,,,,,,,,,,142,testing_3,sh2j,i,sh2j_i,sh2j_8_iji.wav,sh2j_8_iji.wav,,TRUE,FALSE,,,,,,,,,,,,,,f,0.426,space,0.75,,,,,,,,0,91,91,141,1,,
5d7de72016b0a00001c36af3,2023-06-16_21h25.56.462,phx_ver10,2022.2.5,MacIntel,62.5,,,,,,,,,,,,28,testing_3,zh2sh,a,zh2sh_a,zh2sh_8_asha.wav,zh2sh_1_azha.wav,,FALSE,FALSE,,,,,,,,,,,,,,j,0.341,space,0.567,,,,,,,,0,92,92,27,1,,
5d7de72016b0a00001c36af3,2023-06-16_21h25.56.462,phx_ver10,2022.2.5,MacIntel,62.5,,,,,,,,,,,,48,testing_3,zh2sh,i,zh2sh_i,zh2sh_8_ishi.wav,zh2sh_1_izhi.wav,,FALSE,FALSE,,,,,,,,,,,,,,j,0.368,space,0.517,,,,,,,,0,93,93,47,1,,
5d7de72016b0a00001c36af3,2023-06-16_21h25.56.462,phx_ver10,2022.2.5,MacIntel,62.5,,,,,,,,,,,,76,testing_3,j2x,a,j2x_a,j2x_8_axa.wav,j2x_1_aja.wav,,FALSE,FALSE,,,,,,,,,,,,,,f,0.517,space,0.666,,,,,,,,0,94,94,75,1,,
5d7de72016b0a00001c36af3,2023-06-16_21h25.56.462,phx_ver10,2022.2.5,MacIntel,62.5,,,,,,,,,,,,105,testing_3,sh2x,au,sh2x_au,sh2x_1_aushau.wav,sh2x_1_aushau.wav,,TRUE,FALSE,,,,,,,,,,,,,,f,0.071,space,0.268,,,,,,,,0,95,95,104,1,,
5d7de72016b0a00001c36af3,2023-06-16_21h25.56.462,phx_ver10,2022.2.5,MacIntel,62.5,,,,,,,,,,,,140,testing_3,sh2j,ei,sh2j_ei,sh2j_8_eijei.wav,sh2j_1_eishei.wav,,FALSE,FALSE,,,,,,,,,,,,,,f,0.152,space,0.4,,,,,,,,0,96,96,139,1,,
5d7de72016b0a00001c36af3,2023-06-16_21h25.56.462,phx_ver10,2022.2.5,MacIntel,62.5,,,,,,,,,,,,54,testing_3,zh2j,ai,zh2j_ai,zh2j_8_aijai.wav,zh2j_8_aijai.wav,,TRUE,FALSE,,,,,,,,,,,,,,f,0.157,space,0.374,,,,,,,,0,97,97,53,1,,
5d7de72016b0a00001c36af3,2023-06-16_21h25.56.462,phx_ver10,2022.2.5,MacIntel,62.5,,,,,,,,,,,,72,testing_3,zh2j,i,zh2j_i,zh2j_8_iji.wav,zh2j_1_izhi.wav,,FALSE,FALSE,,,,,,,,,,,,,,f,0.137,space,0.4,,,,,,,,0,98,98,71,1,,
5d7de72016b0a00001c36af3,2023-06-16_21h25.56.462,phx_ver10,2022.2.5,MacIntel,62.5,,,,,,,,,,,,21,testing_2,zh2x,ei,zh2x_ei,zh2x_1_eizhei.wav,zh2x_1_eizhei.wav,,TRUE,FALSE,,,,,,,,,,,,,,f,0.001,space,0.202,,,,,,,,0,99,99,20,1,,
5d7de72016b0a00001c36af3,2023-06-16_21h25.56.462,phx_ver10,2022.2.5,MacIntel,62.5,,,,,,,,,,,,85,testing_3,j2x,e,j2x_e,j2x_1_eje.wav,j2x_1_eje.wav,,TRUE,FALSE,,,,,,,,,,,,,,f,0.384,space,0.541,,,,,,,,0,100,100,84,1,,
5d7de72016b0a00001c36af3,2023-06-16_21h25.56.462,phx_ver10,2022.2.5,MacIntel,62.5,,,,,,,,,,,,61,testing_3,zh2j,e,zh2j_e,zh2j_1_ezhe.wav,zh2j_1_ezhe.wav,,TRUE,FALSE,,,,,,,,,,,,,,f,0.2,space,0.438,,,,,,,,0,101,101,60,1,,
5d7de72016b0a00001c36af3,2023-06-16_21h25.56.462,phx_ver10,2022.2.5,MacIntel,62.5,,,,,,,,,,,,45,testing_3,zh2sh,i,zh2sh_i,zh2sh_1_izhi.wav,zh2sh_1_izhi.wav,,TRUE,FALSE,,,,,,,,,,,,,,f,0.192,space,0.409,,,,,,,,0,102,102,44,1,,
5d7de72016b0a00001c36af3,2023-06-16_21h25.56.462,phx_ver10,2022.2.5,MacIntel,62.5,,,,,,,,,,,,36,testing_3,zh2sh,au,zh2sh_au,zh2sh_8_aushau.wav,zh2sh_1_auzhau.wav,,FALSE,FALSE,,,,,,,,,,,,,,j,0.001,space,0.24,,,,,,,,0,103,103,35,1,,
5d7de72016b0a00001c36af3,2023-06-16_21h25.56.462,phx_ver10,2022.2.5,MacIntel,62.5,,,,,,,,,,,,132,testing_3,sh2j,au,sh2j_au,sh2j_8_aujau.wav,sh2j_1_aushau.wav,,FALSE,FALSE,,,,,,,,,,,,,,j,0.29,space,0.54,,,,,,,,0,104,104,131,1,,
5d7de72016b0a00001c36af3,2023-06-16_21h25.56.462,phx_ver10,2022.2.5,MacIntel,62.5,,,,,,,,,,,,130,testing_3,sh2j,au,sh2j_au,sh2j_8_aujau.wav,sh2j_8_aujau.wav,,TRUE,FALSE,,,,,,,,,,,,,,f,0.156,space,0.484,,,,,,,,0,105,105,129,1,,
5d7de72016b0a00001c36af3,2023-06-16_21h25.56.462,phx_ver10,2022.2.5,MacIntel,62.5,,,,,,,,,,,,98,testing_3,sh2x,a,sh2x_a,sh2x_8_axa.wav,sh2x_8_axa.wav,,TRUE,FALSE,,,,,,,,,,,,,,f,0.138,space,0.338,,,,,,,,0,106,106,97,1,,
5d7de72016b0a00001c36af3,2023-06-16_21h25.56.462,phx_ver10,2022.2.5,MacIntel,62.5,,,,,,,,,,,,126,testing_3,sh2j,ai,sh2j_ai,sh2j_8_aijai.wav,sh2j_8_aijai.wav,,TRUE,FALSE,,,,,,,,,,,,,,f,0.073,space,0.372,,,,,,,,0,107,107,125,1,,
5d7de72016b0a00001c36af3,2023-06-16_21h25.56.462,phx_ver10,2022.2.5,MacIntel,62.5,,,,,,,,,,,,136,testing_3,sh2j,e,sh2j_e,sh2j_8_eje.wav,sh2j_1_eshe.wav,,FALSE,FALSE,,,,,,,,,,,,,,j,0.031,space,0.273,,,,,,,,0,108,108,135,1,,
5d7de72016b0a00001c36af3,2023-06-16_21h25.56.462,phx_ver10,2022.2.5,MacIntel,62.5,,,,,,,,,,,,10,testing_1,zh2x,i,zh2x_i,zh2x_8_ixi.wav,zh2x_8_ixi_copy.wav,,TRUE,TRUE,,,,,,,,,,,,,,f,0.153,space,0.405,,,,,,,,0,109,109,9,1,,
5d7de72016b0a00001c36af3,2023-06-16_21h25.56.462,phx_ver10,2022.2.5,MacIntel,62.5,,,,,,,,,,,,139,testing_3,sh2j,ei,sh2j_ei,sh2j_1_eishei.wav,sh2j_8_eijei.wav,,FALSE,FALSE,,,,,,,,,,,,,,j,0.57,space,0.754,,,,,,,,0,110,110,138,1,,
5d7de72016b0a00001c36af3,2023-06-16_21h25.56.462,phx_ver10,2022.2.5,MacIntel,62.5,,,,,,,,,,,,1,testing_1,zh2x,a,zh2x_a,zh2x_1_azha.wav,zh2x_1_azha_copy.wav,,TRUE,TRUE,,,,,,,,,,,,,,f,0.133,space,0.305,,,,,,,,0,111,111,0,1,,
5d7de72016b0a00001c36af3,2023-06-16_21h25.56.462,phx_ver10,2022.2.5,MacIntel,62.5,,,,,,,,,,,,80,testing_3,j2x,ai,j2x_ai,j2x_8_aixai.wav,j2x_1_aijai.wav,,FALSE,FALSE,,,,,,,,,,,,,,j,0.086,space,0.35,,,,,,,,0,112,112,79,1,,
5d7de72016b0a00001c36af3,2023-06-16_21h25.56.462,phx_ver10,2022.2.5,MacIntel,62.5,,,,,,,,,,,,125,testing_3,sh2j,ai,sh2j_ai,sh2j_1_aishai.wav,sh2j_1_aishai.wav,,TRUE,FALSE,,,,,,,,,,,,,,f,0.084,space,0.334,,,,,,,,0,113,113,124,1,,
5d7de72016b0a00001c36af3,2023-06-16_21h25.56.462,phx_ver10,2022.2.5,MacIntel,62.5,,,,,,,,,,,,141,testing_3,sh2j,i,sh2j_i,sh2j_1_ishi.wav,sh2j_1_ishi.wav,,TRUE,FALSE,,,,,,,,,,,,,,f,0.005,space,0.226,,,,,,,,0,114,114,140,1,,
5d7de72016b0a00001c36af3,2023-06-16_21h25.56.462,phx_ver10,2022.2.5,MacIntel,62.5,,,,,,,,,,,,83,testing_3,j2x,au,j2x_au,j2x_1_aujau.wav,j2x_8_auxau.wav,,FALSE,FALSE,,,,,,,,,,,,,,j,0.308,space,0.533,,,,,,,,0,115,115,82,1,,
5d7de72016b0a00001c36af3,2023-06-16_21h25.56.462,phx_ver10,2022.2.5,MacIntel,62.5,,,,,,,,,,,,5,testing_1,zh2x,e,zh2x_e,zh2x_1_ezhe.wav,zh2x_1_ezhe_copy.wav,,TRUE,TRUE,,,,,,,,,,,,,,f,0.052,space,0.218,,,,,,,,0,116,116,4,1,,
5d7de72016b0a00001c36af3,2023-06-16_21h25.56.462,phx_ver10,2022.2.5,MacIntel,62.5,,,,,,,,,,,,127,testing_3,sh2j,ai,sh2j_ai,sh2j_1_aishai.wav,sh2j_8_aijai.wav,,FALSE,FALSE,,,,,,,,,,,,,,j,0.369,space,0.57,,,,,,,,0,117,117,126,1,,
5d7de72016b0a00001c36af3,2023-06-16_21h25.56.462,phx_ver10,2022.2.5,MacIntel,62.5,,,,,,,,,,,,75,testing_3,j2x,a,j2x_a,j2x_1_aja.wav,j2x_8_axa.wav,,FALSE,FALSE,,,,,,,,,,,,,,j,1.404,space,1.6,,,,,,,,0,118,118,74,1,,
5d7de72016b0a00001c36af3,2023-06-16_21h25.56.462,phx_ver10,2022.2.5,MacIntel,62.5,,,,,,,,,,,,9,testing_1,zh2x,i,zh2x_i,zh2x_1_izhi.wav,zh2x_1_izhi_copy.wav,,TRUE,TRUE,,,,,,,,,,,,,,f,0.155,space,0.434,,,,,,,,0,119,119,8,1,,
5d7de72016b0a00001c36af3,2023-06-16_21h25.56.462,phx_ver10,2022.2.5,MacIntel,62.5,,,,,,,,,,,,117,testing_3,sh2x,i,sh2x_i,sh2x_1_ishi.wav,sh2x_1_ishi.wav,,TRUE,FALSE,,,,,,,,,,,,,,f,0.084,space,0.35,,,,,,,,0,120,120,116,1,,
5d7de72016b0a00001c36af3,2023-06-16_21h25.56.462,phx_ver10,2022.2.5,MacIntel,62.5,,,,,,,,,,,,57,testing_3,zh2j,au,zh2j_au,zh2j_1_auzhau.wav,zh2j_1_auzhau.wav,,TRUE,FALSE,,,,,,,,,,,,,,f,0.967,space,1.15,,,,,,,,0,121,121,56,1,,
5d7de72016b0a00001c36af3,2023-06-16_21h25.56.462,phx_ver10,2022.2.5,MacIntel,62.5,,,,,,,,,,,,14,testing_2,zh2x,ai,zh2x_ai,zh2x_8_aixai.wav,zh2x_8_aixai.wav,,TRUE,FALSE,,,,,,,,,,,,,,f,0.232,space,0.699,,,,,,,,0,122,122,13,1,,
5d7de72016b0a00001c36af3,2023-06-16_21h25.56.462,phx_ver10,2022.2.5,MacIntel,62.5,,,,,,,,,,,,107,testing_3,sh2x,au,sh2x_au,sh2x_1_aushau.wav,sh2x_8_auxau.wav,,FALSE,FALSE,,,,,,,,,,,,,,f,4.124,space,4.399,,,,,,,,0,123,123,106,1,,
5d7de72016b0a00001c36af3,2023-06-16_21h25.56.462,phx_ver10,2022.2.5,MacIntel,62.5,,,,,,,,,,,,123,testing_3,sh2j,a,sh2j_a,sh2j_1_asha.wav,sh2j_8_aja.wav,,FALSE,FALSE,,,,,,,,,,,,,,f,0.701,space,1.02,,,,,,,,0,124,124,122,1,,
5d7de72016b0a00001c36af3,2023-06-16_21h25.56.462,phx_ver10,2022.2.5,MacIntel,62.5,,,,,,,,,,,,35,testing_3,zh2sh,au,zh2sh_au,zh2sh_1_auzhau.wav,zh2sh_8_aushau.wav,,FALSE,FALSE,,,,,,,,,,,,,,j,0.173,space,0.471,,,,,,,,0,125,125,34,1,,
5d7de72016b0a00001c36af3,2023-06-16_21h25.56.462,phx_ver10,2022.2.5,MacIntel,62.5,,,,,,,,,,,,56,testing_3,zh2j,ai,zh2j_ai,zh2j_8_aijai.wav,zh2j_1_aizhai.wav,,FALSE,FALSE,,,,,,,,,,,,,,f,0.101,space,0.356,,,,,,,,0,126,126,55,1,,
5d7de72016b0a00001c36af3,2023-06-16_21h25.56.462,phx_ver10,2022.2.5,MacIntel,62.5,,,,,,,,,,,,19,testing_2,zh2x,au,zh2x_au,zh2x_1_auzhau.wav,zh2x_8_auxau.wav,,FALSE,FALSE,,,,,,,,,,,,,,f,0.226,space,0.473,,,,,,,,0,127,127,18,1,,
5d7de72016b0a00001c36af3,2023-06-16_21h25.56.462,phx_ver10,2022.2.5,MacIntel,62.5,,,,,,,,,,,,55,testing_3,zh2j,ai,zh2j_ai,zh2j_1_aizhai.wav,zh2j_8_aijai.wav,,FALSE,FALSE,,,,,,,,,,,,,,f,1.034,space,1.226,,,,,,,,0,128,128,54,1,,
5d7de72016b0a00001c36af3,2023-06-16_21h25.56.462,phx_ver10,2022.2.5,MacIntel,62.5,,,,,,,,,,,,115,testing_3,sh2x,ei,sh2x_ei,sh2x_1_eishei.wav,sh2x_8_eixei.wav,,FALSE,FALSE,,,,,,,,,,,,,,j,2.66,space,2.923,,,,,,,,0,129,129,114,1,,
5d7de72016b0a00001c36af3,2023-06-16_21h25.56.462,phx_ver10,2022.2.5,MacIntel,62.5,,,,,,,,,,,,25,testing_3,zh2sh,a,zh2sh_a,zh2sh_1_azha.wav,zh2sh_1_azha.wav,,TRUE,FALSE,,,,,,,,,,,,,,f,0.451,space,0.861,,,,,,,,0,130,130,24,1,,
5d7de72016b0a00001c36af3,2023-06-16_21h25.56.462,phx_ver10,2022.2.5,MacIntel,62.5,,,,,,,,,,,,32,testing_3,zh2sh,ai,zh2sh_ai,zh2sh_8_aishai.wav,zh2sh_1_aizhai.wav,,FALSE,FALSE,,,,,,,,,,,,,,f,0.268,space,0.584,,,,,,,,0,131,131,31,1,,
5d7de72016b0a00001c36af3,2023-06-16_21h25.56.462,phx_ver10,2022.2.5,MacIntel,62.5,,,,,,,,,,,,96,testing_3,j2x,i,j2x_i,j2x_8_ixi.wav,j2x_1_iji.wav,,FALSE,FALSE,,,,,,,,,,,,,,f,0.385,space,0.553,,,,,,,,0,132,132,95,1,,
5d7de72016b0a00001c36af3,2023-06-16_21h25.56.462,phx_ver10,2022.2.5,MacIntel,62.5,,,,,,,,,,,,44,testing_3,zh2sh,ei,zh2sh_ei,zh2sh_8_eishei.wav,zh2sh_1_eizhei.wav,,FALSE,FALSE,,,,,,,,,,,,,,j,0.041,space,0.305,,,,,,,,0,133,133,43,1,,
5d7de72016b0a00001c36af3,2023-06-16_21h25.56.462,phx_ver10,2022.2.5,MacIntel,62.5,,,,,,,,,,,,58,testing_3,zh2j,au,zh2j_au,zh2j_8_aujau.wav,zh2j_8_aujau.wav,,TRUE,FALSE,,,,,,,,,,,,,,f,0.566,space,1.002,,,,,,,,0,134,134,57,1,,
5d7de72016b0a00001c36af3,2023-06-16_21h25.56.462,phx_ver10,2022.2.5,MacIntel,62.5,,,,,,,,,,,,92,testing_3,j2x,ei,j2x_ei,j2x_8_eixei.wav,j2x_1_eijei.wav,,FALSE,FALSE,,,,,,,,,,,,,,f,5.234,space,5.333,,,,,,,,0,135,135,91,1,,
5d7de72016b0a00001c36af3,2023-06-16_21h25.56.462,phx_ver10,2022.2.5,MacIntel,62.5,,,,,,,,,,,,135,testing_3,sh2j,e,sh2j_e,sh2j_1_eshe.wav,sh2j_8_eje.wav,,FALSE,FALSE,,,,,,,,,,,,,,j,0.133,space,0.389,,,,,,,,0,136,136,134,1,,
5d7de72016b0a00001c36af3,2023-06-16_21h25.56.462,phx_ver10,2022.2.5,MacIntel,62.5,,,,,,,,,,,,60,testing_3,zh2j,au,zh2j_au,zh2j_8_aujau.wav,zh2j_1_auzhau.wav,,FALSE,FALSE,,,,,,,,,,,,,,f,0.209,space,0.417,,,,,,,,0,137,137,59,1,,
5d7de72016b0a00001c36af3,2023-06-16_21h25.56.462,phx_ver10,2022.2.5,MacIntel,62.5,,,,,,,,,,,,8,testing_1,zh2x,e,zh2x_e,zh2x_8_exe.wav,zh2x_1_ezhe.wav,,FALSE,TRUE,,,,,,,,,,,,,,j,1.483,space,1.638,,,,,,,,0,138,138,7,1,,
5d7de72016b0a00001c36af3,2023-06-16_21h25.56.462,phx_ver10,2022.2.5,MacIntel,62.5,,,,,,,,,,,,86,testing_3,j2x,e,j2x_e,j2x_8_exe.wav,j2x_8_exe.wav,,TRUE,FALSE,,,,,,,,,,,,,,f,0.108,space,0.308,,,,,,,,0,139,139,85,1,,
5d7de72016b0a00001c36af3,2023-06-16_21h25.56.462,phx_ver10,2022.2.5,MacIntel,62.5,,,,,,,,,,,,110,testing_3,sh2x,e,sh2x_e,sh2x_8_exe.wav,sh2x_8_exe.wav,,TRUE,FALSE,,,,,,,,,,,,,,f,0.058,space,0.218,,,,,,,,0,140,140,109,1,,
5d7de72016b0a00001c36af3,2023-06-16_21h25.56.462,phx_ver10,2022.2.5,MacIntel,62.5,,,,,,,,,,,,94,testing_3,j2x,i,j2x_i,j2x_8_ixi.wav,j2x_8_ixi.wav,,TRUE,FALSE,,,,,,,,,,,,,,f,0.101,space,0.292,,,,,,,,0,141,141,93,1,,
5d7de72016b0a00001c36af3,2023-06-16_21h25.56.462,phx_ver10,2022.2.5,MacIntel,62.5,,,,,,,,,,,,27,testing_3,zh2sh,a,zh2sh_a,zh2sh_1_azha.wav,zh2sh_8_asha.wav,,FALSE,FALSE,,,,,,,,,,,,,,j,0.158,space,0.349,,,,,,,,0,142,142,26,1,,
5d7de72016b0a00001c36af3,2023-06-16_21h25.56.462,phx_ver10,2022.2.5,MacIntel,62.5,,,,,,,,,,,,109,testing_3,sh2x,e,sh2x_e,sh2x_1_eshe.wav,sh2x_1_eshe.wav,,TRUE,FALSE,,,,,,,,,,,,,,f,0.17,space,0.424,,,,,,,,0,143,143,108,1,,
5d7de72016b0a00001c36af3,2023-06-16_21h25.56.462,phx_ver10,2022.2.5,MacIntel,62.5,,,,,,,,,,,,,,,,,,,,,,,,,,,,,,,,,,,,,,,,,,,,,,,,,,,space,1.572
