participant,date,expName,psychopyVersion,OS,frameRate,space_1.keys,space_1.rt,space_2.keys,space_2.rt,space_train.keys,space_train.rt,training.thisRepN,training.thisTrialN,training.thisN,training.thisIndex,training.ran,token_id,task,continuum,vowel,series,sound_1,sound_2,img,same,trained,FJ_attn.keys,FJ_attn.rt,space_attn.keys,space_attn.rt,if_attn_test.thisRepN,if_attn_test.thisTrialN,if_attn_test.thisN,if_attn_test.thisIndex,if_attn_test.ran,space_trans_1.keys,space_trans_1.rt,space_trans_11.keys,space_trans_11.rt,FJ_test.keys,FJ_test.rt,space_test.keys,space_test.rt,testing_pre.thisRepN,testing_pre.thisTrialN,testing_pre.thisN,testing_pre.thisIndex,testing_pre.ran,space_trans_2.keys,space_trans_2.rt,testing_all.thisRepN,testing_all.thisTrialN,testing_all.thisN,testing_all.thisIndex,testing_all.ran,space_ending.keys,space_ending.rt
5dac7eaa59f37100128372d5,2023-06-16_10h16.25.776,phx_ver10,2022.2.5,Win32,60.13229104,,,,,,,,,,,,,,,,,,,,,,,,,,,,,,,,,,,,,,,,,,,,,,,,,,,,
5dac7eaa59f37100128372d5,2023-06-16_10h16.25.776,phx_ver10,2022.2.5,Win32,60.13229104,space,8.4821,,,,,,,,,,,,,,,,,,,,,,,,,,,,,,,,,,,,,,,,,,,,,,,,,,
5dac7eaa59f37100128372d5,2023-06-16_10h16.25.776,phx_ver10,2022.2.5,Win32,60.13229104,,,space,3.566,,,,,,,,,,,,,,,,,,,,,,,,,,,,,,,,,,,,,,,,,,,,,,,,
5dac7eaa59f37100128372d5,2023-06-16_10h16.25.776,phx_ver10,2022.2.5,Win32,60.13229104,,,,,space,9.4867,0,0,0,33,1,34,training,zh2x,i,zh2x_i,zh2x_2_izhi.wav,,izhi.jpg,,,,,,,,,,,,,,,,,,,,,,,,,,,,,,,,,
5dac7eaa59f37100128372d5,2023-06-16_10h16.25.776,phx_ver10,2022.2.5,Win32,60.13229104,,,,,space,2.0687,0,1,1,36,1,37,training,zh2x,i,zh2x_i,zh2x_2_izhi.wav,,izhi.jpg,,,,,,,,,,,,,,,,,,,,,,,,,,,,,,,,,
5dac7eaa59f37100128372d5,2023-06-16_10h16.25.776,phx_ver10,2022.2.5,Win32,60.13229104,,,,,space,1.4855,0,2,2,39,1,40,training,zh2x,i,zh2x_i,zh2x_4_izhi.wav,,izhi.jpg,,,,,,,,,,,,,,,,,,,,,,,,,,,,,,,,,
5dac7eaa59f37100128372d5,2023-06-16_10h16.25.776,phx_ver10,2022.2.5,Win32,60.13229104,,,,,space,3.9016,0,3,3,22,1,23,training,zh2x,e,zh2x_e,zh2x_3_ezhe.wav,,ezhe.jpg,,,,,,,,,,,,,,,,,,,,,,,,,,,,,,,,,
5dac7eaa59f37100128372d5,2023-06-16_10h16.25.776,phx_ver10,2022.2.5,Win32,60.13229104,,,,,space,2.8183,0,4,4,37,1,38,training,zh2x,i,zh2x_i,zh2x_3_izhi.wav,,izhi.jpg,,,,,,,,,,,,,,,,,,,,,,,,,,,,,,,,,
5dac7eaa59f37100128372d5,2023-06-16_10h16.25.776,phx_ver10,2022.2.5,Win32,60.13229104,,,,,space,2.6021,0,5,5,19,1,20,training,zh2x,e,zh2x_e,zh2x_2_ezhe.wav,,ezhe.jpg,,,,,,,,,,,,,,,,,,,,,,,,,,,,,,,,,
5dac7eaa59f37100128372d5,2023-06-16_10h16.25.776,phx_ver10,2022.2.5,Win32,60.13229104,,,,,,,,,,,,,attn_test,,,,zh2x_1_izhi.wav,zh2x_1_ezhe.wav,izhi.jpg,LEFT,,f,16.6498,space,22.2827,0,0,0,0,1,,,,,,,,,,,,,,,,,,,,,,
5dac7eaa59f37100128372d5,2023-06-16_10h16.25.776,phx_ver10,2022.2.5,Win32,60.13229104,,,,,space,3.3668,0,6,6,46,1,47,training,zh2x,i,zh2x_i,zh2x_7_ixi.wav,,ixi.jpg,,,,,,,,,,,,,,,,,,,,,,,,,,,,,,,,,
5dac7eaa59f37100128372d5,2023-06-16_10h16.25.776,phx_ver10,2022.2.5,Win32,60.13229104,,,,,space,1.9299,0,7,7,27,1,28,training,zh2x,e,zh2x_e,zh2x_7_exe.wav,,exe.jpg,,,,,,,,,,,,,,,,,,,,,,,,,,,,,,,,,
5dac7eaa59f37100128372d5,2023-06-16_10h16.25.776,phx_ver10,2022.2.5,Win32,60.13229104,,,,,space,1.97,0,8,8,13,1,14,training,zh2x,a,zh2x_a,zh2x_7_axa.wav,,axa.jpg,,,,,,,,,,,,,,,,,,,,,,,,,,,,,,,,,
5dac7eaa59f37100128372d5,2023-06-16_10h16.25.776,phx_ver10,2022.2.5,Win32,60.13229104,,,,,space,1.5681,0,9,9,28,1,29,training,zh2x,e,zh2x_e,zh2x_7_exe.wav,,exe.jpg,,,,,,,,,,,,,,,,,,,,,,,,,,,,,,,,,
5dac7eaa59f37100128372d5,2023-06-16_10h16.25.776,phx_ver10,2022.2.5,Win32,60.13229104,,,,,space,1.533,0,10,10,23,1,24,training,zh2x,e,zh2x_e,zh2x_4_ezhe.wav,,ezhe.jpg,,,,,,,,,,,,,,,,,,,,,,,,,,,,,,,,,
5dac7eaa59f37100128372d5,2023-06-16_10h16.25.776,phx_ver10,2022.2.5,Win32,60.13229104,,,,,space,1.0829,0,11,11,12,1,13,training,zh2x,a,zh2x_a,zh2x_7_axa.wav,,axa.jpg,,,,,,,,,,,,,,,,,,,,,,,,,,,,,,,,,
5dac7eaa59f37100128372d5,2023-06-16_10h16.25.776,phx_ver10,2022.2.5,Win32,60.13229104,,,,,,,,,,,,,attn_test,,,,zh2x_1_ezhe.wav,zh2x_8_ixi.wav,ezhe.jpg,LEFT,,f,9.0677,space,10.6347,0,0,0,0,1,,,,,,,,,,,,,,,,,,,,,,
5dac7eaa59f37100128372d5,2023-06-16_10h16.25.776,phx_ver10,2022.2.5,Win32,60.13229104,,,,,space,2.5024,0,12,12,16,1,17,training,zh2x,e,zh2x_e,zh2x_1_ezhe.wav,,ezhe.jpg,,,,,,,,,,,,,,,,,,,,,,,,,,,,,,,,,
5dac7eaa59f37100128372d5,2023-06-16_10h16.25.776,phx_ver10,2022.2.5,Win32,60.13229104,,,,,space,0.131,0,13,13,18,1,19,training,zh2x,e,zh2x_e,zh2x_2_ezhe.wav,,ezhe.jpg,,,,,,,,,,,,,,,,,,,,,,,,,,,,,,,,,
5dac7eaa59f37100128372d5,2023-06-16_10h16.25.776,phx_ver10,2022.2.5,Win32,60.13229104,,,,,space,1.1167,0,14,14,45,1,46,training,zh2x,i,zh2x_i,zh2x_7_ixi.wav,,ixi.jpg,,,,,,,,,,,,,,,,,,,,,,,,,,,,,,,,,
5dac7eaa59f37100128372d5,2023-06-16_10h16.25.776,phx_ver10,2022.2.5,Win32,60.13229104,,,,,space,0.2281,0,15,15,9,1,10,training,zh2x,a,zh2x_a,zh2x_6_axa.wav,,axa.jpg,,,,,,,,,,,,,,,,,,,,,,,,,,,,,,,,,
5dac7eaa59f37100128372d5,2023-06-16_10h16.25.776,phx_ver10,2022.2.5,Win32,60.13229104,,,,,space,0.3857,0,16,16,21,1,22,training,zh2x,e,zh2x_e,zh2x_3_ezhe.wav,,ezhe.jpg,,,,,,,,,,,,,,,,,,,,,,,,,,,,,,,,,
5dac7eaa59f37100128372d5,2023-06-16_10h16.25.776,phx_ver10,2022.2.5,Win32,60.13229104,,,,,space,0.2025,0,17,17,25,1,26,training,zh2x,e,zh2x_e,zh2x_6_exe.wav,,exe.jpg,,,,,,,,,,,,,,,,,,,,,,,,,,,,,,,,,
5dac7eaa59f37100128372d5,2023-06-16_10h16.25.776,phx_ver10,2022.2.5,Win32,60.13229104,,,,,,,,,,,,,attn_test,,,,zh2x_8_axa.wav,zh2x_8_exe.wav,axa.jpg,LEFT,,f,2.0401,space,3.2051,0,0,0,0,1,,,,,,,,,,,,,,,,,,,,,,
5dac7eaa59f37100128372d5,2023-06-16_10h16.25.776,phx_ver10,2022.2.5,Win32,60.13229104,,,,,space,1.1261,0,18,18,41,1,42,training,zh2x,i,zh2x_i,zh2x_6_ixi.wav,,ixi.jpg,,,,,,,,,,,,,,,,,,,,,,,,,,,,,,,,,
5dac7eaa59f37100128372d5,2023-06-16_10h16.25.776,phx_ver10,2022.2.5,Win32,60.13229104,,,,,space,0.7393,0,19,19,26,1,27,training,zh2x,e,zh2x_e,zh2x_6_exe.wav,,exe.jpg,,,,,,,,,,,,,,,,,,,,,,,,,,,,,,,,,
5dac7eaa59f37100128372d5,2023-06-16_10h16.25.776,phx_ver10,2022.2.5,Win32,60.13229104,,,,,space,0.135,0,20,20,42,1,43,training,zh2x,i,zh2x_i,zh2x_6_ixi.wav,,ixi.jpg,,,,,,,,,,,,,,,,,,,,,,,,,,,,,,,,,
5dac7eaa59f37100128372d5,2023-06-16_10h16.25.776,phx_ver10,2022.2.5,Win32,60.13229104,,,,,space,0.6622,0,21,21,2,1,3,training,zh2x,a,zh2x_a,zh2x_2_azha.wav,,azha.jpg,,,,,,,,,,,,,,,,,,,,,,,,,,,,,,,,,
5dac7eaa59f37100128372d5,2023-06-16_10h16.25.776,phx_ver10,2022.2.5,Win32,60.13229104,,,,,space,0.1022,0,22,22,35,1,36,training,zh2x,i,zh2x_i,zh2x_2_izhi.wav,,izhi.jpg,,,,,,,,,,,,,,,,,,,,,,,,,,,,,,,,,
5dac7eaa59f37100128372d5,2023-06-16_10h16.25.776,phx_ver10,2022.2.5,Win32,60.13229104,,,,,space,0.2009,0,23,23,20,1,21,training,zh2x,e,zh2x_e,zh2x_2_ezhe.wav,,ezhe.jpg,,,,,,,,,,,,,,,,,,,,,,,,,,,,,,,,,
5dac7eaa59f37100128372d5,2023-06-16_10h16.25.776,phx_ver10,2022.2.5,Win32,60.13229104,,,,,,,,,,,,,attn_test,,,,zh2x_8_ixi.wav,zh2x_1_ezhe.wav,ixi.jpg,LEFT,,f,1.8345,space,4.8669,0,0,0,0,1,,,,,,,,,,,,,,,,,,,,,,
5dac7eaa59f37100128372d5,2023-06-16_10h16.25.776,phx_ver10,2022.2.5,Win32,60.13229104,,,,,space,0.8012,0,24,24,30,1,31,training,zh2x,e,zh2x_e,zh2x_7_exe.wav,,exe.jpg,,,,,,,,,,,,,,,,,,,,,,,,,,,,,,,,,
5dac7eaa59f37100128372d5,2023-06-16_10h16.25.776,phx_ver10,2022.2.5,Win32,60.13229104,,,,,space,0.1345,0,25,25,8,1,9,training,zh2x,a,zh2x_a,zh2x_5_axa.wav,,axa.jpg,,,,,,,,,,,,,,,,,,,,,,,,,,,,,,,,,
5dac7eaa59f37100128372d5,2023-06-16_10h16.25.776,phx_ver10,2022.2.5,Win32,60.13229104,,,,,space,0.0344,0,26,26,31,1,32,training,zh2x,e,zh2x_e,zh2x_8_exe.wav,,exe.jpg,,,,,,,,,,,,,,,,,,,,,,,,,,,,,,,,,
5dac7eaa59f37100128372d5,2023-06-16_10h16.25.776,phx_ver10,2022.2.5,Win32,60.13229104,,,,,space,0.2012,0,27,27,1,1,2,training,zh2x,a,zh2x_a,zh2x_2_azha.wav,,azha.jpg,,,,,,,,,,,,,,,,,,,,,,,,,,,,,,,,,
5dac7eaa59f37100128372d5,2023-06-16_10h16.25.776,phx_ver10,2022.2.5,Win32,60.13229104,,,,,space,0.0429,0,28,28,47,1,48,training,zh2x,i,zh2x_i,zh2x_8_ixi.wav,,ixi.jpg,,,,,,,,,,,,,,,,,,,,,,,,,,,,,,,,,
5dac7eaa59f37100128372d5,2023-06-16_10h16.25.776,phx_ver10,2022.2.5,Win32,60.13229104,,,,,space,0.6678,0,29,29,32,1,33,training,zh2x,i,zh2x_i,zh2x_1_izhi.wav,,izhi.jpg,,,,,,,,,,,,,,,,,,,,,,,,,,,,,,,,,
5dac7eaa59f37100128372d5,2023-06-16_10h16.25.776,phx_ver10,2022.2.5,Win32,60.13229104,,,,,,,,,,,,,attn_test,,,,zh2x_8_axa.wav,zh2x_1_izhi.wav,axa.jpg,LEFT,,f,1.9798,space,3.0835,0,0,0,0,1,,,,,,,,,,,,,,,,,,,,,,
5dac7eaa59f37100128372d5,2023-06-16_10h16.25.776,phx_ver10,2022.2.5,Win32,60.13229104,,,,,space,0.7517,0,30,30,14,1,15,training,zh2x,a,zh2x_a,zh2x_7_axa.wav,,axa.jpg,,,,,,,,,,,,,,,,,,,,,,,,,,,,,,,,,
5dac7eaa59f37100128372d5,2023-06-16_10h16.25.776,phx_ver10,2022.2.5,Win32,60.13229104,,,,,space,0.2005,0,31,31,15,1,16,training,zh2x,a,zh2x_a,zh2x_8_axa.wav,,axa.jpg,,,,,,,,,,,,,,,,,,,,,,,,,,,,,,,,,
5dac7eaa59f37100128372d5,2023-06-16_10h16.25.776,phx_ver10,2022.2.5,Win32,60.13229104,,,,,space,0.503,0,32,32,17,1,18,training,zh2x,e,zh2x_e,zh2x_2_ezhe.wav,,ezhe.jpg,,,,,,,,,,,,,,,,,,,,,,,,,,,,,,,,,
5dac7eaa59f37100128372d5,2023-06-16_10h16.25.776,phx_ver10,2022.2.5,Win32,60.13229104,,,,,space,0.0044,0,33,33,29,1,30,training,zh2x,e,zh2x_e,zh2x_7_exe.wav,,exe.jpg,,,,,,,,,,,,,,,,,,,,,,,,,,,,,,,,,
5dac7eaa59f37100128372d5,2023-06-16_10h16.25.776,phx_ver10,2022.2.5,Win32,60.13229104,,,,,space,1.302,0,34,34,44,1,45,training,zh2x,i,zh2x_i,zh2x_7_ixi.wav,,ixi.jpg,,,,,,,,,,,,,,,,,,,,,,,,,,,,,,,,,
5dac7eaa59f37100128372d5,2023-06-16_10h16.25.776,phx_ver10,2022.2.5,Win32,60.13229104,,,,,space,0.6906,0,35,35,0,1,1,training,zh2x,a,zh2x_a,zh2x_1_azha.wav,,azha.jpg,,,,,,,,,,,,,,,,,,,,,,,,,,,,,,,,,
5dac7eaa59f37100128372d5,2023-06-16_10h16.25.776,phx_ver10,2022.2.5,Win32,60.13229104,,,,,,,,,,,,,attn_test,,,,zh2x_8_exe.wav,zh2x_8_axa.wav,axa.jpg,RIGHT,,j,1.585,space,2.5562,0,0,0,0,1,,,,,,,,,,,,,,,,,,,,,,
5dac7eaa59f37100128372d5,2023-06-16_10h16.25.776,phx_ver10,2022.2.5,Win32,60.13229104,,,,,space,0.7279,0,36,36,34,1,35,training,zh2x,i,zh2x_i,zh2x_2_izhi.wav,,izhi.jpg,,,,,,,,,,,,,,,,,,,,,,,,,,,,,,,,,
5dac7eaa59f37100128372d5,2023-06-16_10h16.25.776,phx_ver10,2022.2.5,Win32,60.13229104,,,,,space,0.2175,0,37,37,11,1,12,training,zh2x,a,zh2x_a,zh2x_7_axa.wav,,axa.jpg,,,,,,,,,,,,,,,,,,,,,,,,,,,,,,,,,
5dac7eaa59f37100128372d5,2023-06-16_10h16.25.776,phx_ver10,2022.2.5,Win32,60.13229104,,,,,space,0.0786,0,38,38,24,1,25,training,zh2x,e,zh2x_e,zh2x_5_exe.wav,,exe.jpg,,,,,,,,,,,,,,,,,,,,,,,,,,,,,,,,,
5dac7eaa59f37100128372d5,2023-06-16_10h16.25.776,phx_ver10,2022.2.5,Win32,60.13229104,,,,,space,0.0676,0,39,39,7,1,8,training,zh2x,a,zh2x_a,zh2x_4_azha.wav,,azha.jpg,,,,,,,,,,,,,,,,,,,,,,,,,,,,,,,,,
5dac7eaa59f37100128372d5,2023-06-16_10h16.25.776,phx_ver10,2022.2.5,Win32,60.13229104,,,,,space,1.6173,0,40,40,40,1,41,training,zh2x,i,zh2x_i,zh2x_5_ixi.wav,,ixi.jpg,,,,,,,,,,,,,,,,,,,,,,,,,,,,,,,,,
5dac7eaa59f37100128372d5,2023-06-16_10h16.25.776,phx_ver10,2022.2.5,Win32,60.13229104,,,,,space,0.3175,0,41,41,43,1,44,training,zh2x,i,zh2x_i,zh2x_7_ixi.wav,,ixi.jpg,,,,,,,,,,,,,,,,,,,,,,,,,,,,,,,,,
5dac7eaa59f37100128372d5,2023-06-16_10h16.25.776,phx_ver10,2022.2.5,Win32,60.13229104,,,,,,,,,,,,,attn_test,,,,zh2x_8_exe.wav,zh2x_8_axa.wav,axa.jpg,RIGHT,,j,1.1347,space,2.3851,0,0,0,0,1,,,,,,,,,,,,,,,,,,,,,,
5dac7eaa59f37100128372d5,2023-06-16_10h16.25.776,phx_ver10,2022.2.5,Win32,60.13229104,,,,,space,0.6436,0,42,42,4,1,5,training,zh2x,a,zh2x_a,zh2x_2_azha.wav,,azha.jpg,,,,,,,,,,,,,,,,,,,,,,,,,,,,,,,,,
5dac7eaa59f37100128372d5,2023-06-16_10h16.25.776,phx_ver10,2022.2.5,Win32,60.13229104,,,,,space,1.2344,0,43,43,38,1,39,training,zh2x,i,zh2x_i,zh2x_3_izhi.wav,,izhi.jpg,,,,,,,,,,,,,,,,,,,,,,,,,,,,,,,,,
5dac7eaa59f37100128372d5,2023-06-16_10h16.25.776,phx_ver10,2022.2.5,Win32,60.13229104,,,,,space,0.1016,0,44,44,10,1,11,training,zh2x,a,zh2x_a,zh2x_6_axa.wav,,axa.jpg,,,,,,,,,,,,,,,,,,,,,,,,,,,,,,,,,
5dac7eaa59f37100128372d5,2023-06-16_10h16.25.776,phx_ver10,2022.2.5,Win32,60.13229104,,,,,space,1.118,0,45,45,6,1,7,training,zh2x,a,zh2x_a,zh2x_3_azha.wav,,azha.jpg,,,,,,,,,,,,,,,,,,,,,,,,,,,,,,,,,
5dac7eaa59f37100128372d5,2023-06-16_10h16.25.776,phx_ver10,2022.2.5,Win32,60.13229104,,,,,space,0.3435,0,46,46,5,1,6,training,zh2x,a,zh2x_a,zh2x_3_azha.wav,,azha.jpg,,,,,,,,,,,,,,,,,,,,,,,,,,,,,,,,,
5dac7eaa59f37100128372d5,2023-06-16_10h16.25.776,phx_ver10,2022.2.5,Win32,60.13229104,,,,,space,0.0185,0,47,47,3,1,4,training,zh2x,a,zh2x_a,zh2x_2_azha.wav,,azha.jpg,,,,,,,,,,,,,,,,,,,,,,,,,,,,,,,,,
5dac7eaa59f37100128372d5,2023-06-16_10h16.25.776,phx_ver10,2022.2.5,Win32,60.13229104,,,,,,,,,,,,,attn_test,,,,zh2x_1_azha.wav,zh2x_1_ezhe.wav,azha.jpg,LEFT,,f,0.5176,space,1.5276,,,,,,,,,,,,,,,,,,,,,,,,,,,
5dac7eaa59f37100128372d5,2023-06-16_10h16.25.776,phx_ver10,2022.2.5,Win32,60.13229104,,,,,,,,,,,,,,,,,,,,,,,,,,,,,,,space,2.0673,,,,,,,,,,,,,,,,,,,,
5dac7eaa59f37100128372d5,2023-06-16_10h16.25.776,phx_ver10,2022.2.5,Win32,60.13229104,,,,,,,,,,,,,,,,,,,,,,,,,,,,,,,,,space,11.7348,,,,,,,,,,,,,,,,,,
5dac7eaa59f37100128372d5,2023-06-16_10h16.25.776,phx_ver10,2022.2.5,Win32,60.13229104,,,,,,,,,,,,2,testing_pre,,,,auhau.wav,aufau.wav,,FALSE,,,,,,,,,,,,,,,j,3.0174,space,4.0169,0,0,0,1,1,,,,,,,,,
5dac7eaa59f37100128372d5,2023-06-16_10h16.25.776,phx_ver10,2022.2.5,Win32,60.13229104,,,,,,,,,,,,4,testing_pre,,,,eihei.wav,eihei.wav,,TRUE,,,,,,,,,,,,,,,f,1.6842,space,2.5723,0,1,1,3,1,,,,,,,,,
5dac7eaa59f37100128372d5,2023-06-16_10h16.25.776,phx_ver10,2022.2.5,Win32,60.13229104,,,,,,,,,,,,1,testing_pre,,,,ifi.wav,ifi.wav,,TRUE,,,,,,,,,,,,,,,f,1.1843,space,2.0846,0,2,2,0,1,,,,,,,,,
5dac7eaa59f37100128372d5,2023-06-16_10h16.25.776,phx_ver10,2022.2.5,Win32,60.13229104,,,,,,,,,,,,3,testing_pre,,,,afa.wav,aha.wav,,FALSE,,,,,,,,,,,,,,,j,1.512,space,2.467,0,3,3,2,1,,,,,,,,,
5dac7eaa59f37100128372d5,2023-06-16_10h16.25.776,phx_ver10,2022.2.5,Win32,60.13229104,,,,,,,,,,,,5,testing_pre,,,,ihi.wav,ifi.wav,,FALSE,,,,,,,,,,,,,,,j,1.7366,space,2.9209,0,4,4,4,1,,,,,,,,,
5dac7eaa59f37100128372d5,2023-06-16_10h16.25.776,phx_ver10,2022.2.5,Win32,60.13229104,,,,,,,,,,,,,,,,,,,,,,,,,,,,,,,,,,,,,,,,,,,,space,1.4161,,,,,,,
5dac7eaa59f37100128372d5,2023-06-16_10h16.25.776,phx_ver10,2022.2.5,Win32,60.13229104,,,,,,,,,,,,134,testing_3,sh2j,e,sh2j_e,sh2j_8_eje.wav,sh2j_8_eje.wav,,TRUE,FALSE,,,,,,,,,,,,,,f,0.9681,space,2.0008,,,,,,,,0,0,0,133,1,,
5dac7eaa59f37100128372d5,2023-06-16_10h16.25.776,phx_ver10,2022.2.5,Win32,60.13229104,,,,,,,,,,,,29,testing_3,zh2sh,ai,zh2sh_ai,zh2sh_1_aizhai.wav,zh2sh_1_aizhai.wav,,TRUE,FALSE,,,,,,,,,,,,,,f,1.1957,space,2.0625,,,,,,,,0,1,1,28,1,,
5dac7eaa59f37100128372d5,2023-06-16_10h16.25.776,phx_ver10,2022.2.5,Win32,60.13229104,,,,,,,,,,,,3,testing_1,zh2x,a,zh2x_a,zh2x_1_azha.wav,zh2x_8_axa.wav,,FALSE,TRUE,,,,,,,,,,,,,,j,0.8845,space,1.8179,,,,,,,,0,2,2,2,1,,
5dac7eaa59f37100128372d5,2023-06-16_10h16.25.776,phx_ver10,2022.2.5,Win32,60.13229104,,,,,,,,,,,,72,testing_3,zh2j,i,zh2j_i,zh2j_8_iji.wav,zh2j_1_izhi.wav,,FALSE,FALSE,,,,,,,,,,,,,,f,0.6881,space,1.5007,,,,,,,,0,3,3,71,1,,
5dac7eaa59f37100128372d5,2023-06-16_10h16.25.776,phx_ver10,2022.2.5,Win32,60.13229104,,,,,,,,,,,,38,testing_3,zh2sh,e,zh2sh_e,zh2sh_8_eshe.wav,zh2sh_8_eshe.wav,,TRUE,FALSE,,,,,,,,,,,,,,f,0.7842,space,1.601,,,,,,,,0,4,4,37,1,,
5dac7eaa59f37100128372d5,2023-06-16_10h16.25.776,phx_ver10,2022.2.5,Win32,60.13229104,,,,,,,,,,,,111,testing_3,sh2x,e,sh2x_e,sh2x_1_eshe.wav,sh2x_8_exe.wav,,FALSE,FALSE,,,,,,,,,,,,,,j,1.3016,space,1.9343,,,,,,,,0,5,5,110,1,,
5dac7eaa59f37100128372d5,2023-06-16_10h16.25.776,phx_ver10,2022.2.5,Win32,60.13229104,,,,,,,,,,,,140,testing_3,sh2j,ei,sh2j_ei,sh2j_8_eijei.wav,sh2j_1_eishei.wav,,FALSE,FALSE,,,,,,,,,,,,,,j,0.817,space,1.5662,,,,,,,,0,6,6,139,1,,
5dac7eaa59f37100128372d5,2023-06-16_10h16.25.776,phx_ver10,2022.2.5,Win32,60.13229104,,,,,,,,,,,,108,testing_3,sh2x,au,sh2x_au,sh2x_8_auxau.wav,sh2x_1_aushau.wav,,FALSE,FALSE,,,,,,,,,,,,,,f,0.6682,space,1.5351,,,,,,,,0,7,7,107,1,,
5dac7eaa59f37100128372d5,2023-06-16_10h16.25.776,phx_ver10,2022.2.5,Win32,60.13229104,,,,,,,,,,,,36,testing_3,zh2sh,au,zh2sh_au,zh2sh_8_aushau.wav,zh2sh_1_auzhau.wav,,FALSE,FALSE,,,,,,,,,,,,,,j,0.7497,space,1.7615,,,,,,,,0,8,8,35,1,,
5dac7eaa59f37100128372d5,2023-06-16_10h16.25.776,phx_ver10,2022.2.5,Win32,60.13229104,,,,,,,,,,,,79,testing_3,j2x,ai,j2x_ai,j2x_1_aijai.wav,j2x_8_aixai.wav,,FALSE,FALSE,,,,,,,,,,,,,,j,0.6848,space,1.6626,,,,,,,,0,9,9,78,1,,
5dac7eaa59f37100128372d5,2023-06-16_10h16.25.776,phx_ver10,2022.2.5,Win32,60.13229104,,,,,,,,,,,,69,testing_3,zh2j,i,zh2j_i,zh2j_1_izhi.wav,zh2j_1_izhi.wav,,TRUE,FALSE,,,,,,,,,,,,,,f,0.6692,space,1.5677,,,,,,,,0,10,10,68,1,,
5dac7eaa59f37100128372d5,2023-06-16_10h16.25.776,phx_ver10,2022.2.5,Win32,60.13229104,,,,,,,,,,,,66,testing_3,zh2j,ei,zh2j_ei,zh2j_8_eijei.wav,zh2j_8_eijei.wav,,TRUE,FALSE,,,,,,,,,,,,,,f,0.6515,space,1.5673,,,,,,,,0,11,11,65,1,,
5dac7eaa59f37100128372d5,2023-06-16_10h16.25.776,phx_ver10,2022.2.5,Win32,60.13229104,,,,,,,,,,,,112,testing_3,sh2x,e,sh2x_e,sh2x_8_exe.wav,sh2x_1_eshe.wav,,FALSE,FALSE,,,,,,,,,,,,,,f,0.6669,space,1.4452,,,,,,,,0,12,12,111,1,,
5dac7eaa59f37100128372d5,2023-06-16_10h16.25.776,phx_ver10,2022.2.5,Win32,60.13229104,,,,,,,,,,,,43,testing_3,zh2sh,ei,zh2sh_ei,zh2sh_1_eizhei.wav,zh2sh_8_eishei.wav,,FALSE,FALSE,,,,,,,,,,,,,,j,0.5683,space,1.3205,,,,,,,,0,13,13,42,1,,
5dac7eaa59f37100128372d5,2023-06-16_10h16.25.776,phx_ver10,2022.2.5,Win32,60.13229104,,,,,,,,,,,,84,testing_3,j2x,au,j2x_au,j2x_8_auxau.wav,j2x_1_aujau.wav,,FALSE,FALSE,,,,,,,,,,,,,,j,0.621,space,1.4186,,,,,,,,0,14,14,83,1,,
5dac7eaa59f37100128372d5,2023-06-16_10h16.25.776,phx_ver10,2022.2.5,Win32,60.13229104,,,,,,,,,,,,19,testing_2,zh2x,au,zh2x_au,zh2x_1_auzhau.wav,zh2x_8_auxau.wav,,FALSE,FALSE,,,,,,,,,,,,,,j,0.4179,space,1.301,,,,,,,,0,15,15,18,1,,
5dac7eaa59f37100128372d5,2023-06-16_10h16.25.776,phx_ver10,2022.2.5,Win32,60.13229104,,,,,,,,,,,,89,testing_3,j2x,ei,j2x_ei,j2x_1_eijei.wav,j2x_1_eijei.wav,,TRUE,FALSE,,,,,,,,,,,,,,f,0.4806,space,1.3008,,,,,,,,0,16,16,88,1,,
5dac7eaa59f37100128372d5,2023-06-16_10h16.25.776,phx_ver10,2022.2.5,Win32,60.13229104,,,,,,,,,,,,124,testing_3,sh2j,a,sh2j_a,sh2j_8_aja.wav,sh2j_1_asha.wav,,FALSE,FALSE,,,,,,,,,,,,,,j,0.4009,space,1.2117,,,,,,,,0,17,17,123,1,,
5dac7eaa59f37100128372d5,2023-06-16_10h16.25.776,phx_ver10,2022.2.5,Win32,60.13229104,,,,,,,,,,,,137,testing_3,sh2j,ei,sh2j_ei,sh2j_1_eishei.wav,sh2j_1_eishei.wav,,TRUE,FALSE,,,,,,,,,,,,,,f,0.5153,space,1.3008,,,,,,,,0,18,18,136,1,,
5dac7eaa59f37100128372d5,2023-06-16_10h16.25.776,phx_ver10,2022.2.5,Win32,60.13229104,,,,,,,,,,,,14,testing_2,zh2x,ai,zh2x_ai,zh2x_8_aixai.wav,zh2x_8_aixai.wav,,TRUE,FALSE,,,,,,,,,,,,,,f,0.3516,space,1.1566,,,,,,,,0,19,19,13,1,,
5dac7eaa59f37100128372d5,2023-06-16_10h16.25.776,phx_ver10,2022.2.5,Win32,60.13229104,,,,,,,,,,,,16,testing_2,zh2x,ai,zh2x_ai,zh2x_8_aixai.wav,zh2x_1_aizhai.wav,,FALSE,FALSE,,,,,,,,,,,,,,j,0.6178,space,1.4181,,,,,,,,0,20,20,15,1,,
5dac7eaa59f37100128372d5,2023-06-16_10h16.25.776,phx_ver10,2022.2.5,Win32,60.13229104,,,,,,,,,,,,95,testing_3,j2x,i,j2x_i,j2x_1_iji.wav,j2x_8_ixi.wav,,FALSE,FALSE,,,,,,,,,,,,,,j,0.4986,space,1.1839,,,,,,,,0,21,21,94,1,,
5dac7eaa59f37100128372d5,2023-06-16_10h16.25.776,phx_ver10,2022.2.5,Win32,60.13229104,,,,,,,,,,,,123,testing_3,sh2j,a,sh2j_a,sh2j_1_asha.wav,sh2j_8_aja.wav,,FALSE,FALSE,,,,,,,,,,,,,,j,0.2851,space,1.0016,,,,,,,,0,22,22,122,1,,
5dac7eaa59f37100128372d5,2023-06-16_10h16.25.776,phx_ver10,2022.2.5,Win32,60.13229104,,,,,,,,,,,,118,testing_3,sh2x,i,sh2x_i,sh2x_8_ixi.wav,sh2x_8_ixi.wav,,TRUE,FALSE,,,,,,,,,,,,,,f,0.5346,space,1.2683,,,,,,,,0,23,23,117,1,,
5dac7eaa59f37100128372d5,2023-06-16_10h16.25.776,phx_ver10,2022.2.5,Win32,60.13229104,,,,,,,,,,,,23,testing_2,zh2x,ei,zh2x_ei,zh2x_1_eizhei.wav,zh2x_8_eixei.wav,,FALSE,FALSE,,,,,,,,,,,,,,j,0.4676,space,1.1518,,,,,,,,0,24,24,22,1,,
5dac7eaa59f37100128372d5,2023-06-16_10h16.25.776,phx_ver10,2022.2.5,Win32,60.13229104,,,,,,,,,,,,13,testing_2,zh2x,ai,zh2x_ai,zh2x_1_aizhai.wav,zh2x_1_aizhai.wav,,TRUE,FALSE,,,,,,,,,,,,,,f,0.5683,space,1.3173,,,,,,,,0,25,25,12,1,,
5dac7eaa59f37100128372d5,2023-06-16_10h16.25.776,phx_ver10,2022.2.5,Win32,60.13229104,,,,,,,,,,,,94,testing_3,j2x,i,j2x_i,j2x_8_ixi.wav,j2x_8_ixi.wav,,TRUE,FALSE,,,,,,,,,,,,,,f,0.5336,space,1.2836,,,,,,,,0,26,26,93,1,,
5dac7eaa59f37100128372d5,2023-06-16_10h16.25.776,phx_ver10,2022.2.5,Win32,60.13229104,,,,,,,,,,,,34,testing_3,zh2sh,au,zh2sh_au,zh2sh_8_aushau.wav,zh2sh_8_aushau.wav,,TRUE,FALSE,,,,,,,,,,,,,,f,0.3009,space,1.1176,,,,,,,,0,27,27,33,1,,
5dac7eaa59f37100128372d5,2023-06-16_10h16.25.776,phx_ver10,2022.2.5,Win32,60.13229104,,,,,,,,,,,,110,testing_3,sh2x,e,sh2x_e,sh2x_8_exe.wav,sh2x_8_exe.wav,,TRUE,FALSE,,,,,,,,,,,,,,f,0.3673,space,1.1695,,,,,,,,0,28,28,109,1,,
5dac7eaa59f37100128372d5,2023-06-16_10h16.25.776,phx_ver10,2022.2.5,Win32,60.13229104,,,,,,,,,,,,120,testing_3,sh2x,i,sh2x_i,sh2x_8_ixi.wav,sh2x_1_ishi.wav,,FALSE,FALSE,,,,,,,,,,,,,,j,0.6061,space,1.3177,,,,,,,,0,29,29,119,1,,
5dac7eaa59f37100128372d5,2023-06-16_10h16.25.776,phx_ver10,2022.2.5,Win32,60.13229104,,,,,,,,,,,,107,testing_3,sh2x,au,sh2x_au,sh2x_1_aushau.wav,sh2x_8_auxau.wav,,FALSE,FALSE,,,,,,,,,,,,,,f,0.6507,space,1.4119,,,,,,,,0,30,30,106,1,,
5dac7eaa59f37100128372d5,2023-06-16_10h16.25.776,phx_ver10,2022.2.5,Win32,60.13229104,,,,,,,,,,,,86,testing_3,j2x,e,j2x_e,j2x_8_exe.wav,j2x_8_exe.wav,,TRUE,FALSE,,,,,,,,,,,,,,f,0.3343,space,1.1187,,,,,,,,0,31,31,85,1,,
5dac7eaa59f37100128372d5,2023-06-16_10h16.25.776,phx_ver10,2022.2.5,Win32,60.13229104,,,,,,,,,,,,82,testing_3,j2x,au,j2x_au,j2x_8_auxau.wav,j2x_8_auxau.wav,,TRUE,FALSE,,,,,,,,,,,,,,f,0.3202,space,1.0458,,,,,,,,0,32,32,81,1,,
5dac7eaa59f37100128372d5,2023-06-16_10h16.25.776,phx_ver10,2022.2.5,Win32,60.13229104,,,,,,,,,,,,35,testing_3,zh2sh,au,zh2sh_au,zh2sh_1_auzhau.wav,zh2sh_8_aushau.wav,,FALSE,FALSE,,,,,,,,,,,,,,j,0.5012,space,1.1503,,,,,,,,0,33,33,34,1,,
5dac7eaa59f37100128372d5,2023-06-16_10h16.25.776,phx_ver10,2022.2.5,Win32,60.13229104,,,,,,,,,,,,28,testing_3,zh2sh,a,zh2sh_a,zh2sh_8_asha.wav,zh2sh_1_azha.wav,,FALSE,FALSE,,,,,,,,,,,,,,j,0.4177,space,0.979,,,,,,,,0,34,34,27,1,,
5dac7eaa59f37100128372d5,2023-06-16_10h16.25.776,phx_ver10,2022.2.5,Win32,60.13229104,,,,,,,,,,,,59,testing_3,zh2j,au,zh2j_au,zh2j_1_auzhau.wav,zh2j_8_aujau.wav,,FALSE,FALSE,,,,,,,,,,,,,,f,0.7009,space,1.4838,,,,,,,,0,35,35,58,1,,
5dac7eaa59f37100128372d5,2023-06-16_10h16.25.776,phx_ver10,2022.2.5,Win32,60.13229104,,,,,,,,,,,,62,testing_3,zh2j,e,zh2j_e,zh2j_8_eje.wav,zh2j_8_eje.wav,,TRUE,FALSE,,,,,,,,,,,,,,f,0.369,space,1.0948,,,,,,,,0,36,36,61,1,,
5dac7eaa59f37100128372d5,2023-06-16_10h16.25.776,phx_ver10,2022.2.5,Win32,60.13229104,,,,,,,,,,,,50,testing_3,zh2j,a,zh2j_a,zh2j_8_aja.wav,zh2j_8_aja.wav,,TRUE,FALSE,,,,,,,,,,,,,,f,0.4175,space,1.1344,,,,,,,,0,37,37,49,1,,
5dac7eaa59f37100128372d5,2023-06-16_10h16.25.776,phx_ver10,2022.2.5,Win32,60.13229104,,,,,,,,,,,,132,testing_3,sh2j,au,sh2j_au,sh2j_8_aujau.wav,sh2j_1_aushau.wav,,FALSE,FALSE,,,,,,,,,,,,,,j,0.3177,space,0.9178,,,,,,,,0,38,38,131,1,,
5dac7eaa59f37100128372d5,2023-06-16_10h16.25.776,phx_ver10,2022.2.5,Win32,60.13229104,,,,,,,,,,,,139,testing_3,sh2j,ei,sh2j_ei,sh2j_1_eishei.wav,sh2j_8_eijei.wav,,FALSE,FALSE,,,,,,,,,,,,,,j,0.5226,space,1.1841,,,,,,,,0,39,39,138,1,,
5dac7eaa59f37100128372d5,2023-06-16_10h16.25.776,phx_ver10,2022.2.5,Win32,60.13229104,,,,,,,,,,,,39,testing_3,zh2sh,e,zh2sh_e,zh2sh_1_ezhe.wav,zh2sh_8_eshe.wav,,FALSE,FALSE,,,,,,,,,,,,,,j,0.4184,space,0.9007,,,,,,,,0,40,40,38,1,,
5dac7eaa59f37100128372d5,2023-06-16_10h16.25.776,phx_ver10,2022.2.5,Win32,60.13229104,,,,,,,,,,,,33,testing_3,zh2sh,au,zh2sh_au,zh2sh_1_auzhau.wav,zh2sh_1_auzhau.wav,,TRUE,FALSE,,,,,,,,,,,,,,f,0.3173,space,0.8838,,,,,,,,0,41,41,32,1,,
5dac7eaa59f37100128372d5,2023-06-16_10h16.25.776,phx_ver10,2022.2.5,Win32,60.13229104,,,,,,,,,,,,119,testing_3,sh2x,i,sh2x_i,sh2x_1_ishi.wav,sh2x_8_ixi.wav,,FALSE,FALSE,,,,,,,,,,,,,,f,0.3362,space,0.853,,,,,,,,0,42,42,118,1,,
5dac7eaa59f37100128372d5,2023-06-16_10h16.25.776,phx_ver10,2022.2.5,Win32,60.13229104,,,,,,,,,,,,102,testing_3,sh2x,ai,sh2x_ai,sh2x_8_aixai.wav,sh2x_8_aixai.wav,,TRUE,FALSE,,,,,,,,,,,,,,f,0.2516,space,0.7674,,,,,,,,0,43,43,101,1,,
5dac7eaa59f37100128372d5,2023-06-16_10h16.25.776,phx_ver10,2022.2.5,Win32,60.13229104,,,,,,,,,,,,15,testing_2,zh2x,ai,zh2x_ai,zh2x_1_aizhai.wav,zh2x_8_aixai.wav,,FALSE,FALSE,,,,,,,,,,,,,,j,0.334,space,0.7841,,,,,,,,0,44,44,14,1,,
5dac7eaa59f37100128372d5,2023-06-16_10h16.25.776,phx_ver10,2022.2.5,Win32,60.13229104,,,,,,,,,,,,83,testing_3,j2x,au,j2x_au,j2x_1_aujau.wav,j2x_8_auxau.wav,,FALSE,FALSE,,,,,,,,,,,,,,j,0.3021,space,0.7511,,,,,,,,0,45,45,82,1,,
5dac7eaa59f37100128372d5,2023-06-16_10h16.25.776,phx_ver10,2022.2.5,Win32,60.13229104,,,,,,,,,,,,90,testing_3,j2x,ei,j2x_ei,j2x_8_eixei.wav,j2x_8_eixei.wav,,TRUE,FALSE,,,,,,,,,,,,,,f,0.2506,space,0.7174,,,,,,,,0,46,46,89,1,,
5dac7eaa59f37100128372d5,2023-06-16_10h16.25.776,phx_ver10,2022.2.5,Win32,60.13229104,,,,,,,,,,,,88,testing_3,j2x,e,j2x_e,j2x_8_exe.wav,j2x_1_eje.wav,,FALSE,FALSE,,,,,,,,,,,,,,j,0.418,space,0.8514,,,,,,,,0,47,47,87,1,,
5dac7eaa59f37100128372d5,2023-06-16_10h16.25.776,phx_ver10,2022.2.5,Win32,60.13229104,,,,,,,,,,,,136,testing_3,sh2j,e,sh2j_e,sh2j_8_eje.wav,sh2j_1_eshe.wav,,FALSE,FALSE,,,,,,,,,,,,,,j,1.434,space,1.9169,,,,,,,,0,48,48,135,1,,
5dac7eaa59f37100128372d5,2023-06-16_10h16.25.776,phx_ver10,2022.2.5,Win32,60.13229104,,,,,,,,,,,,143,testing_3,sh2j,i,sh2j_i,sh2j_1_ishi.wav,sh2j_8_iji.wav,,FALSE,FALSE,,,,,,,,,,,,,,j,0.4671,space,0.8842,,,,,,,,0,49,49,142,1,,
5dac7eaa59f37100128372d5,2023-06-16_10h16.25.776,phx_ver10,2022.2.5,Win32,60.13229104,,,,,,,,,,,,60,testing_3,zh2j,au,zh2j_au,zh2j_8_aujau.wav,zh2j_1_auzhau.wav,,FALSE,FALSE,,,,,,,,,,,,,,f,0.1842,space,0.6342,,,,,,,,0,50,50,59,1,,
5dac7eaa59f37100128372d5,2023-06-16_10h16.25.776,phx_ver10,2022.2.5,Win32,60.13229104,,,,,,,,,,,,25,testing_3,zh2sh,a,zh2sh_a,zh2sh_1_azha.wav,zh2sh_1_azha.wav,,TRUE,FALSE,,,,,,,,,,,,,,f,0.2011,space,0.6224,,,,,,,,0,51,51,24,1,,
5dac7eaa59f37100128372d5,2023-06-16_10h16.25.776,phx_ver10,2022.2.5,Win32,60.13229104,,,,,,,,,,,,92,testing_3,j2x,ei,j2x_ei,j2x_8_eixei.wav,j2x_1_eijei.wav,,FALSE,FALSE,,,,,,,,,,,,,,j,0.3516,space,0.7511,,,,,,,,0,52,52,91,1,,
5dac7eaa59f37100128372d5,2023-06-16_10h16.25.776,phx_ver10,2022.2.5,Win32,60.13229104,,,,,,,,,,,,9,testing_1,zh2x,i,zh2x_i,zh2x_1_izhi.wav,zh2x_1_izhi_copy.wav,,TRUE,TRUE,,,,,,,,,,,,,,f,0.2878,space,0.7347,,,,,,,,0,53,53,8,1,,
5dac7eaa59f37100128372d5,2023-06-16_10h16.25.776,phx_ver10,2022.2.5,Win32,60.13229104,,,,,,,,,,,,49,testing_3,zh2j,a,zh2j_a,zh2j_1_azha.wav,zh2j_1_azha.wav,,TRUE,FALSE,,,,,,,,,,,,,,f,0.2195,space,0.6676,,,,,,,,0,54,54,48,1,,
5dac7eaa59f37100128372d5,2023-06-16_10h16.25.776,phx_ver10,2022.2.5,Win32,60.13229104,,,,,,,,,,,,2,testing_1,zh2x,a,zh2x_a,zh2x_8_axa.wav,zh2x_8_axa_copy.wav,,TRUE,TRUE,,,,,,,,,,,,,,f,0.236,space,0.684,,,,,,,,0,55,55,1,1,,
5dac7eaa59f37100128372d5,2023-06-16_10h16.25.776,phx_ver10,2022.2.5,Win32,60.13229104,,,,,,,,,,,,141,testing_3,sh2j,i,sh2j_i,sh2j_1_ishi.wav,sh2j_1_ishi.wav,,TRUE,FALSE,,,,,,,,,,,,,,f,0.2342,space,0.6678,,,,,,,,0,56,56,140,1,,
5dac7eaa59f37100128372d5,2023-06-16_10h16.25.776,phx_ver10,2022.2.5,Win32,60.13229104,,,,,,,,,,,,58,testing_3,zh2j,au,zh2j_au,zh2j_8_aujau.wav,zh2j_8_aujau.wav,,TRUE,FALSE,,,,,,,,,,,,,,f,0.5505,space,1.0339,,,,,,,,0,57,57,57,1,,
5dac7eaa59f37100128372d5,2023-06-16_10h16.25.776,phx_ver10,2022.2.5,Win32,60.13229104,,,,,,,,,,,,37,testing_3,zh2sh,e,zh2sh_e,zh2sh_1_ezhe.wav,zh2sh_1_ezhe.wav,,TRUE,FALSE,,,,,,,,,,,,,,f,0.3675,space,0.8007,,,,,,,,0,58,58,36,1,,
5dac7eaa59f37100128372d5,2023-06-16_10h16.25.776,phx_ver10,2022.2.5,Win32,60.13229104,,,,,,,,,,,,115,testing_3,sh2x,ei,sh2x_ei,sh2x_1_eishei.wav,sh2x_8_eixei.wav,,FALSE,FALSE,,,,,,,,,,,,,,f,0.2341,space,0.685,,,,,,,,0,59,59,114,1,,
5dac7eaa59f37100128372d5,2023-06-16_10h16.25.776,phx_ver10,2022.2.5,Win32,60.13229104,,,,,,,,,,,,113,testing_3,sh2x,ei,sh2x_ei,sh2x_1_eishei.wav,sh2x_1_eishei.wav,,TRUE,FALSE,,,,,,,,,,,,,,f,0.084,space,0.534,,,,,,,,0,60,60,112,1,,
5dac7eaa59f37100128372d5,2023-06-16_10h16.25.776,phx_ver10,2022.2.5,Win32,60.13229104,,,,,,,,,,,,61,testing_3,zh2j,e,zh2j_e,zh2j_1_ezhe.wav,zh2j_1_ezhe.wav,,TRUE,FALSE,,,,,,,,,,,,,,f,0.2004,space,0.6337,,,,,,,,0,61,61,60,1,,
5dac7eaa59f37100128372d5,2023-06-16_10h16.25.776,phx_ver10,2022.2.5,Win32,60.13229104,,,,,,,,,,,,130,testing_3,sh2j,au,sh2j_au,sh2j_8_aujau.wav,sh2j_8_aujau.wav,,TRUE,FALSE,,,,,,,,,,,,,,f,0.2861,space,0.717,,,,,,,,0,62,62,129,1,,
5dac7eaa59f37100128372d5,2023-06-16_10h16.25.776,phx_ver10,2022.2.5,Win32,60.13229104,,,,,,,,,,,,11,testing_1,zh2x,i,zh2x_i,zh2x_1_izhi.wav,zh2x_8_ixi.wav,,FALSE,TRUE,,,,,,,,,,,,,,j,0.4841,space,0.9847,,,,,,,,0,63,63,10,1,,
5dac7eaa59f37100128372d5,2023-06-16_10h16.25.776,phx_ver10,2022.2.5,Win32,60.13229104,,,,,,,,,,,,131,testing_3,sh2j,au,sh2j_au,sh2j_1_aushau.wav,sh2j_8_aujau.wav,,FALSE,FALSE,,,,,,,,,,,,,,j,0.4366,space,0.8506,,,,,,,,0,64,64,130,1,,
5dac7eaa59f37100128372d5,2023-06-16_10h16.25.776,phx_ver10,2022.2.5,Win32,60.13229104,,,,,,,,,,,,31,testing_3,zh2sh,ai,zh2sh_ai,zh2sh_1_aizhai.wav,zh2sh_8_aishai.wav,,FALSE,FALSE,,,,,,,,,,,,,,j,0.2702,space,0.7006,,,,,,,,0,65,65,30,1,,
5dac7eaa59f37100128372d5,2023-06-16_10h16.25.776,phx_ver10,2022.2.5,Win32,60.13229104,,,,,,,,,,,,77,testing_3,j2x,ai,j2x_ai,j2x_1_aijai.wav,j2x_1_aijai.wav,,TRUE,FALSE,,,,,,,,,,,,,,f,0.8179,space,1.2674,,,,,,,,0,66,66,76,1,,
5dac7eaa59f37100128372d5,2023-06-16_10h16.25.776,phx_ver10,2022.2.5,Win32,60.13229104,,,,,,,,,,,,18,testing_2,zh2x,au,zh2x_au,zh2x_8_auxau.wav,zh2x_8_auxau.wav,,TRUE,FALSE,,,,,,,,,,,,,,f,0.8173,space,1.234,,,,,,,,0,67,67,17,1,,
5dac7eaa59f37100128372d5,2023-06-16_10h16.25.776,phx_ver10,2022.2.5,Win32,60.13229104,,,,,,,,,,,,53,testing_3,zh2j,ai,zh2j_ai,zh2j_1_aizhai.wav,zh2j_1_aizhai.wav,,TRUE,FALSE,,,,,,,,,,,,,,f,0.301,space,0.7178,,,,,,,,0,68,68,52,1,,
5dac7eaa59f37100128372d5,2023-06-16_10h16.25.776,phx_ver10,2022.2.5,Win32,60.13229104,,,,,,,,,,,,125,testing_3,sh2j,ai,sh2j_ai,sh2j_1_aishai.wav,sh2j_1_aishai.wav,,TRUE,FALSE,,,,,,,,,,,,,,f,0.1209,space,0.5341,,,,,,,,0,69,69,124,1,,
5dac7eaa59f37100128372d5,2023-06-16_10h16.25.776,phx_ver10,2022.2.5,Win32,60.13229104,,,,,,,,,,,,30,testing_3,zh2sh,ai,zh2sh_ai,zh2sh_8_aishai.wav,zh2sh_8_aishai.wav,,TRUE,FALSE,,,,,,,,,,,,,,f,0.0007,space,0.4042,,,,,,,,0,70,70,29,1,,
5dac7eaa59f37100128372d5,2023-06-16_10h16.25.776,phx_ver10,2022.2.5,Win32,60.13229104,,,,,,,,,,,,91,testing_3,j2x,ei,j2x_ei,j2x_1_eijei.wav,j2x_8_eixei.wav,,FALSE,FALSE,,,,,,,,,,,,,,j,0.4681,space,0.8674,,,,,,,,0,71,71,90,1,,
5dac7eaa59f37100128372d5,2023-06-16_10h16.25.776,phx_ver10,2022.2.5,Win32,60.13229104,,,,,,,,,,,,104,testing_3,sh2x,ai,sh2x_ai,sh2x_8_aixai.wav,sh2x_1_aishai.wav,,FALSE,FALSE,,,,,,,,,,,,,,f,0.7355,space,1.1183,,,,,,,,0,72,72,103,1,,
5dac7eaa59f37100128372d5,2023-06-16_10h16.25.776,phx_ver10,2022.2.5,Win32,60.13229104,,,,,,,,,,,,121,testing_3,sh2j,a,sh2j_a,sh2j_1_asha.wav,sh2j_1_asha.wav,,TRUE,FALSE,,,,,,,,,,,,,,f,0.1508,space,0.535,,,,,,,,0,73,73,120,1,,
5dac7eaa59f37100128372d5,2023-06-16_10h16.25.776,phx_ver10,2022.2.5,Win32,60.13229104,,,,,,,,,,,,81,testing_3,j2x,au,j2x_au,j2x_1_aujau.wav,j2x_1_aujau.wav,,TRUE,FALSE,,,,,,,,,,,,,,f,0.5178,space,0.9359,,,,,,,,0,74,74,80,1,,
5dac7eaa59f37100128372d5,2023-06-16_10h16.25.776,phx_ver10,2022.2.5,Win32,60.13229104,,,,,,,,,,,,138,testing_3,sh2j,ei,sh2j_ei,sh2j_8_eijei.wav,sh2j_8_eijei.wav,,TRUE,FALSE,,,,,,,,,,,,,,f,0.1841,space,0.6887,,,,,,,,0,75,75,137,1,,
5dac7eaa59f37100128372d5,2023-06-16_10h16.25.776,phx_ver10,2022.2.5,Win32,60.13229104,,,,,,,,,,,,12,testing_1,zh2x,i,zh2x_i,zh2x_8_ixi.wav,zh2x_1_izhi.wav,,FALSE,TRUE,,,,,,,,,,,,,,f,0.918,space,1.3173,,,,,,,,0,76,76,11,1,,
5dac7eaa59f37100128372d5,2023-06-16_10h16.25.776,phx_ver10,2022.2.5,Win32,60.13229104,,,,,,,,,,,,56,testing_3,zh2j,ai,zh2j_ai,zh2j_8_aijai.wav,zh2j_1_aizhai.wav,,FALSE,FALSE,,,,,,,,,,,,,,f,0.3674,space,0.7839,,,,,,,,0,77,77,55,1,,
5dac7eaa59f37100128372d5,2023-06-16_10h16.25.776,phx_ver10,2022.2.5,Win32,60.13229104,,,,,,,,,,,,127,testing_3,sh2j,ai,sh2j_ai,sh2j_1_aishai.wav,sh2j_8_aijai.wav,,FALSE,FALSE,,,,,,,,,,,,,,j,0.4176,space,0.7693,,,,,,,,0,78,78,126,1,,
5dac7eaa59f37100128372d5,2023-06-16_10h16.25.776,phx_ver10,2022.2.5,Win32,60.13229104,,,,,,,,,,,,100,testing_3,sh2x,a,sh2x_a,sh2x_8_axa.wav,sh2x_1_asha.wav,,FALSE,FALSE,,,,,,,,,,,,,,f,0.3181,space,0.7174,,,,,,,,0,79,79,99,1,,
5dac7eaa59f37100128372d5,2023-06-16_10h16.25.776,phx_ver10,2022.2.5,Win32,60.13229104,,,,,,,,,,,,126,testing_3,sh2j,ai,sh2j_ai,sh2j_8_aijai.wav,sh2j_8_aijai.wav,,TRUE,FALSE,,,,,,,,,,,,,,f,0.1017,space,0.4669,,,,,,,,0,80,80,125,1,,
5dac7eaa59f37100128372d5,2023-06-16_10h16.25.776,phx_ver10,2022.2.5,Win32,60.13229104,,,,,,,,,,,,74,testing_3,j2x,a,j2x_a,j2x_8_axa.wav,j2x_8_axa.wav,,TRUE,FALSE,,,,,,,,,,,,,,f,0.2511,space,0.6664,,,,,,,,0,81,81,73,1,,
5dac7eaa59f37100128372d5,2023-06-16_10h16.25.776,phx_ver10,2022.2.5,Win32,60.13229104,,,,,,,,,,,,8,testing_1,zh2x,e,zh2x_e,zh2x_8_exe.wav,zh2x_1_ezhe.wav,,FALSE,TRUE,,,,,,,,,,,,,,j,0.5183,space,0.8688,,,,,,,,0,82,82,7,1,,
5dac7eaa59f37100128372d5,2023-06-16_10h16.25.776,phx_ver10,2022.2.5,Win32,60.13229104,,,,,,,,,,,,57,testing_3,zh2j,au,zh2j_au,zh2j_1_auzhau.wav,zh2j_1_auzhau.wav,,TRUE,FALSE,,,,,,,,,,,,,,f,0.3044,space,0.7014,,,,,,,,0,83,83,56,1,,
5dac7eaa59f37100128372d5,2023-06-16_10h16.25.776,phx_ver10,2022.2.5,Win32,60.13229104,,,,,,,,,,,,48,testing_3,zh2sh,i,zh2sh_i,zh2sh_8_ishi.wav,zh2sh_1_izhi.wav,,FALSE,FALSE,,,,,,,,,,,,,,j,0.3689,space,0.713,,,,,,,,0,84,84,47,1,,
5dac7eaa59f37100128372d5,2023-06-16_10h16.25.776,phx_ver10,2022.2.5,Win32,60.13229104,,,,,,,,,,,,42,testing_3,zh2sh,ei,zh2sh_ei,zh2sh_8_eishei.wav,zh2sh_8_eishei.wav,,TRUE,FALSE,,,,,,,,,,,,,,f,0.2014,space,0.6328,,,,,,,,0,85,85,41,1,,
5dac7eaa59f37100128372d5,2023-06-16_10h16.25.776,phx_ver10,2022.2.5,Win32,60.13229104,,,,,,,,,,,,52,testing_3,zh2j,a,zh2j_a,zh2j_8_aja.wav,zh2j_1_azha.wav,,FALSE,FALSE,,,,,,,,,,,,,,f,0.1096,space,0.5313,,,,,,,,0,86,86,51,1,,
5dac7eaa59f37100128372d5,2023-06-16_10h16.25.776,phx_ver10,2022.2.5,Win32,60.13229104,,,,,,,,,,,,142,testing_3,sh2j,i,sh2j_i,sh2j_8_iji.wav,sh2j_8_iji.wav,,TRUE,FALSE,,,,,,,,,,,,,,f,0.1439,space,0.5437,,,,,,,,0,87,87,141,1,,
5dac7eaa59f37100128372d5,2023-06-16_10h16.25.776,phx_ver10,2022.2.5,Win32,60.13229104,,,,,,,,,,,,122,testing_3,sh2j,a,sh2j_a,sh2j_8_aja.wav,sh2j_8_aja.wav,,TRUE,FALSE,,,,,,,,,,,,,,f,0.2014,space,1.0514,,,,,,,,0,88,88,121,1,,
5dac7eaa59f37100128372d5,2023-06-16_10h16.25.776,phx_ver10,2022.2.5,Win32,60.13229104,,,,,,,,,,,,87,testing_3,j2x,e,j2x_e,j2x_1_eje.wav,j2x_8_exe.wav,,FALSE,FALSE,,,,,,,,,,,,,,j,0.268,space,0.6957,,,,,,,,0,89,89,86,1,,
5dac7eaa59f37100128372d5,2023-06-16_10h16.25.776,phx_ver10,2022.2.5,Win32,60.13229104,,,,,,,,,,,,144,testing_3,sh2j,i,sh2j_i,sh2j_8_iji.wav,sh2j_1_ishi.wav,,FALSE,FALSE,,,,,,,,,,,,,,j,0.3842,space,0.7499,,,,,,,,0,90,90,143,1,,
5dac7eaa59f37100128372d5,2023-06-16_10h16.25.776,phx_ver10,2022.2.5,Win32,60.13229104,,,,,,,,,,,,67,testing_3,zh2j,ei,zh2j_ei,zh2j_1_eizhei.wav,zh2j_8_eijei.wav,,FALSE,FALSE,,,,,,,,,,,,,,f,0.229,space,0.6512,,,,,,,,0,91,91,66,1,,
5dac7eaa59f37100128372d5,2023-06-16_10h16.25.776,phx_ver10,2022.2.5,Win32,60.13229104,,,,,,,,,,,,20,testing_2,zh2x,au,zh2x_au,zh2x_8_auxau.wav,zh2x_1_auzhau.wav,,FALSE,FALSE,,,,,,,,,,,,,,j,0.4178,space,0.818,,,,,,,,0,92,92,19,1,,
5dac7eaa59f37100128372d5,2023-06-16_10h16.25.776,phx_ver10,2022.2.5,Win32,60.13229104,,,,,,,,,,,,70,testing_3,zh2j,i,zh2j_i,zh2j_8_iji.wav,zh2j_8_iji.wav,,TRUE,FALSE,,,,,,,,,,,,,,f,0.2352,space,0.6673,,,,,,,,0,93,93,69,1,,
5dac7eaa59f37100128372d5,2023-06-16_10h16.25.776,phx_ver10,2022.2.5,Win32,60.13229104,,,,,,,,,,,,85,testing_3,j2x,e,j2x_e,j2x_1_eje.wav,j2x_1_eje.wav,,TRUE,FALSE,,,,,,,,,,,,,,f,0.2677,space,0.6849,,,,,,,,0,94,94,84,1,,
5dac7eaa59f37100128372d5,2023-06-16_10h16.25.776,phx_ver10,2022.2.5,Win32,60.13229104,,,,,,,,,,,,27,testing_3,zh2sh,a,zh2sh_a,zh2sh_1_azha.wav,zh2sh_8_asha.wav,,FALSE,FALSE,,,,,,,,,,,,,,j,0.2315,space,0.6284,,,,,,,,0,95,95,26,1,,
5dac7eaa59f37100128372d5,2023-06-16_10h16.25.776,phx_ver10,2022.2.5,Win32,60.13229104,,,,,,,,,,,,7,testing_1,zh2x,e,zh2x_e,zh2x_1_ezhe.wav,zh2x_8_exe.wav,,FALSE,TRUE,,,,,,,,,,,,,,j,0.3843,space,0.7516,,,,,,,,0,96,96,6,1,,
5dac7eaa59f37100128372d5,2023-06-16_10h16.25.776,phx_ver10,2022.2.5,Win32,60.13229104,,,,,,,,,,,,17,testing_2,zh2x,au,zh2x_au,zh2x_1_auzhau.wav,zh2x_1_auzhau.wav,,TRUE,FALSE,,,,,,,,,,,,,,f,0.0845,space,0.4684,,,,,,,,0,97,97,16,1,,
5dac7eaa59f37100128372d5,2023-06-16_10h16.25.776,phx_ver10,2022.2.5,Win32,60.13229104,,,,,,,,,,,,97,testing_3,sh2x,a,sh2x_a,sh2x_1_asha.wav,sh2x_1_asha.wav,,TRUE,FALSE,,,,,,,,,,,,,,f,0.1336,space,0.5506,,,,,,,,0,98,98,96,1,,
5dac7eaa59f37100128372d5,2023-06-16_10h16.25.776,phx_ver10,2022.2.5,Win32,60.13229104,,,,,,,,,,,,105,testing_3,sh2x,au,sh2x_au,sh2x_1_aushau.wav,sh2x_1_aushau.wav,,TRUE,FALSE,,,,,,,,,,,,,,f,0.0561,space,0.4396,,,,,,,,0,99,99,104,1,,
5dac7eaa59f37100128372d5,2023-06-16_10h16.25.776,phx_ver10,2022.2.5,Win32,60.13229104,,,,,,,,,,,,75,testing_3,j2x,a,j2x_a,j2x_1_aja.wav,j2x_8_axa.wav,,FALSE,FALSE,,,,,,,,,,,,,,j,0.3313,space,0.7337,,,,,,,,0,100,100,74,1,,
5dac7eaa59f37100128372d5,2023-06-16_10h16.25.776,phx_ver10,2022.2.5,Win32,60.13229104,,,,,,,,,,,,101,testing_3,sh2x,ai,sh2x_ai,sh2x_1_aishai.wav,sh2x_1_aishai.wav,,TRUE,FALSE,,,,,,,,,,,,,,f,0.2968,space,0.7175,,,,,,,,0,101,101,100,1,,
5dac7eaa59f37100128372d5,2023-06-16_10h16.25.776,phx_ver10,2022.2.5,Win32,60.13229104,,,,,,,,,,,,114,testing_3,sh2x,ei,sh2x_ei,sh2x_8_eixei.wav,sh2x_8_eixei.wav,,TRUE,FALSE,,,,,,,,,,,,,,f,0.1358,space,0.5199,,,,,,,,0,102,102,113,1,,
5dac7eaa59f37100128372d5,2023-06-16_10h16.25.776,phx_ver10,2022.2.5,Win32,60.13229104,,,,,,,,,,,,22,testing_2,zh2x,ei,zh2x_ei,zh2x_8_eixei.wav,zh2x_8_eixei.wav,,TRUE,FALSE,,,,,,,,,,,,,,f,0.0842,space,0.4843,,,,,,,,0,103,103,21,1,,
5dac7eaa59f37100128372d5,2023-06-16_10h16.25.776,phx_ver10,2022.2.5,Win32,60.13229104,,,,,,,,,,,,51,testing_3,zh2j,a,zh2j_a,zh2j_1_azha.wav,zh2j_8_aja.wav,,FALSE,FALSE,,,,,,,,,,,,,,f,0.1237,space,0.54,,,,,,,,0,104,104,50,1,,
5dac7eaa59f37100128372d5,2023-06-16_10h16.25.776,phx_ver10,2022.2.5,Win32,60.13229104,,,,,,,,,,,,96,testing_3,j2x,i,j2x_i,j2x_8_ixi.wav,j2x_1_iji.wav,,FALSE,FALSE,,,,,,,,,,,,,,j,0.2507,space,0.6507,,,,,,,,0,105,105,95,1,,
5dac7eaa59f37100128372d5,2023-06-16_10h16.25.776,phx_ver10,2022.2.5,Win32,60.13229104,,,,,,,,,,,,76,testing_3,j2x,a,j2x_a,j2x_8_axa.wav,j2x_1_aja.wav,,FALSE,FALSE,,,,,,,,,,,,,,j,0.3839,space,0.7676,,,,,,,,0,106,106,75,1,,
5dac7eaa59f37100128372d5,2023-06-16_10h16.25.776,phx_ver10,2022.2.5,Win32,60.13229104,,,,,,,,,,,,24,testing_2,zh2x,ei,zh2x_ei,zh2x_8_eixei.wav,zh2x_1_eizhei.wav,,FALSE,FALSE,,,,,,,,,,,,,,j,0.2793,space,0.6672,,,,,,,,0,107,107,23,1,,
5dac7eaa59f37100128372d5,2023-06-16_10h16.25.776,phx_ver10,2022.2.5,Win32,60.13229104,,,,,,,,,,,,135,testing_3,sh2j,e,sh2j_e,sh2j_1_eshe.wav,sh2j_8_eje.wav,,FALSE,FALSE,,,,,,,,,,,,,,j,0.3675,space,0.7174,,,,,,,,0,108,108,134,1,,
5dac7eaa59f37100128372d5,2023-06-16_10h16.25.776,phx_ver10,2022.2.5,Win32,60.13229104,,,,,,,,,,,,21,testing_2,zh2x,ei,zh2x_ei,zh2x_1_eizhei.wav,zh2x_1_eizhei.wav,,TRUE,FALSE,,,,,,,,,,,,,,f,0.3846,space,0.8024,,,,,,,,0,109,109,20,1,,
5dac7eaa59f37100128372d5,2023-06-16_10h16.25.776,phx_ver10,2022.2.5,Win32,60.13229104,,,,,,,,,,,,32,testing_3,zh2sh,ai,zh2sh_ai,zh2sh_8_aishai.wav,zh2sh_1_aizhai.wav,,FALSE,FALSE,,,,,,,,,,,,,,j,0.3955,space,0.7455,,,,,,,,0,110,110,31,1,,
5dac7eaa59f37100128372d5,2023-06-16_10h16.25.776,phx_ver10,2022.2.5,Win32,60.13229104,,,,,,,,,,,,5,testing_1,zh2x,e,zh2x_e,zh2x_1_ezhe.wav,zh2x_1_ezhe_copy.wav,,TRUE,TRUE,,,,,,,,,,,,,,f,0.1517,space,0.537,,,,,,,,0,111,111,4,1,,
5dac7eaa59f37100128372d5,2023-06-16_10h16.25.776,phx_ver10,2022.2.5,Win32,60.13229104,,,,,,,,,,,,98,testing_3,sh2x,a,sh2x_a,sh2x_8_axa.wav,sh2x_8_axa.wav,,TRUE,FALSE,,,,,,,,,,,,,,f,0.1673,space,0.5516,,,,,,,,0,112,112,97,1,,
5dac7eaa59f37100128372d5,2023-06-16_10h16.25.776,phx_ver10,2022.2.5,Win32,60.13229104,,,,,,,,,,,,41,testing_3,zh2sh,ei,zh2sh_ei,zh2sh_1_eizhei.wav,zh2sh_1_eizhei.wav,,TRUE,FALSE,,,,,,,,,,,,,,f,0.1624,space,0.568,,,,,,,,0,113,113,40,1,,
5dac7eaa59f37100128372d5,2023-06-16_10h16.25.776,phx_ver10,2022.2.5,Win32,60.13229104,,,,,,,,,,,,55,testing_3,zh2j,ai,zh2j_ai,zh2j_1_aizhai.wav,zh2j_8_aijai.wav,,FALSE,FALSE,,,,,,,,,,,,,,f,0.2007,space,0.5843,,,,,,,,0,114,114,54,1,,
5dac7eaa59f37100128372d5,2023-06-16_10h16.25.776,phx_ver10,2022.2.5,Win32,60.13229104,,,,,,,,,,,,73,testing_3,j2x,a,j2x_a,j2x_1_aja.wav,j2x_1_aja.wav,,TRUE,FALSE,,,,,,,,,,,,,,f,0.1839,space,0.5509,,,,,,,,0,115,115,72,1,,
5dac7eaa59f37100128372d5,2023-06-16_10h16.25.776,phx_ver10,2022.2.5,Win32,60.13229104,,,,,,,,,,,,1,testing_1,zh2x,a,zh2x_a,zh2x_1_azha.wav,zh2x_1_azha_copy.wav,,TRUE,TRUE,,,,,,,,,,,,,,f,0.0353,space,0.4678,,,,,,,,0,116,116,0,1,,
5dac7eaa59f37100128372d5,2023-06-16_10h16.25.776,phx_ver10,2022.2.5,Win32,60.13229104,,,,,,,,,,,,99,testing_3,sh2x,a,sh2x_a,sh2x_1_asha.wav,sh2x_8_axa.wav,,FALSE,FALSE,,,,,,,,,,,,,,f,0.2338,space,0.6345,,,,,,,,0,117,117,98,1,,
5dac7eaa59f37100128372d5,2023-06-16_10h16.25.776,phx_ver10,2022.2.5,Win32,60.13229104,,,,,,,,,,,,26,testing_3,zh2sh,a,zh2sh_a,zh2sh_8_asha.wav,zh2sh_8_asha.wav,,TRUE,FALSE,,,,,,,,,,,,,,f,0.0622,space,0.501,,,,,,,,0,118,118,25,1,,
5dac7eaa59f37100128372d5,2023-06-16_10h16.25.776,phx_ver10,2022.2.5,Win32,60.13229104,,,,,,,,,,,,80,testing_3,j2x,ai,j2x_ai,j2x_8_aixai.wav,j2x_1_aijai.wav,,FALSE,FALSE,,,,,,,,,,,,,,j,0.3232,space,0.7207,,,,,,,,0,119,119,79,1,,
5dac7eaa59f37100128372d5,2023-06-16_10h16.25.776,phx_ver10,2022.2.5,Win32,60.13229104,,,,,,,,,,,,10,testing_1,zh2x,i,zh2x_i,zh2x_8_ixi.wav,zh2x_8_ixi_copy.wav,,TRUE,TRUE,,,,,,,,,,,,,,f,0.1343,space,0.5509,,,,,,,,0,120,120,9,1,,
5dac7eaa59f37100128372d5,2023-06-16_10h16.25.776,phx_ver10,2022.2.5,Win32,60.13229104,,,,,,,,,,,,71,testing_3,zh2j,i,zh2j_i,zh2j_1_izhi.wav,zh2j_8_iji.wav,,FALSE,FALSE,,,,,,,,,,,,,,f,0.1343,space,0.5173,,,,,,,,0,121,121,70,1,,
5dac7eaa59f37100128372d5,2023-06-16_10h16.25.776,phx_ver10,2022.2.5,Win32,60.13229104,,,,,,,,,,,,40,testing_3,zh2sh,e,zh2sh_e,zh2sh_8_eshe.wav,zh2sh_1_ezhe.wav,,FALSE,FALSE,,,,,,,,,,,,,,j,0.2869,space,0.6872,,,,,,,,0,122,122,39,1,,
5dac7eaa59f37100128372d5,2023-06-16_10h16.25.776,phx_ver10,2022.2.5,Win32,60.13229104,,,,,,,,,,,,45,testing_3,zh2sh,i,zh2sh_i,zh2sh_1_izhi.wav,zh2sh_1_izhi.wav,,TRUE,FALSE,,,,,,,,,,,,,,f,0.4482,space,0.8508,,,,,,,,0,123,123,44,1,,
5dac7eaa59f37100128372d5,2023-06-16_10h16.25.776,phx_ver10,2022.2.5,Win32,60.13229104,,,,,,,,,,,,93,testing_3,j2x,i,j2x_i,j2x_1_iji.wav,j2x_1_iji.wav,,TRUE,FALSE,,,,,,,,,,,,,,f,0.1156,space,0.5292,,,,,,,,0,124,124,92,1,,
5dac7eaa59f37100128372d5,2023-06-16_10h16.25.776,phx_ver10,2022.2.5,Win32,60.13229104,,,,,,,,,,,,65,testing_3,zh2j,ei,zh2j_ei,zh2j_1_eizhei.wav,zh2j_1_eizhei.wav,,TRUE,FALSE,,,,,,,,,,,,,,f,0.2019,space,0.5844,,,,,,,,0,125,125,64,1,,
5dac7eaa59f37100128372d5,2023-06-16_10h16.25.776,phx_ver10,2022.2.5,Win32,60.13229104,,,,,,,,,,,,128,testing_3,sh2j,ai,sh2j_ai,sh2j_8_aijai.wav,sh2j_1_aishai.wav,,FALSE,FALSE,,,,,,,,,,,,,,j,0.4189,space,0.8155,,,,,,,,0,126,126,127,1,,
5dac7eaa59f37100128372d5,2023-06-16_10h16.25.776,phx_ver10,2022.2.5,Win32,60.13229104,,,,,,,,,,,,103,testing_3,sh2x,ai,sh2x_ai,sh2x_1_aishai.wav,sh2x_8_aixai.wav,,FALSE,FALSE,,,,,,,,,,,,,,f,0.884,space,1.3326,,,,,,,,0,127,127,102,1,,
5dac7eaa59f37100128372d5,2023-06-16_10h16.25.776,phx_ver10,2022.2.5,Win32,60.13229104,,,,,,,,,,,,6,testing_1,zh2x,e,zh2x_e,zh2x_8_exe.wav,zh2x_8_exe_copy.wav,,TRUE,TRUE,,,,,,,,,,,,,,f,0.2195,space,0.6809,,,,,,,,0,128,128,5,1,,
5dac7eaa59f37100128372d5,2023-06-16_10h16.25.776,phx_ver10,2022.2.5,Win32,60.13229104,,,,,,,,,,,,4,testing_1,zh2x,a,zh2x_a,zh2x_8_axa.wav,zh2x_1_azha.wav,,FALSE,TRUE,,,,,,,,,,,,,,j,0.2641,space,0.6696,,,,,,,,0,129,129,3,1,,
5dac7eaa59f37100128372d5,2023-06-16_10h16.25.776,phx_ver10,2022.2.5,Win32,60.13229104,,,,,,,,,,,,109,testing_3,sh2x,e,sh2x_e,sh2x_1_eshe.wav,sh2x_1_eshe.wav,,TRUE,FALSE,,,,,,,,,,,,,,f,0.2349,space,0.6186,,,,,,,,0,130,130,108,1,,
5dac7eaa59f37100128372d5,2023-06-16_10h16.25.776,phx_ver10,2022.2.5,Win32,60.13229104,,,,,,,,,,,,116,testing_3,sh2x,ei,sh2x_ei,sh2x_8_eixei.wav,sh2x_1_eishei.wav,,FALSE,FALSE,,,,,,,,,,,,,,f,0.0194,space,0.4198,,,,,,,,0,131,131,115,1,,
5dac7eaa59f37100128372d5,2023-06-16_10h16.25.776,phx_ver10,2022.2.5,Win32,60.13229104,,,,,,,,,,,,46,testing_3,zh2sh,i,zh2sh_i,zh2sh_8_ishi.wav,zh2sh_8_ishi.wav,,TRUE,FALSE,,,,,,,,,,,,,,f,1.4342,space,2.3512,,,,,,,,0,132,132,45,1,,
5dac7eaa59f37100128372d5,2023-06-16_10h16.25.776,phx_ver10,2022.2.5,Win32,60.13229104,,,,,,,,,,,,133,testing_3,sh2j,e,sh2j_e,sh2j_1_eshe.wav,sh2j_1_eshe.wav,,TRUE,FALSE,,,,,,,,,,,,,,f,0.3204,space,0.721,,,,,,,,0,133,133,132,1,,
5dac7eaa59f37100128372d5,2023-06-16_10h16.25.776,phx_ver10,2022.2.5,Win32,60.13229104,,,,,,,,,,,,54,testing_3,zh2j,ai,zh2j_ai,zh2j_8_aijai.wav,zh2j_8_aijai.wav,,TRUE,FALSE,,,,,,,,,,,,,,f,0.1568,space,0.5572,,,,,,,,0,134,134,53,1,,
5dac7eaa59f37100128372d5,2023-06-16_10h16.25.776,phx_ver10,2022.2.5,Win32,60.13229104,,,,,,,,,,,,44,testing_3,zh2sh,ei,zh2sh_ei,zh2sh_8_eishei.wav,zh2sh_1_eizhei.wav,,FALSE,FALSE,,,,,,,,,,,,,,j,0.3569,space,0.7898,,,,,,,,0,135,135,43,1,,
5dac7eaa59f37100128372d5,2023-06-16_10h16.25.776,phx_ver10,2022.2.5,Win32,60.13229104,,,,,,,,,,,,117,testing_3,sh2x,i,sh2x_i,sh2x_1_ishi.wav,sh2x_1_ishi.wav,,TRUE,FALSE,,,,,,,,,,,,,,f,0.0343,space,0.4953,,,,,,,,0,136,136,116,1,,
5dac7eaa59f37100128372d5,2023-06-16_10h16.25.776,phx_ver10,2022.2.5,Win32,60.13229104,,,,,,,,,,,,106,testing_3,sh2x,au,sh2x_au,sh2x_8_auxau.wav,sh2x_8_auxau.wav,,TRUE,FALSE,,,,,,,,,,,,,,f,0.0008,space,0.4339,,,,,,,,0,137,137,105,1,,
5dac7eaa59f37100128372d5,2023-06-16_10h16.25.776,phx_ver10,2022.2.5,Win32,60.13229104,,,,,,,,,,,,63,testing_3,zh2j,e,zh2j_e,zh2j_1_ezhe.wav,zh2j_8_eje.wav,,FALSE,FALSE,,,,,,,,,,,,,,f,0.0508,space,0.4842,,,,,,,,0,138,138,62,1,,
5dac7eaa59f37100128372d5,2023-06-16_10h16.25.776,phx_ver10,2022.2.5,Win32,60.13229104,,,,,,,,,,,,68,testing_3,zh2j,ei,zh2j_ei,zh2j_8_eijei.wav,zh2j_1_eizhei.wav,,FALSE,FALSE,,,,,,,,,,,,,,f,0.034,space,0.4335,,,,,,,,0,139,139,67,1,,
5dac7eaa59f37100128372d5,2023-06-16_10h16.25.776,phx_ver10,2022.2.5,Win32,60.13229104,,,,,,,,,,,,129,testing_3,sh2j,au,sh2j_au,sh2j_1_aushau.wav,sh2j_1_aushau.wav,,TRUE,FALSE,,,,,,,,,,,,,,f,0.0522,space,0.9674,,,,,,,,0,140,140,128,1,,
5dac7eaa59f37100128372d5,2023-06-16_10h16.25.776,phx_ver10,2022.2.5,Win32,60.13229104,,,,,,,,,,,,47,testing_3,zh2sh,i,zh2sh_i,zh2sh_1_izhi.wav,zh2sh_8_ishi.wav,,FALSE,FALSE,,,,,,,,,,,,,,j,0.3344,space,0.7362,,,,,,,,0,141,141,46,1,,
5dac7eaa59f37100128372d5,2023-06-16_10h16.25.776,phx_ver10,2022.2.5,Win32,60.13229104,,,,,,,,,,,,64,testing_3,zh2j,e,zh2j_e,zh2j_8_eje.wav,zh2j_1_ezhe.wav,,FALSE,FALSE,,,,,,,,,,,,,,f,1.0955,space,1.5176,,,,,,,,0,142,142,63,1,,
5dac7eaa59f37100128372d5,2023-06-16_10h16.25.776,phx_ver10,2022.2.5,Win32,60.13229104,,,,,,,,,,,,78,testing_3,j2x,ai,j2x_ai,j2x_8_aixai.wav,j2x_8_aixai.wav,,TRUE,FALSE,,,,,,,,,,,,,,f,0.1368,space,0.5348,,,,,,,,0,143,143,77,1,,
5dac7eaa59f37100128372d5,2023-06-16_10h16.25.776,phx_ver10,2022.2.5,Win32,60.13229104,,,,,,,,,,,,,,,,,,,,,,,,,,,,,,,,,,,,,,,,,,,,,,,,,,,space,2.0674
