participant,date,expName,psychopyVersion,OS,frameRate,space_1.keys,space_1.rt,space_2.keys,space_2.rt,space_train.keys,space_train.rt,training.thisRepN,training.thisTrialN,training.thisN,training.thisIndex,training.ran,token_id,task,continuum,vowel,series,sound_1,sound_2,img,same,trained,FJ_attn.keys,FJ_attn.rt,space_attn.keys,space_attn.rt,if_attn_test.thisRepN,if_attn_test.thisTrialN,if_attn_test.thisN,if_attn_test.thisIndex,if_attn_test.ran,space_trans_1.keys,space_trans_1.rt,space_trans_11.keys,space_trans_11.rt,FJ_test.keys,FJ_test.rt,space_test.keys,space_test.rt,testing_pre.thisRepN,testing_pre.thisTrialN,testing_pre.thisN,testing_pre.thisIndex,testing_pre.ran,space_trans_2.keys,space_trans_2.rt,testing_all.thisRepN,testing_all.thisTrialN,testing_all.thisN,testing_all.thisIndex,testing_all.ran,space_ending.keys,space_ending.rt
5dd6280e238a915cda514060,2023-06-16_10h28.10.831,phx_ver10,2022.2.5,Win32,59.87665409,,,,,,,,,,,,,,,,,,,,,,,,,,,,,,,,,,,,,,,,,,,,,,,,,,,,
5dd6280e238a915cda514060,2023-06-16_10h28.10.831,phx_ver10,2022.2.5,Win32,59.87665409,space,3.9645,,,,,,,,,,,,,,,,,,,,,,,,,,,,,,,,,,,,,,,,,,,,,,,,,,
5dd6280e238a915cda514060,2023-06-16_10h28.10.831,phx_ver10,2022.2.5,Win32,59.87665409,,,space,3.3217,,,,,,,,,,,,,,,,,,,,,,,,,,,,,,,,,,,,,,,,,,,,,,,,
5dd6280e238a915cda514060,2023-06-16_10h28.10.831,phx_ver10,2022.2.5,Win32,59.87665409,,,,,space,0.9654,0,0,0,35,1,36,training,zh2x,i,zh2x_i,zh2x_2_izhi.wav,,izhi.jpg,,,,,,,,,,,,,,,,,,,,,,,,,,,,,,,,,
5dd6280e238a915cda514060,2023-06-16_10h28.10.831,phx_ver10,2022.2.5,Win32,59.87665409,,,,,space,0.3509,0,1,1,24,1,25,training,zh2x,e,zh2x_e,zh2x_5_exe.wav,,exe.jpg,,,,,,,,,,,,,,,,,,,,,,,,,,,,,,,,,
5dd6280e238a915cda514060,2023-06-16_10h28.10.831,phx_ver10,2022.2.5,Win32,59.87665409,,,,,space,1.1853,0,2,2,44,1,45,training,zh2x,i,zh2x_i,zh2x_7_ixi.wav,,ixi.jpg,,,,,,,,,,,,,,,,,,,,,,,,,,,,,,,,,
5dd6280e238a915cda514060,2023-06-16_10h28.10.831,phx_ver10,2022.2.5,Win32,59.87665409,,,,,space,0.0577,0,3,3,4,1,5,training,zh2x,a,zh2x_a,zh2x_2_azha.wav,,azha.jpg,,,,,,,,,,,,,,,,,,,,,,,,,,,,,,,,,
5dd6280e238a915cda514060,2023-06-16_10h28.10.831,phx_ver10,2022.2.5,Win32,59.87665409,,,,,space,0.9543,0,4,4,15,1,16,training,zh2x,a,zh2x_a,zh2x_8_axa.wav,,axa.jpg,,,,,,,,,,,,,,,,,,,,,,,,,,,,,,,,,
5dd6280e238a915cda514060,2023-06-16_10h28.10.831,phx_ver10,2022.2.5,Win32,59.87665409,,,,,space,1.1736,0,5,5,19,1,20,training,zh2x,e,zh2x_e,zh2x_2_ezhe.wav,,ezhe.jpg,,,,,,,,,,,,,,,,,,,,,,,,,,,,,,,,,
5dd6280e238a915cda514060,2023-06-16_10h28.10.831,phx_ver10,2022.2.5,Win32,59.87665409,,,,,,,,,,,,,attn_test,,,,zh2x_1_ezhe.wav,zh2x_8_axa.wav,axa.jpg,RIGHT,,f,6.2025,space,7.7542,0,0,0,0,1,,,,,,,,,,,,,,,,,,,,,,
5dd6280e238a915cda514060,2023-06-16_10h28.10.831,phx_ver10,2022.2.5,Win32,59.87665409,,,,,space,1.3551,0,6,6,18,1,19,training,zh2x,e,zh2x_e,zh2x_2_ezhe.wav,,ezhe.jpg,,,,,,,,,,,,,,,,,,,,,,,,,,,,,,,,,
5dd6280e238a915cda514060,2023-06-16_10h28.10.831,phx_ver10,2022.2.5,Win32,59.87665409,,,,,space,0.4704,0,7,7,40,1,41,training,zh2x,i,zh2x_i,zh2x_5_ixi.wav,,ixi.jpg,,,,,,,,,,,,,,,,,,,,,,,,,,,,,,,,,
5dd6280e238a915cda514060,2023-06-16_10h28.10.831,phx_ver10,2022.2.5,Win32,59.87665409,,,,,space,0.4644,0,8,8,38,1,39,training,zh2x,i,zh2x_i,zh2x_3_izhi.wav,,izhi.jpg,,,,,,,,,,,,,,,,,,,,,,,,,,,,,,,,,
5dd6280e238a915cda514060,2023-06-16_10h28.10.831,phx_ver10,2022.2.5,Win32,59.87665409,,,,,space,0.4913,0,9,9,23,1,24,training,zh2x,e,zh2x_e,zh2x_4_ezhe.wav,,ezhe.jpg,,,,,,,,,,,,,,,,,,,,,,,,,,,,,,,,,
5dd6280e238a915cda514060,2023-06-16_10h28.10.831,phx_ver10,2022.2.5,Win32,59.87665409,,,,,space,1.05,0,10,10,3,1,4,training,zh2x,a,zh2x_a,zh2x_2_azha.wav,,azha.jpg,,,,,,,,,,,,,,,,,,,,,,,,,,,,,,,,,
5dd6280e238a915cda514060,2023-06-16_10h28.10.831,phx_ver10,2022.2.5,Win32,59.87665409,,,,,space,0.2511,0,11,11,41,1,42,training,zh2x,i,zh2x_i,zh2x_6_ixi.wav,,ixi.jpg,,,,,,,,,,,,,,,,,,,,,,,,,,,,,,,,,
5dd6280e238a915cda514060,2023-06-16_10h28.10.831,phx_ver10,2022.2.5,Win32,59.87665409,,,,,,,,,,,,,attn_test,,,,zh2x_8_ixi.wav,zh2x_1_ezhe.wav,ixi.jpg,LEFT,,j,1.6383,space,2.1202,0,0,0,0,1,,,,,,,,,,,,,,,,,,,,,,
5dd6280e238a915cda514060,2023-06-16_10h28.10.831,phx_ver10,2022.2.5,Win32,59.87665409,,,,,space,0.2024,0,12,12,8,1,9,training,zh2x,a,zh2x_a,zh2x_5_axa.wav,,axa.jpg,,,,,,,,,,,,,,,,,,,,,,,,,,,,,,,,,
5dd6280e238a915cda514060,2023-06-16_10h28.10.831,phx_ver10,2022.2.5,Win32,59.87665409,,,,,space,0.091,0,13,13,1,1,2,training,zh2x,a,zh2x_a,zh2x_2_azha.wav,,azha.jpg,,,,,,,,,,,,,,,,,,,,,,,,,,,,,,,,,
5dd6280e238a915cda514060,2023-06-16_10h28.10.831,phx_ver10,2022.2.5,Win32,59.87665409,,,,,space,0.6178,0,14,14,36,1,37,training,zh2x,i,zh2x_i,zh2x_2_izhi.wav,,izhi.jpg,,,,,,,,,,,,,,,,,,,,,,,,,,,,,,,,,
5dd6280e238a915cda514060,2023-06-16_10h28.10.831,phx_ver10,2022.2.5,Win32,59.87665409,,,,,space,0.0348,0,15,15,31,1,32,training,zh2x,e,zh2x_e,zh2x_8_exe.wav,,exe.jpg,,,,,,,,,,,,,,,,,,,,,,,,,,,,,,,,,
5dd6280e238a915cda514060,2023-06-16_10h28.10.831,phx_ver10,2022.2.5,Win32,59.87665409,,,,,space,1.0264,0,16,16,45,1,46,training,zh2x,i,zh2x_i,zh2x_7_ixi.wav,,ixi.jpg,,,,,,,,,,,,,,,,,,,,,,,,,,,,,,,,,
5dd6280e238a915cda514060,2023-06-16_10h28.10.831,phx_ver10,2022.2.5,Win32,59.87665409,,,,,space,0.7396,0,17,17,43,1,44,training,zh2x,i,zh2x_i,zh2x_7_ixi.wav,,ixi.jpg,,,,,,,,,,,,,,,,,,,,,,,,,,,,,,,,,
5dd6280e238a915cda514060,2023-06-16_10h28.10.831,phx_ver10,2022.2.5,Win32,59.87665409,,,,,,,,,,,,,attn_test,,,,zh2x_1_izhi.wav,zh2x_1_azha.wav,izhi.jpg,LEFT,,f,0.5023,space,1.3205,0,0,0,0,1,,,,,,,,,,,,,,,,,,,,,,
5dd6280e238a915cda514060,2023-06-16_10h28.10.831,phx_ver10,2022.2.5,Win32,59.87665409,,,,,space,0.8203,0,18,18,30,1,31,training,zh2x,e,zh2x_e,zh2x_7_exe.wav,,exe.jpg,,,,,,,,,,,,,,,,,,,,,,,,,,,,,,,,,
5dd6280e238a915cda514060,2023-06-16_10h28.10.831,phx_ver10,2022.2.5,Win32,59.87665409,,,,,space,0.8578,0,19,19,14,1,15,training,zh2x,a,zh2x_a,zh2x_7_axa.wav,,axa.jpg,,,,,,,,,,,,,,,,,,,,,,,,,,,,,,,,,
5dd6280e238a915cda514060,2023-06-16_10h28.10.831,phx_ver10,2022.2.5,Win32,59.87665409,,,,,space,0.0651,0,20,20,12,1,13,training,zh2x,a,zh2x_a,zh2x_7_axa.wav,,axa.jpg,,,,,,,,,,,,,,,,,,,,,,,,,,,,,,,,,
5dd6280e238a915cda514060,2023-06-16_10h28.10.831,phx_ver10,2022.2.5,Win32,59.87665409,,,,,space,0.1598,0,21,21,7,1,8,training,zh2x,a,zh2x_a,zh2x_4_azha.wav,,azha.jpg,,,,,,,,,,,,,,,,,,,,,,,,,,,,,,,,,
5dd6280e238a915cda514060,2023-06-16_10h28.10.831,phx_ver10,2022.2.5,Win32,59.87665409,,,,,space,0.8285,0,22,22,42,1,43,training,zh2x,i,zh2x_i,zh2x_6_ixi.wav,,ixi.jpg,,,,,,,,,,,,,,,,,,,,,,,,,,,,,,,,,
5dd6280e238a915cda514060,2023-06-16_10h28.10.831,phx_ver10,2022.2.5,Win32,59.87665409,,,,,space,1.0016,0,23,23,25,1,26,training,zh2x,e,zh2x_e,zh2x_6_exe.wav,,exe.jpg,,,,,,,,,,,,,,,,,,,,,,,,,,,,,,,,,
5dd6280e238a915cda514060,2023-06-16_10h28.10.831,phx_ver10,2022.2.5,Win32,59.87665409,,,,,,,,,,,,,attn_test,,,,zh2x_8_ixi.wav,zh2x_8_exe.wav,exe.jpg,RIGHT,,j,1.4529,space,2.8754,0,0,0,0,1,,,,,,,,,,,,,,,,,,,,,,
5dd6280e238a915cda514060,2023-06-16_10h28.10.831,phx_ver10,2022.2.5,Win32,59.87665409,,,,,space,0.4823,0,24,24,46,1,47,training,zh2x,i,zh2x_i,zh2x_7_ixi.wav,,ixi.jpg,,,,,,,,,,,,,,,,,,,,,,,,,,,,,,,,,
5dd6280e238a915cda514060,2023-06-16_10h28.10.831,phx_ver10,2022.2.5,Win32,59.87665409,,,,,space,0.0317,0,25,25,2,1,3,training,zh2x,a,zh2x_a,zh2x_2_azha.wav,,azha.jpg,,,,,,,,,,,,,,,,,,,,,,,,,,,,,,,,,
5dd6280e238a915cda514060,2023-06-16_10h28.10.831,phx_ver10,2022.2.5,Win32,59.87665409,,,,,space,0.9841,0,26,26,9,1,10,training,zh2x,a,zh2x_a,zh2x_6_axa.wav,,axa.jpg,,,,,,,,,,,,,,,,,,,,,,,,,,,,,,,,,
5dd6280e238a915cda514060,2023-06-16_10h28.10.831,phx_ver10,2022.2.5,Win32,59.87665409,,,,,space,0.4822,0,27,27,20,1,21,training,zh2x,e,zh2x_e,zh2x_2_ezhe.wav,,ezhe.jpg,,,,,,,,,,,,,,,,,,,,,,,,,,,,,,,,,
5dd6280e238a915cda514060,2023-06-16_10h28.10.831,phx_ver10,2022.2.5,Win32,59.87665409,,,,,space,0.6493,0,28,28,47,1,48,training,zh2x,i,zh2x_i,zh2x_8_ixi.wav,,ixi.jpg,,,,,,,,,,,,,,,,,,,,,,,,,,,,,,,,,
5dd6280e238a915cda514060,2023-06-16_10h28.10.831,phx_ver10,2022.2.5,Win32,59.87665409,,,,,space,0.7159,0,29,29,21,1,22,training,zh2x,e,zh2x_e,zh2x_3_ezhe.wav,,ezhe.jpg,,,,,,,,,,,,,,,,,,,,,,,,,,,,,,,,,
5dd6280e238a915cda514060,2023-06-16_10h28.10.831,phx_ver10,2022.2.5,Win32,59.87665409,,,,,,,,,,,,,attn_test,,,,zh2x_8_axa.wav,zh2x_1_ezhe.wav,axa.jpg,LEFT,,f,4.9391,space,5.338,0,0,0,0,1,,,,,,,,,,,,,,,,,,,,,,
5dd6280e238a915cda514060,2023-06-16_10h28.10.831,phx_ver10,2022.2.5,Win32,59.87665409,,,,,space,0.4502,0,30,30,26,1,27,training,zh2x,e,zh2x_e,zh2x_6_exe.wav,,exe.jpg,,,,,,,,,,,,,,,,,,,,,,,,,,,,,,,,,
5dd6280e238a915cda514060,2023-06-16_10h28.10.831,phx_ver10,2022.2.5,Win32,59.87665409,,,,,space,0.4663,0,31,31,27,1,28,training,zh2x,e,zh2x_e,zh2x_7_exe.wav,,exe.jpg,,,,,,,,,,,,,,,,,,,,,,,,,,,,,,,,,
5dd6280e238a915cda514060,2023-06-16_10h28.10.831,phx_ver10,2022.2.5,Win32,59.87665409,,,,,space,0.2198,0,32,32,37,1,38,training,zh2x,i,zh2x_i,zh2x_3_izhi.wav,,izhi.jpg,,,,,,,,,,,,,,,,,,,,,,,,,,,,,,,,,
5dd6280e238a915cda514060,2023-06-16_10h28.10.831,phx_ver10,2022.2.5,Win32,59.87665409,,,,,space,0.0568,0,33,33,39,1,40,training,zh2x,i,zh2x_i,zh2x_4_izhi.wav,,izhi.jpg,,,,,,,,,,,,,,,,,,,,,,,,,,,,,,,,,
5dd6280e238a915cda514060,2023-06-16_10h28.10.831,phx_ver10,2022.2.5,Win32,59.87665409,,,,,space,0.6012,0,34,34,34,1,35,training,zh2x,i,zh2x_i,zh2x_2_izhi.wav,,izhi.jpg,,,,,,,,,,,,,,,,,,,,,,,,,,,,,,,,,
5dd6280e238a915cda514060,2023-06-16_10h28.10.831,phx_ver10,2022.2.5,Win32,59.87665409,,,,,space,0.5858,0,35,35,10,1,11,training,zh2x,a,zh2x_a,zh2x_6_axa.wav,,axa.jpg,,,,,,,,,,,,,,,,,,,,,,,,,,,,,,,,,
5dd6280e238a915cda514060,2023-06-16_10h28.10.831,phx_ver10,2022.2.5,Win32,59.87665409,,,,,,,,,,,,,attn_test,,,,zh2x_1_izhi.wav,zh2x_8_exe.wav,izhi.jpg,LEFT,,f,0.8431,space,1.2193,0,0,0,0,1,,,,,,,,,,,,,,,,,,,,,,
5dd6280e238a915cda514060,2023-06-16_10h28.10.831,phx_ver10,2022.2.5,Win32,59.87665409,,,,,space,0.6852,0,36,36,32,1,33,training,zh2x,i,zh2x_i,zh2x_1_izhi.wav,,izhi.jpg,,,,,,,,,,,,,,,,,,,,,,,,,,,,,,,,,
5dd6280e238a915cda514060,2023-06-16_10h28.10.831,phx_ver10,2022.2.5,Win32,59.87665409,,,,,space,0.0729,0,37,37,16,1,17,training,zh2x,e,zh2x_e,zh2x_1_ezhe.wav,,ezhe.jpg,,,,,,,,,,,,,,,,,,,,,,,,,,,,,,,,,
5dd6280e238a915cda514060,2023-06-16_10h28.10.831,phx_ver10,2022.2.5,Win32,59.87665409,,,,,space,13.3952,0,38,38,13,1,14,training,zh2x,a,zh2x_a,zh2x_7_axa.wav,,axa.jpg,,,,,,,,,,,,,,,,,,,,,,,,,,,,,,,,,
5dd6280e238a915cda514060,2023-06-16_10h28.10.831,phx_ver10,2022.2.5,Win32,59.87665409,,,,,space,0.4994,0,39,39,29,1,30,training,zh2x,e,zh2x_e,zh2x_7_exe.wav,,exe.jpg,,,,,,,,,,,,,,,,,,,,,,,,,,,,,,,,,
5dd6280e238a915cda514060,2023-06-16_10h28.10.831,phx_ver10,2022.2.5,Win32,59.87665409,,,,,space,0.216,0,40,40,22,1,23,training,zh2x,e,zh2x_e,zh2x_3_ezhe.wav,,ezhe.jpg,,,,,,,,,,,,,,,,,,,,,,,,,,,,,,,,,
5dd6280e238a915cda514060,2023-06-16_10h28.10.831,phx_ver10,2022.2.5,Win32,59.87665409,,,,,space,0.0009,0,41,41,11,1,12,training,zh2x,a,zh2x_a,zh2x_7_axa.wav,,axa.jpg,,,,,,,,,,,,,,,,,,,,,,,,,,,,,,,,,
5dd6280e238a915cda514060,2023-06-16_10h28.10.831,phx_ver10,2022.2.5,Win32,59.87665409,,,,,,,,,,,,,attn_test,,,,zh2x_1_ezhe.wav,zh2x_8_ixi.wav,ezhe.jpg,LEFT,,f,0.0007,space,0.3749,0,0,0,0,1,,,,,,,,,,,,,,,,,,,,,,
5dd6280e238a915cda514060,2023-06-16_10h28.10.831,phx_ver10,2022.2.5,Win32,59.87665409,,,,,space,0.2671,0,42,42,33,1,34,training,zh2x,i,zh2x_i,zh2x_2_izhi.wav,,izhi.jpg,,,,,,,,,,,,,,,,,,,,,,,,,,,,,,,,,
5dd6280e238a915cda514060,2023-06-16_10h28.10.831,phx_ver10,2022.2.5,Win32,59.87665409,,,,,space,0.7162,0,43,43,5,1,6,training,zh2x,a,zh2x_a,zh2x_3_azha.wav,,azha.jpg,,,,,,,,,,,,,,,,,,,,,,,,,,,,,,,,,
5dd6280e238a915cda514060,2023-06-16_10h28.10.831,phx_ver10,2022.2.5,Win32,59.87665409,,,,,space,0.3822,0,44,44,6,1,7,training,zh2x,a,zh2x_a,zh2x_3_azha.wav,,azha.jpg,,,,,,,,,,,,,,,,,,,,,,,,,,,,,,,,,
5dd6280e238a915cda514060,2023-06-16_10h28.10.831,phx_ver10,2022.2.5,Win32,59.87665409,,,,,space,0.0718,0,45,45,17,1,18,training,zh2x,e,zh2x_e,zh2x_2_ezhe.wav,,ezhe.jpg,,,,,,,,,,,,,,,,,,,,,,,,,,,,,,,,,
5dd6280e238a915cda514060,2023-06-16_10h28.10.831,phx_ver10,2022.2.5,Win32,59.87665409,,,,,space,0.2545,0,46,46,28,1,29,training,zh2x,e,zh2x_e,zh2x_7_exe.wav,,exe.jpg,,,,,,,,,,,,,,,,,,,,,,,,,,,,,,,,,
5dd6280e238a915cda514060,2023-06-16_10h28.10.831,phx_ver10,2022.2.5,Win32,59.87665409,,,,,space,0.0191,0,47,47,0,1,1,training,zh2x,a,zh2x_a,zh2x_1_azha.wav,,azha.jpg,,,,,,,,,,,,,,,,,,,,,,,,,,,,,,,,,
5dd6280e238a915cda514060,2023-06-16_10h28.10.831,phx_ver10,2022.2.5,Win32,59.87665409,,,,,,,,,,,,,attn_test,,,,zh2x_8_exe.wav,zh2x_1_azha.wav,azha.jpg,RIGHT,,j,1.1678,space,1.6388,,,,,,,,,,,,,,,,,,,,,,,,,,,
5dd6280e238a915cda514060,2023-06-16_10h28.10.831,phx_ver10,2022.2.5,Win32,59.87665409,,,,,,,,,,,,,,,,,,,,,,,,,,,,,,,space,0.8369,,,,,,,,,,,,,,,,,,,,
5dd6280e238a915cda514060,2023-06-16_10h28.10.831,phx_ver10,2022.2.5,Win32,59.87665409,,,,,,,,,,,,,,,,,,,,,,,,,,,,,,,,,space,8.1371,,,,,,,,,,,,,,,,,,
5dd6280e238a915cda514060,2023-06-16_10h28.10.831,phx_ver10,2022.2.5,Win32,59.87665409,,,,,,,,,,,,5,testing_pre,,,,ihi.wav,ifi.wav,,FALSE,,,,,,,,,,,,,,,f,1.9343,space,2.4483,0,0,0,4,1,,,,,,,,,
5dd6280e238a915cda514060,2023-06-16_10h28.10.831,phx_ver10,2022.2.5,Win32,59.87665409,,,,,,,,,,,,3,testing_pre,,,,afa.wav,aha.wav,,FALSE,,,,,,,,,,,,,,,j,1.069,space,1.4498,0,1,1,2,1,,,,,,,,,
5dd6280e238a915cda514060,2023-06-16_10h28.10.831,phx_ver10,2022.2.5,Win32,59.87665409,,,,,,,,,,,,2,testing_pre,,,,auhau.wav,aufau.wav,,FALSE,,,,,,,,,,,,,,,j,0.1862,space,0.6103,0,2,2,1,1,,,,,,,,,
5dd6280e238a915cda514060,2023-06-16_10h28.10.831,phx_ver10,2022.2.5,Win32,59.87665409,,,,,,,,,,,,4,testing_pre,,,,eihei.wav,eihei.wav,,TRUE,,,,,,,,,,,,,,,f,1.7346,space,2.1867,0,3,3,3,1,,,,,,,,,
5dd6280e238a915cda514060,2023-06-16_10h28.10.831,phx_ver10,2022.2.5,Win32,59.87665409,,,,,,,,,,,,1,testing_pre,,,,ifi.wav,ifi.wav,,TRUE,,,,,,,,,,,,,,,f,0.0263,space,0.4005,0,4,4,0,1,,,,,,,,,
5dd6280e238a915cda514060,2023-06-16_10h28.10.831,phx_ver10,2022.2.5,Win32,59.87665409,,,,,,,,,,,,,,,,,,,,,,,,,,,,,,,,,,,,,,,,,,,,space,0.6001,,,,,,,
5dd6280e238a915cda514060,2023-06-16_10h28.10.831,phx_ver10,2022.2.5,Win32,59.87665409,,,,,,,,,,,,61,testing_3,zh2j,e,zh2j_e,zh2j_1_ezhe.wav,zh2j_1_ezhe.wav,,TRUE,FALSE,,,,,,,,,,,,,,f,0.6515,space,1.2238,,,,,,,,0,0,0,60,1,,
5dd6280e238a915cda514060,2023-06-16_10h28.10.831,phx_ver10,2022.2.5,Win32,59.87665409,,,,,,,,,,,,78,testing_3,j2x,ai,j2x_ai,j2x_8_aixai.wav,j2x_8_aixai.wav,,TRUE,FALSE,,,,,,,,,,,,,,f,0.618,space,0.9685,,,,,,,,0,1,1,77,1,,
5dd6280e238a915cda514060,2023-06-16_10h28.10.831,phx_ver10,2022.2.5,Win32,59.87665409,,,,,,,,,,,,49,testing_3,zh2j,a,zh2j_a,zh2j_1_azha.wav,zh2j_1_azha.wav,,TRUE,FALSE,,,,,,,,,,,,,,f,0.0842,space,0.5352,,,,,,,,0,2,2,48,1,,
5dd6280e238a915cda514060,2023-06-16_10h28.10.831,phx_ver10,2022.2.5,Win32,59.87665409,,,,,,,,,,,,19,testing_2,zh2x,au,zh2x_au,zh2x_1_auzhau.wav,zh2x_8_auxau.wav,,FALSE,FALSE,,,,,,,,,,,,,,j,0.117,space,0.5011,,,,,,,,0,3,3,18,1,,
5dd6280e238a915cda514060,2023-06-16_10h28.10.831,phx_ver10,2022.2.5,Win32,59.87665409,,,,,,,,,,,,33,testing_3,zh2sh,au,zh2sh_au,zh2sh_1_auzhau.wav,zh2sh_1_auzhau.wav,,TRUE,FALSE,,,,,,,,,,,,,,f,0.192,space,0.488,,,,,,,,0,4,4,32,1,,
5dd6280e238a915cda514060,2023-06-16_10h28.10.831,phx_ver10,2022.2.5,Win32,59.87665409,,,,,,,,,,,,85,testing_3,j2x,e,j2x_e,j2x_1_eje.wav,j2x_1_eje.wav,,TRUE,FALSE,,,,,,,,,,,,,,f,0.7246,space,1.0851,,,,,,,,0,5,5,84,1,,
5dd6280e238a915cda514060,2023-06-16_10h28.10.831,phx_ver10,2022.2.5,Win32,59.87665409,,,,,,,,,,,,58,testing_3,zh2j,au,zh2j_au,zh2j_8_aujau.wav,zh2j_8_aujau.wav,,TRUE,FALSE,,,,,,,,,,,,,,f,0.5531,space,0.9011,,,,,,,,0,6,6,57,1,,
5dd6280e238a915cda514060,2023-06-16_10h28.10.831,phx_ver10,2022.2.5,Win32,59.87665409,,,,,,,,,,,,111,testing_3,sh2x,e,sh2x_e,sh2x_1_eshe.wav,sh2x_8_exe.wav,,FALSE,FALSE,,,,,,,,,,,,,,f,0.093,space,0.4528,,,,,,,,0,7,7,110,1,,
5dd6280e238a915cda514060,2023-06-16_10h28.10.831,phx_ver10,2022.2.5,Win32,59.87665409,,,,,,,,,,,,20,testing_2,zh2x,au,zh2x_au,zh2x_8_auxau.wav,zh2x_1_auzhau.wav,,FALSE,FALSE,,,,,,,,,,,,,,f,0.9156,space,1.5185,,,,,,,,0,8,8,19,1,,
5dd6280e238a915cda514060,2023-06-16_10h28.10.831,phx_ver10,2022.2.5,Win32,59.87665409,,,,,,,,,,,,133,testing_3,sh2j,e,sh2j_e,sh2j_1_eshe.wav,sh2j_1_eshe.wav,,TRUE,FALSE,,,,,,,,,,,,,,f,0.5181,space,0.9019,,,,,,,,0,9,9,132,1,,
5dd6280e238a915cda514060,2023-06-16_10h28.10.831,phx_ver10,2022.2.5,Win32,59.87665409,,,,,,,,,,,,104,testing_3,sh2x,ai,sh2x_ai,sh2x_8_aixai.wav,sh2x_1_aishai.wav,,FALSE,FALSE,,,,,,,,,,,,,,f,0.7704,space,1.1521,,,,,,,,0,10,10,103,1,,
5dd6280e238a915cda514060,2023-06-16_10h28.10.831,phx_ver10,2022.2.5,Win32,59.87665409,,,,,,,,,,,,131,testing_3,sh2j,au,sh2j_au,sh2j_1_aushau.wav,sh2j_8_aujau.wav,,FALSE,FALSE,,,,,,,,,,,,,,j,0.0524,space,0.5232,,,,,,,,0,11,11,130,1,,
5dd6280e238a915cda514060,2023-06-16_10h28.10.831,phx_ver10,2022.2.5,Win32,59.87665409,,,,,,,,,,,,15,testing_2,zh2x,ai,zh2x_ai,zh2x_1_aizhai.wav,zh2x_8_aixai.wav,,FALSE,FALSE,,,,,,,,,,,,,,j,1.2185,space,2.04,,,,,,,,0,12,12,14,1,,
5dd6280e238a915cda514060,2023-06-16_10h28.10.831,phx_ver10,2022.2.5,Win32,59.87665409,,,,,,,,,,,,17,testing_2,zh2x,au,zh2x_au,zh2x_1_auzhau.wav,zh2x_1_auzhau.wav,,TRUE,FALSE,,,,,,,,,,,,,,f,0.0536,space,0.4213,,,,,,,,0,13,13,16,1,,
5dd6280e238a915cda514060,2023-06-16_10h28.10.831,phx_ver10,2022.2.5,Win32,59.87665409,,,,,,,,,,,,93,testing_3,j2x,i,j2x_i,j2x_1_iji.wav,j2x_1_iji.wav,,TRUE,FALSE,,,,,,,,,,,,,,f,0.5254,space,0.8851,,,,,,,,0,14,14,92,1,,
5dd6280e238a915cda514060,2023-06-16_10h28.10.831,phx_ver10,2022.2.5,Win32,59.87665409,,,,,,,,,,,,118,testing_3,sh2x,i,sh2x_i,sh2x_8_ixi.wav,sh2x_8_ixi.wav,,TRUE,FALSE,,,,,,,,,,,,,,f,0.1699,space,0.5698,,,,,,,,0,15,15,117,1,,
5dd6280e238a915cda514060,2023-06-16_10h28.10.831,phx_ver10,2022.2.5,Win32,59.87665409,,,,,,,,,,,,116,testing_3,sh2x,ei,sh2x_ei,sh2x_8_eixei.wav,sh2x_1_eishei.wav,,FALSE,FALSE,,,,,,,,,,,,,,f,0.4028,space,0.7554,,,,,,,,0,16,16,115,1,,
5dd6280e238a915cda514060,2023-06-16_10h28.10.831,phx_ver10,2022.2.5,Win32,59.87665409,,,,,,,,,,,,18,testing_2,zh2x,au,zh2x_au,zh2x_8_auxau.wav,zh2x_8_auxau.wav,,TRUE,FALSE,,,,,,,,,,,,,,f,0.084,space,0.4695,,,,,,,,0,17,17,17,1,,
5dd6280e238a915cda514060,2023-06-16_10h28.10.831,phx_ver10,2022.2.5,Win32,59.87665409,,,,,,,,,,,,28,testing_3,zh2sh,a,zh2sh_a,zh2sh_8_asha.wav,zh2sh_1_azha.wav,,FALSE,FALSE,,,,,,,,,,,,,,f,2.228,space,2.6007,,,,,,,,0,18,18,27,1,,
5dd6280e238a915cda514060,2023-06-16_10h28.10.831,phx_ver10,2022.2.5,Win32,59.87665409,,,,,,,,,,,,119,testing_3,sh2x,i,sh2x_i,sh2x_1_ishi.wav,sh2x_8_ixi.wav,,FALSE,FALSE,,,,,,,,,,,,,,f,0.4839,space,0.8184,,,,,,,,0,19,19,118,1,,
5dd6280e238a915cda514060,2023-06-16_10h28.10.831,phx_ver10,2022.2.5,Win32,59.87665409,,,,,,,,,,,,72,testing_3,zh2j,i,zh2j_i,zh2j_8_iji.wav,zh2j_1_izhi.wav,,FALSE,FALSE,,,,,,,,,,,,,,f,1.5017,space,1.9384,,,,,,,,0,20,20,71,1,,
5dd6280e238a915cda514060,2023-06-16_10h28.10.831,phx_ver10,2022.2.5,Win32,59.87665409,,,,,,,,,,,,26,testing_3,zh2sh,a,zh2sh_a,zh2sh_8_asha.wav,zh2sh_8_asha.wav,,TRUE,FALSE,,,,,,,,,,,,,,f,1.1012,space,1.5182,,,,,,,,0,21,21,25,1,,
5dd6280e238a915cda514060,2023-06-16_10h28.10.831,phx_ver10,2022.2.5,Win32,59.87665409,,,,,,,,,,,,4,testing_1,zh2x,a,zh2x_a,zh2x_8_axa.wav,zh2x_1_azha.wav,,FALSE,TRUE,,,,,,,,,,,,,,f,1.1086,space,1.4496,,,,,,,,0,22,22,3,1,,
5dd6280e238a915cda514060,2023-06-16_10h28.10.831,phx_ver10,2022.2.5,Win32,59.87665409,,,,,,,,,,,,52,testing_3,zh2j,a,zh2j_a,zh2j_8_aja.wav,zh2j_1_azha.wav,,FALSE,FALSE,,,,,,,,,,,,,,f,0.5251,space,0.8602,,,,,,,,0,23,23,51,1,,
5dd6280e238a915cda514060,2023-06-16_10h28.10.831,phx_ver10,2022.2.5,Win32,59.87665409,,,,,,,,,,,,60,testing_3,zh2j,au,zh2j_au,zh2j_8_aujau.wav,zh2j_1_auzhau.wav,,FALSE,FALSE,,,,,,,,,,,,,,f,0.0512,space,0.9659,,,,,,,,0,24,24,59,1,,
5dd6280e238a915cda514060,2023-06-16_10h28.10.831,phx_ver10,2022.2.5,Win32,59.87665409,,,,,,,,,,,,114,testing_3,sh2x,ei,sh2x_ei,sh2x_8_eixei.wav,sh2x_8_eixei.wav,,TRUE,FALSE,,,,,,,,,,,,,,f,0.5488,space,0.9232,,,,,,,,0,25,25,113,1,,
5dd6280e238a915cda514060,2023-06-16_10h28.10.831,phx_ver10,2022.2.5,Win32,59.87665409,,,,,,,,,,,,46,testing_3,zh2sh,i,zh2sh_i,zh2sh_8_ishi.wav,zh2sh_8_ishi.wav,,TRUE,FALSE,,,,,,,,,,,,,,f,0.3582,space,0.6703,,,,,,,,0,26,26,45,1,,
5dd6280e238a915cda514060,2023-06-16_10h28.10.831,phx_ver10,2022.2.5,Win32,59.87665409,,,,,,,,,,,,136,testing_3,sh2j,e,sh2j_e,sh2j_8_eje.wav,sh2j_1_eshe.wav,,FALSE,FALSE,,,,,,,,,,,,,,f,0.0526,space,0.5033,,,,,,,,0,27,27,135,1,,
5dd6280e238a915cda514060,2023-06-16_10h28.10.831,phx_ver10,2022.2.5,Win32,59.87665409,,,,,,,,,,,,95,testing_3,j2x,i,j2x_i,j2x_1_iji.wav,j2x_8_ixi.wav,,FALSE,FALSE,,,,,,,,,,,,,,f,0.4825,space,0.8512,,,,,,,,0,28,28,94,1,,
5dd6280e238a915cda514060,2023-06-16_10h28.10.831,phx_ver10,2022.2.5,Win32,59.87665409,,,,,,,,,,,,24,testing_2,zh2x,ei,zh2x_ei,zh2x_8_eixei.wav,zh2x_1_eizhei.wav,,FALSE,FALSE,,,,,,,,,,,,,,f,0.7355,space,1.2019,,,,,,,,0,29,29,23,1,,
5dd6280e238a915cda514060,2023-06-16_10h28.10.831,phx_ver10,2022.2.5,Win32,59.87665409,,,,,,,,,,,,43,testing_3,zh2sh,ei,zh2sh_ei,zh2sh_1_eizhei.wav,zh2sh_8_eishei.wav,,FALSE,FALSE,,,,,,,,,,,,,,f,0.5586,space,0.9028,,,,,,,,0,30,30,42,1,,
5dd6280e238a915cda514060,2023-06-16_10h28.10.831,phx_ver10,2022.2.5,Win32,59.87665409,,,,,,,,,,,,38,testing_3,zh2sh,e,zh2sh_e,zh2sh_8_eshe.wav,zh2sh_8_eshe.wav,,TRUE,FALSE,,,,,,,,,,,,,,f,0.0434,space,0.4194,,,,,,,,0,31,31,37,1,,
5dd6280e238a915cda514060,2023-06-16_10h28.10.831,phx_ver10,2022.2.5,Win32,59.87665409,,,,,,,,,,,,41,testing_3,zh2sh,ei,zh2sh_ei,zh2sh_1_eizhei.wav,zh2sh_1_eizhei.wav,,TRUE,FALSE,,,,,,,,,,,,,,f,0.2518,space,0.6016,,,,,,,,0,32,32,40,1,,
5dd6280e238a915cda514060,2023-06-16_10h28.10.831,phx_ver10,2022.2.5,Win32,59.87665409,,,,,,,,,,,,10,testing_1,zh2x,i,zh2x_i,zh2x_8_ixi.wav,zh2x_8_ixi_copy.wav,,TRUE,TRUE,,,,,,,,,,,,,,f,0.6759,space,1.0516,,,,,,,,0,33,33,9,1,,
5dd6280e238a915cda514060,2023-06-16_10h28.10.831,phx_ver10,2022.2.5,Win32,59.87665409,,,,,,,,,,,,54,testing_3,zh2j,ai,zh2j_ai,zh2j_8_aijai.wav,zh2j_8_aijai.wav,,TRUE,FALSE,,,,,,,,,,,,,,f,0.1522,space,0.6008,,,,,,,,0,34,34,53,1,,
5dd6280e238a915cda514060,2023-06-16_10h28.10.831,phx_ver10,2022.2.5,Win32,59.87665409,,,,,,,,,,,,11,testing_1,zh2x,i,zh2x_i,zh2x_1_izhi.wav,zh2x_8_ixi.wav,,FALSE,TRUE,,,,,,,,,,,,,,f,0.7051,space,1.089,,,,,,,,0,35,35,10,1,,
5dd6280e238a915cda514060,2023-06-16_10h28.10.831,phx_ver10,2022.2.5,Win32,59.87665409,,,,,,,,,,,,73,testing_3,j2x,a,j2x_a,j2x_1_aja.wav,j2x_1_aja.wav,,TRUE,FALSE,,,,,,,,,,,,,,f,0.7351,space,1.0699,,,,,,,,0,36,36,72,1,,
5dd6280e238a915cda514060,2023-06-16_10h28.10.831,phx_ver10,2022.2.5,Win32,59.87665409,,,,,,,,,,,,42,testing_3,zh2sh,ei,zh2sh_ei,zh2sh_8_eishei.wav,zh2sh_8_eishei.wav,,TRUE,FALSE,,,,,,,,,,,,,,f,0.186,space,0.5573,,,,,,,,0,37,37,41,1,,
5dd6280e238a915cda514060,2023-06-16_10h28.10.831,phx_ver10,2022.2.5,Win32,59.87665409,,,,,,,,,,,,71,testing_3,zh2j,i,zh2j_i,zh2j_1_izhi.wav,zh2j_8_iji.wav,,FALSE,FALSE,,,,,,,,,,,,,,f,0.6531,space,1.0532,,,,,,,,0,38,38,70,1,,
5dd6280e238a915cda514060,2023-06-16_10h28.10.831,phx_ver10,2022.2.5,Win32,59.87665409,,,,,,,,,,,,48,testing_3,zh2sh,i,zh2sh_i,zh2sh_8_ishi.wav,zh2sh_1_izhi.wav,,FALSE,FALSE,,,,,,,,,,,,,,f,6.7951,space,7.1566,,,,,,,,0,39,39,47,1,,
5dd6280e238a915cda514060,2023-06-16_10h28.10.831,phx_ver10,2022.2.5,Win32,59.87665409,,,,,,,,,,,,12,testing_1,zh2x,i,zh2x_i,zh2x_8_ixi.wav,zh2x_1_izhi.wav,,FALSE,TRUE,,,,,,,,,,,,,,f,15.9651,space,16.5683,,,,,,,,0,40,40,11,1,,
5dd6280e238a915cda514060,2023-06-16_10h28.10.831,phx_ver10,2022.2.5,Win32,59.87665409,,,,,,,,,,,,134,testing_3,sh2j,e,sh2j_e,sh2j_8_eje.wav,sh2j_8_eje.wav,,TRUE,FALSE,,,,,,,,,,,,,,f,0.5517,space,0.9087,,,,,,,,0,41,41,133,1,,
5dd6280e238a915cda514060,2023-06-16_10h28.10.831,phx_ver10,2022.2.5,Win32,59.87665409,,,,,,,,,,,,56,testing_3,zh2j,ai,zh2j_ai,zh2j_8_aijai.wav,zh2j_1_aizhai.wav,,FALSE,FALSE,,,,,,,,,,,,,,f,0.0852,space,0.4412,,,,,,,,0,42,42,55,1,,
5dd6280e238a915cda514060,2023-06-16_10h28.10.831,phx_ver10,2022.2.5,Win32,59.87665409,,,,,,,,,,,,125,testing_3,sh2j,ai,sh2j_ai,sh2j_1_aishai.wav,sh2j_1_aishai.wav,,TRUE,FALSE,,,,,,,,,,,,,,f,0.7361,space,0.985,,,,,,,,0,43,43,124,1,,
5dd6280e238a915cda514060,2023-06-16_10h28.10.831,phx_ver10,2022.2.5,Win32,59.87665409,,,,,,,,,,,,129,testing_3,sh2j,au,sh2j_au,sh2j_1_aushau.wav,sh2j_1_aushau.wav,,TRUE,FALSE,,,,,,,,,,,,,,f,0.7855,space,1.1854,,,,,,,,0,44,44,128,1,,
5dd6280e238a915cda514060,2023-06-16_10h28.10.831,phx_ver10,2022.2.5,Win32,59.87665409,,,,,,,,,,,,50,testing_3,zh2j,a,zh2j_a,zh2j_8_aja.wav,zh2j_8_aja.wav,,TRUE,FALSE,,,,,,,,,,,,,,f,1.041,space,1.377,,,,,,,,0,45,45,49,1,,
5dd6280e238a915cda514060,2023-06-16_10h28.10.831,phx_ver10,2022.2.5,Win32,59.87665409,,,,,,,,,,,,86,testing_3,j2x,e,j2x_e,j2x_8_exe.wav,j2x_8_exe.wav,,TRUE,FALSE,,,,,,,,,,,,,,f,0.5866,space,1.0423,,,,,,,,0,46,46,85,1,,
5dd6280e238a915cda514060,2023-06-16_10h28.10.831,phx_ver10,2022.2.5,Win32,59.87665409,,,,,,,,,,,,70,testing_3,zh2j,i,zh2j_i,zh2j_8_iji.wav,zh2j_8_iji.wav,,TRUE,FALSE,,,,,,,,,,,,,,f,0.0409,space,0.4419,,,,,,,,0,47,47,69,1,,
5dd6280e238a915cda514060,2023-06-16_10h28.10.831,phx_ver10,2022.2.5,Win32,59.87665409,,,,,,,,,,,,103,testing_3,sh2x,ai,sh2x_ai,sh2x_1_aishai.wav,sh2x_8_aixai.wav,,FALSE,FALSE,,,,,,,,,,,,,,f,0.7912,space,1.1351,,,,,,,,0,48,48,102,1,,
5dd6280e238a915cda514060,2023-06-16_10h28.10.831,phx_ver10,2022.2.5,Win32,59.87665409,,,,,,,,,,,,132,testing_3,sh2j,au,sh2j_au,sh2j_8_aujau.wav,sh2j_1_aushau.wav,,FALSE,FALSE,,,,,,,,,,,,,,j,0.3707,space,0.6685,,,,,,,,0,49,49,131,1,,
5dd6280e238a915cda514060,2023-06-16_10h28.10.831,phx_ver10,2022.2.5,Win32,59.87665409,,,,,,,,,,,,90,testing_3,j2x,ei,j2x_ei,j2x_8_eixei.wav,j2x_8_eixei.wav,,TRUE,FALSE,,,,,,,,,,,,,,f,1.8883,space,2.0889,,,,,,,,0,50,50,89,1,,
5dd6280e238a915cda514060,2023-06-16_10h28.10.831,phx_ver10,2022.2.5,Win32,59.87665409,,,,,,,,,,,,112,testing_3,sh2x,e,sh2x_e,sh2x_8_exe.wav,sh2x_1_eshe.wav,,FALSE,FALSE,,,,,,,,,,,,,,f,1.386,space,1.6909,,,,,,,,0,51,51,111,1,,
5dd6280e238a915cda514060,2023-06-16_10h28.10.831,phx_ver10,2022.2.5,Win32,59.87665409,,,,,,,,,,,,96,testing_3,j2x,i,j2x_i,j2x_8_ixi.wav,j2x_1_iji.wav,,FALSE,FALSE,,,,,,,,,,,,,,j,0.6234,space,0.9592,,,,,,,,0,52,52,95,1,,
5dd6280e238a915cda514060,2023-06-16_10h28.10.831,phx_ver10,2022.2.5,Win32,59.87665409,,,,,,,,,,,,62,testing_3,zh2j,e,zh2j_e,zh2j_8_eje.wav,zh2j_8_eje.wav,,TRUE,FALSE,,,,,,,,,,,,,,f,0.518,space,0.8701,,,,,,,,0,53,53,61,1,,
5dd6280e238a915cda514060,2023-06-16_10h28.10.831,phx_ver10,2022.2.5,Win32,59.87665409,,,,,,,,,,,,13,testing_2,zh2x,ai,zh2x_ai,zh2x_1_aizhai.wav,zh2x_1_aizhai.wav,,TRUE,FALSE,,,,,,,,,,,,,,f,1.6067,space,1.9107,,,,,,,,0,54,54,12,1,,
5dd6280e238a915cda514060,2023-06-16_10h28.10.831,phx_ver10,2022.2.5,Win32,59.87665409,,,,,,,,,,,,75,testing_3,j2x,a,j2x_a,j2x_1_aja.wav,j2x_8_axa.wav,,FALSE,FALSE,,,,,,,,,,,,,,j,0.4026,space,0.6572,,,,,,,,0,55,55,74,1,,
5dd6280e238a915cda514060,2023-06-16_10h28.10.831,phx_ver10,2022.2.5,Win32,59.87665409,,,,,,,,,,,,82,testing_3,j2x,au,j2x_au,j2x_8_auxau.wav,j2x_8_auxau.wav,,TRUE,FALSE,,,,,,,,,,,,,,f,0.7683,space,1.128,,,,,,,,0,56,56,81,1,,
5dd6280e238a915cda514060,2023-06-16_10h28.10.831,phx_ver10,2022.2.5,Win32,59.87665409,,,,,,,,,,,,127,testing_3,sh2j,ai,sh2j_ai,sh2j_1_aishai.wav,sh2j_8_aijai.wav,,FALSE,FALSE,,,,,,,,,,,,,,j,0.3231,space,0.6688,,,,,,,,0,57,57,126,1,,
5dd6280e238a915cda514060,2023-06-16_10h28.10.831,phx_ver10,2022.2.5,Win32,59.87665409,,,,,,,,,,,,80,testing_3,j2x,ai,j2x_ai,j2x_8_aixai.wav,j2x_1_aijai.wav,,FALSE,FALSE,,,,,,,,,,,,,,f,2.2174,space,2.5604,,,,,,,,0,58,58,79,1,,
5dd6280e238a915cda514060,2023-06-16_10h28.10.831,phx_ver10,2022.2.5,Win32,59.87665409,,,,,,,,,,,,44,testing_3,zh2sh,ei,zh2sh_ei,zh2sh_8_eishei.wav,zh2sh_1_eizhei.wav,,FALSE,FALSE,,,,,,,,,,,,,,f,0.5159,space,0.9207,,,,,,,,0,59,59,43,1,,
5dd6280e238a915cda514060,2023-06-16_10h28.10.831,phx_ver10,2022.2.5,Win32,59.87665409,,,,,,,,,,,,47,testing_3,zh2sh,i,zh2sh_i,zh2sh_1_izhi.wav,zh2sh_8_ishi.wav,,FALSE,FALSE,,,,,,,,,,,,,,f,0.6849,space,1.8363,,,,,,,,0,60,60,46,1,,
5dd6280e238a915cda514060,2023-06-16_10h28.10.831,phx_ver10,2022.2.5,Win32,59.87665409,,,,,,,,,,,,21,testing_2,zh2x,ei,zh2x_ei,zh2x_1_eizhei.wav,zh2x_1_eizhei.wav,,TRUE,FALSE,,,,,,,,,,,,,,f,0.1867,space,0.5062,,,,,,,,0,61,61,20,1,,
5dd6280e238a915cda514060,2023-06-16_10h28.10.831,phx_ver10,2022.2.5,Win32,59.87665409,,,,,,,,,,,,124,testing_3,sh2j,a,sh2j_a,sh2j_8_aja.wav,sh2j_1_asha.wav,,FALSE,FALSE,,,,,,,,,,,,,,f,0.5682,space,0.9108,,,,,,,,0,62,62,123,1,,
5dd6280e238a915cda514060,2023-06-16_10h28.10.831,phx_ver10,2022.2.5,Win32,59.87665409,,,,,,,,,,,,68,testing_3,zh2j,ei,zh2j_ei,zh2j_8_eijei.wav,zh2j_1_eizhei.wav,,FALSE,FALSE,,,,,,,,,,,,,,f,0.5545,space,0.8263,,,,,,,,0,63,63,67,1,,
5dd6280e238a915cda514060,2023-06-16_10h28.10.831,phx_ver10,2022.2.5,Win32,59.87665409,,,,,,,,,,,,83,testing_3,j2x,au,j2x_au,j2x_1_aujau.wav,j2x_8_auxau.wav,,FALSE,FALSE,,,,,,,,,,,,,,f,0.9681,space,1.2848,,,,,,,,0,64,64,82,1,,
5dd6280e238a915cda514060,2023-06-16_10h28.10.831,phx_ver10,2022.2.5,Win32,59.87665409,,,,,,,,,,,,126,testing_3,sh2j,ai,sh2j_ai,sh2j_8_aijai.wav,sh2j_8_aijai.wav,,TRUE,FALSE,,,,,,,,,,,,,,f,0.285,space,0.6548,,,,,,,,0,65,65,125,1,,
5dd6280e238a915cda514060,2023-06-16_10h28.10.831,phx_ver10,2022.2.5,Win32,59.87665409,,,,,,,,,,,,5,testing_1,zh2x,e,zh2x_e,zh2x_1_ezhe.wav,zh2x_1_ezhe_copy.wav,,TRUE,TRUE,,,,,,,,,,,,,,f,0.5724,space,0.9353,,,,,,,,0,66,66,4,1,,
5dd6280e238a915cda514060,2023-06-16_10h28.10.831,phx_ver10,2022.2.5,Win32,59.87665409,,,,,,,,,,,,98,testing_3,sh2x,a,sh2x_a,sh2x_8_axa.wav,sh2x_8_axa.wav,,TRUE,FALSE,,,,,,,,,,,,,,f,0.5178,space,0.9425,,,,,,,,0,67,67,97,1,,
5dd6280e238a915cda514060,2023-06-16_10h28.10.831,phx_ver10,2022.2.5,Win32,59.87665409,,,,,,,,,,,,9,testing_1,zh2x,i,zh2x_i,zh2x_1_izhi.wav,zh2x_1_izhi_copy.wav,,TRUE,TRUE,,,,,,,,,,,,,,f,0.7694,space,1.1544,,,,,,,,0,68,68,8,1,,
5dd6280e238a915cda514060,2023-06-16_10h28.10.831,phx_ver10,2022.2.5,Win32,59.87665409,,,,,,,,,,,,16,testing_2,zh2x,ai,zh2x_ai,zh2x_8_aixai.wav,zh2x_1_aizhai.wav,,FALSE,FALSE,,,,,,,,,,,,,,j,0.5174,space,0.8913,,,,,,,,0,69,69,15,1,,
5dd6280e238a915cda514060,2023-06-16_10h28.10.831,phx_ver10,2022.2.5,Win32,59.87665409,,,,,,,,,,,,81,testing_3,j2x,au,j2x_au,j2x_1_aujau.wav,j2x_1_aujau.wav,,TRUE,FALSE,,,,,,,,,,,,,,f,0.0679,space,0.4012,,,,,,,,0,70,70,80,1,,
5dd6280e238a915cda514060,2023-06-16_10h28.10.831,phx_ver10,2022.2.5,Win32,59.87665409,,,,,,,,,,,,31,testing_3,zh2sh,ai,zh2sh_ai,zh2sh_1_aizhai.wav,zh2sh_8_aishai.wav,,FALSE,FALSE,,,,,,,,,,,,,,j,0.7163,space,1.0414,,,,,,,,0,71,71,30,1,,
5dd6280e238a915cda514060,2023-06-16_10h28.10.831,phx_ver10,2022.2.5,Win32,59.87665409,,,,,,,,,,,,121,testing_3,sh2j,a,sh2j_a,sh2j_1_asha.wav,sh2j_1_asha.wav,,TRUE,FALSE,,,,,,,,,,,,,,f,0.1671,space,0.591,,,,,,,,0,72,72,120,1,,
5dd6280e238a915cda514060,2023-06-16_10h28.10.831,phx_ver10,2022.2.5,Win32,59.87665409,,,,,,,,,,,,97,testing_3,sh2x,a,sh2x_a,sh2x_1_asha.wav,sh2x_1_asha.wav,,TRUE,FALSE,,,,,,,,,,,,,,f,0.6528,space,1.0297,,,,,,,,0,73,73,96,1,,
5dd6280e238a915cda514060,2023-06-16_10h28.10.831,phx_ver10,2022.2.5,Win32,59.87665409,,,,,,,,,,,,40,testing_3,zh2sh,e,zh2sh_e,zh2sh_8_eshe.wav,zh2sh_1_ezhe.wav,,FALSE,FALSE,,,,,,,,,,,,,,f,0.335,space,0.6871,,,,,,,,0,74,74,39,1,,
5dd6280e238a915cda514060,2023-06-16_10h28.10.831,phx_ver10,2022.2.5,Win32,59.87665409,,,,,,,,,,,,3,testing_1,zh2x,a,zh2x_a,zh2x_1_azha.wav,zh2x_8_axa.wav,,FALSE,TRUE,,,,,,,,,,,,,,f,0.3404,space,0.8202,,,,,,,,0,75,75,2,1,,
5dd6280e238a915cda514060,2023-06-16_10h28.10.831,phx_ver10,2022.2.5,Win32,59.87665409,,,,,,,,,,,,7,testing_1,zh2x,e,zh2x_e,zh2x_1_ezhe.wav,zh2x_8_exe.wav,,FALSE,TRUE,,,,,,,,,,,,,,f,0.3994,space,0.7237,,,,,,,,0,76,76,6,1,,
5dd6280e238a915cda514060,2023-06-16_10h28.10.831,phx_ver10,2022.2.5,Win32,59.87665409,,,,,,,,,,,,89,testing_3,j2x,ei,j2x_ei,j2x_1_eijei.wav,j2x_1_eijei.wav,,TRUE,FALSE,,,,,,,,,,,,,,f,0.2397,space,0.5918,,,,,,,,0,77,77,88,1,,
5dd6280e238a915cda514060,2023-06-16_10h28.10.831,phx_ver10,2022.2.5,Win32,59.87665409,,,,,,,,,,,,135,testing_3,sh2j,e,sh2j_e,sh2j_1_eshe.wav,sh2j_8_eje.wav,,FALSE,FALSE,,,,,,,,,,,,,,f,0.3358,space,0.7037,,,,,,,,0,78,78,134,1,,
5dd6280e238a915cda514060,2023-06-16_10h28.10.831,phx_ver10,2022.2.5,Win32,59.87665409,,,,,,,,,,,,35,testing_3,zh2sh,au,zh2sh_au,zh2sh_1_auzhau.wav,zh2sh_8_aushau.wav,,FALSE,FALSE,,,,,,,,,,,,,,f,0.0363,space,0.5562,,,,,,,,0,79,79,34,1,,
5dd6280e238a915cda514060,2023-06-16_10h28.10.831,phx_ver10,2022.2.5,Win32,59.87665409,,,,,,,,,,,,144,testing_3,sh2j,i,sh2j_i,sh2j_8_iji.wav,sh2j_1_ishi.wav,,FALSE,FALSE,,,,,,,,,,,,,,j,0.5352,space,1.4231,,,,,,,,0,80,80,143,1,,
5dd6280e238a915cda514060,2023-06-16_10h28.10.831,phx_ver10,2022.2.5,Win32,59.87665409,,,,,,,,,,,,140,testing_3,sh2j,ei,sh2j_ei,sh2j_8_eijei.wav,sh2j_1_eishei.wav,,FALSE,FALSE,,,,,,,,,,,,,,f,0.0696,space,0.6216,,,,,,,,0,81,81,139,1,,
5dd6280e238a915cda514060,2023-06-16_10h28.10.831,phx_ver10,2022.2.5,Win32,59.87665409,,,,,,,,,,,,115,testing_3,sh2x,ei,sh2x_ei,sh2x_1_eishei.wav,sh2x_8_eixei.wav,,FALSE,FALSE,,,,,,,,,,,,,,f,0.2932,space,0.6931,,,,,,,,0,82,82,114,1,,
5dd6280e238a915cda514060,2023-06-16_10h28.10.831,phx_ver10,2022.2.5,Win32,59.87665409,,,,,,,,,,,,94,testing_3,j2x,i,j2x_i,j2x_8_ixi.wav,j2x_8_ixi.wav,,TRUE,FALSE,,,,,,,,,,,,,,f,2.4033,space,2.8208,,,,,,,,0,83,83,93,1,,
5dd6280e238a915cda514060,2023-06-16_10h28.10.831,phx_ver10,2022.2.5,Win32,59.87665409,,,,,,,,,,,,123,testing_3,sh2j,a,sh2j_a,sh2j_1_asha.wav,sh2j_8_aja.wav,,FALSE,FALSE,,,,,,,,,,,,,,j,1.4387,space,2.2831,,,,,,,,0,84,84,122,1,,
5dd6280e238a915cda514060,2023-06-16_10h28.10.831,phx_ver10,2022.2.5,Win32,59.87665409,,,,,,,,,,,,139,testing_3,sh2j,ei,sh2j_ei,sh2j_1_eishei.wav,sh2j_8_eijei.wav,,FALSE,FALSE,,,,,,,,,,,,,,f,0.4753,space,0.8031,,,,,,,,0,85,85,138,1,,
5dd6280e238a915cda514060,2023-06-16_10h28.10.831,phx_ver10,2022.2.5,Win32,59.87665409,,,,,,,,,,,,91,testing_3,j2x,ei,j2x_ei,j2x_1_eijei.wav,j2x_8_eixei.wav,,FALSE,FALSE,,,,,,,,,,,,,,j,0.0354,space,0.4016,,,,,,,,0,86,86,90,1,,
5dd6280e238a915cda514060,2023-06-16_10h28.10.831,phx_ver10,2022.2.5,Win32,59.87665409,,,,,,,,,,,,2,testing_1,zh2x,a,zh2x_a,zh2x_8_axa.wav,zh2x_8_axa_copy.wav,,TRUE,TRUE,,,,,,,,,,,,,,f,0.2202,space,0.5686,,,,,,,,0,87,87,1,1,,
5dd6280e238a915cda514060,2023-06-16_10h28.10.831,phx_ver10,2022.2.5,Win32,59.87665409,,,,,,,,,,,,34,testing_3,zh2sh,au,zh2sh_au,zh2sh_8_aushau.wav,zh2sh_8_aushau.wav,,TRUE,FALSE,,,,,,,,,,,,,,f,0.4848,space,0.8378,,,,,,,,0,88,88,33,1,,
5dd6280e238a915cda514060,2023-06-16_10h28.10.831,phx_ver10,2022.2.5,Win32,59.87665409,,,,,,,,,,,,39,testing_3,zh2sh,e,zh2sh_e,zh2sh_1_ezhe.wav,zh2sh_8_eshe.wav,,FALSE,FALSE,,,,,,,,,,,,,,f,0.5678,space,0.9723,,,,,,,,0,89,89,38,1,,
5dd6280e238a915cda514060,2023-06-16_10h28.10.831,phx_ver10,2022.2.5,Win32,59.87665409,,,,,,,,,,,,117,testing_3,sh2x,i,sh2x_i,sh2x_1_ishi.wav,sh2x_1_ishi.wav,,TRUE,FALSE,,,,,,,,,,,,,,f,0.3684,space,0.7343,,,,,,,,0,90,90,116,1,,
5dd6280e238a915cda514060,2023-06-16_10h28.10.831,phx_ver10,2022.2.5,Win32,59.87665409,,,,,,,,,,,,88,testing_3,j2x,e,j2x_e,j2x_8_exe.wav,j2x_1_eje.wav,,FALSE,FALSE,,,,,,,,,,,,,,f,0.1929,space,0.6248,,,,,,,,0,91,91,87,1,,
5dd6280e238a915cda514060,2023-06-16_10h28.10.831,phx_ver10,2022.2.5,Win32,59.87665409,,,,,,,,,,,,102,testing_3,sh2x,ai,sh2x_ai,sh2x_8_aixai.wav,sh2x_8_aixai.wav,,TRUE,FALSE,,,,,,,,,,,,,,f,1.0084,space,1.4721,,,,,,,,0,92,92,101,1,,
5dd6280e238a915cda514060,2023-06-16_10h28.10.831,phx_ver10,2022.2.5,Win32,59.87665409,,,,,,,,,,,,57,testing_3,zh2j,au,zh2j_au,zh2j_1_auzhau.wav,zh2j_1_auzhau.wav,,TRUE,FALSE,,,,,,,,,,,,,,f,1.3565,space,1.7565,,,,,,,,0,93,93,56,1,,
5dd6280e238a915cda514060,2023-06-16_10h28.10.831,phx_ver10,2022.2.5,Win32,59.87665409,,,,,,,,,,,,109,testing_3,sh2x,e,sh2x_e,sh2x_1_eshe.wav,sh2x_1_eshe.wav,,TRUE,FALSE,,,,,,,,,,,,,,f,0.0866,space,0.5599,,,,,,,,0,94,94,108,1,,
5dd6280e238a915cda514060,2023-06-16_10h28.10.831,phx_ver10,2022.2.5,Win32,59.87665409,,,,,,,,,,,,79,testing_3,j2x,ai,j2x_ai,j2x_1_aijai.wav,j2x_8_aixai.wav,,FALSE,FALSE,,,,,,,,,,,,,,j,0.569,space,0.969,,,,,,,,0,95,95,78,1,,
5dd6280e238a915cda514060,2023-06-16_10h28.10.831,phx_ver10,2022.2.5,Win32,59.87665409,,,,,,,,,,,,32,testing_3,zh2sh,ai,zh2sh_ai,zh2sh_8_aishai.wav,zh2sh_1_aizhai.wav,,FALSE,FALSE,,,,,,,,,,,,,,f,5.09,space,5.4739,,,,,,,,0,96,96,31,1,,
5dd6280e238a915cda514060,2023-06-16_10h28.10.831,phx_ver10,2022.2.5,Win32,59.87665409,,,,,,,,,,,,36,testing_3,zh2sh,au,zh2sh_au,zh2sh_8_aushau.wav,zh2sh_1_auzhau.wav,,FALSE,FALSE,,,,,,,,,,,,,,j,1.3071,space,1.6109,,,,,,,,0,97,97,35,1,,
5dd6280e238a915cda514060,2023-06-16_10h28.10.831,phx_ver10,2022.2.5,Win32,59.87665409,,,,,,,,,,,,128,testing_3,sh2j,ai,sh2j_ai,sh2j_8_aijai.wav,sh2j_1_aishai.wav,,FALSE,FALSE,,,,,,,,,,,,,,j,0.0265,space,0.5705,,,,,,,,0,98,98,127,1,,
5dd6280e238a915cda514060,2023-06-16_10h28.10.831,phx_ver10,2022.2.5,Win32,59.87665409,,,,,,,,,,,,45,testing_3,zh2sh,i,zh2sh_i,zh2sh_1_izhi.wav,zh2sh_1_izhi.wav,,TRUE,FALSE,,,,,,,,,,,,,,f,0.1177,space,0.4848,,,,,,,,0,99,99,44,1,,
5dd6280e238a915cda514060,2023-06-16_10h28.10.831,phx_ver10,2022.2.5,Win32,59.87665409,,,,,,,,,,,,25,testing_3,zh2sh,a,zh2sh_a,zh2sh_1_azha.wav,zh2sh_1_azha.wav,,TRUE,FALSE,,,,,,,,,,,,,,f,3.2055,space,3.5636,,,,,,,,0,100,100,24,1,,
5dd6280e238a915cda514060,2023-06-16_10h28.10.831,phx_ver10,2022.2.5,Win32,59.87665409,,,,,,,,,,,,105,testing_3,sh2x,au,sh2x_au,sh2x_1_aushau.wav,sh2x_1_aushau.wav,,TRUE,FALSE,,,,,,,,,,,,,,f,0.051,space,0.4342,,,,,,,,0,101,101,104,1,,
5dd6280e238a915cda514060,2023-06-16_10h28.10.831,phx_ver10,2022.2.5,Win32,59.87665409,,,,,,,,,,,,1,testing_1,zh2x,a,zh2x_a,zh2x_1_azha.wav,zh2x_1_azha_copy.wav,,TRUE,TRUE,,,,,,,,,,,,,,f,0.1848,space,0.4722,,,,,,,,0,102,102,0,1,,
5dd6280e238a915cda514060,2023-06-16_10h28.10.831,phx_ver10,2022.2.5,Win32,59.87665409,,,,,,,,,,,,23,testing_2,zh2x,ei,zh2x_ei,zh2x_1_eizhei.wav,zh2x_8_eixei.wav,,FALSE,FALSE,,,,,,,,,,,,,,j,0.8702,space,1.2345,,,,,,,,0,103,103,22,1,,
5dd6280e238a915cda514060,2023-06-16_10h28.10.831,phx_ver10,2022.2.5,Win32,59.87665409,,,,,,,,,,,,8,testing_1,zh2x,e,zh2x_e,zh2x_8_exe.wav,zh2x_1_ezhe.wav,,FALSE,TRUE,,,,,,,,,,,,,,f,0.1554,space,0.5875,,,,,,,,0,104,104,7,1,,
5dd6280e238a915cda514060,2023-06-16_10h28.10.831,phx_ver10,2022.2.5,Win32,59.87665409,,,,,,,,,,,,51,testing_3,zh2j,a,zh2j_a,zh2j_1_azha.wav,zh2j_8_aja.wav,,FALSE,FALSE,,,,,,,,,,,,,,f,0.1506,space,1.0681,,,,,,,,0,105,105,50,1,,
5dd6280e238a915cda514060,2023-06-16_10h28.10.831,phx_ver10,2022.2.5,Win32,59.87665409,,,,,,,,,,,,130,testing_3,sh2j,au,sh2j_au,sh2j_8_aujau.wav,sh2j_8_aujau.wav,,TRUE,FALSE,,,,,,,,,,,,,,f,0.0754,space,0.5678,,,,,,,,0,106,106,129,1,,
5dd6280e238a915cda514060,2023-06-16_10h28.10.831,phx_ver10,2022.2.5,Win32,59.87665409,,,,,,,,,,,,99,testing_3,sh2x,a,sh2x_a,sh2x_1_asha.wav,sh2x_8_axa.wav,,FALSE,FALSE,,,,,,,,,,,,,,f,0.1527,space,0.6513,,,,,,,,0,107,107,98,1,,
5dd6280e238a915cda514060,2023-06-16_10h28.10.831,phx_ver10,2022.2.5,Win32,59.87665409,,,,,,,,,,,,69,testing_3,zh2j,i,zh2j_i,zh2j_1_izhi.wav,zh2j_1_izhi.wav,,TRUE,FALSE,,,,,,,,,,,,,,f,0.2584,space,0.7014,,,,,,,,0,108,108,68,1,,
5dd6280e238a915cda514060,2023-06-16_10h28.10.831,phx_ver10,2022.2.5,Win32,59.87665409,,,,,,,,,,,,141,testing_3,sh2j,i,sh2j_i,sh2j_1_ishi.wav,sh2j_1_ishi.wav,,TRUE,FALSE,,,,,,,,,,,,,,f,0.3685,space,0.936,,,,,,,,0,109,109,140,1,,
5dd6280e238a915cda514060,2023-06-16_10h28.10.831,phx_ver10,2022.2.5,Win32,59.87665409,,,,,,,,,,,,66,testing_3,zh2j,ei,zh2j_ei,zh2j_8_eijei.wav,zh2j_8_eijei.wav,,TRUE,FALSE,,,,,,,,,,,,,,f,0.1989,space,0.7541,,,,,,,,0,110,110,65,1,,
5dd6280e238a915cda514060,2023-06-16_10h28.10.831,phx_ver10,2022.2.5,Win32,59.87665409,,,,,,,,,,,,37,testing_3,zh2sh,e,zh2sh_e,zh2sh_1_ezhe.wav,zh2sh_1_ezhe.wav,,TRUE,FALSE,,,,,,,,,,,,,,f,0.0911,space,0.5392,,,,,,,,0,111,111,36,1,,
5dd6280e238a915cda514060,2023-06-16_10h28.10.831,phx_ver10,2022.2.5,Win32,59.87665409,,,,,,,,,,,,27,testing_3,zh2sh,a,zh2sh_a,zh2sh_1_azha.wav,zh2sh_8_asha.wav,,FALSE,FALSE,,,,,,,,,,,,,,f,0.7509,space,1.4063,,,,,,,,0,112,112,26,1,,
5dd6280e238a915cda514060,2023-06-16_10h28.10.831,phx_ver10,2022.2.5,Win32,59.87665409,,,,,,,,,,,,108,testing_3,sh2x,au,sh2x_au,sh2x_8_auxau.wav,sh2x_1_aushau.wav,,FALSE,FALSE,,,,,,,,,,,,,,f,0.2676,space,0.7264,,,,,,,,0,113,113,107,1,,
5dd6280e238a915cda514060,2023-06-16_10h28.10.831,phx_ver10,2022.2.5,Win32,59.87665409,,,,,,,,,,,,22,testing_2,zh2x,ei,zh2x_ei,zh2x_8_eixei.wav,zh2x_8_eixei.wav,,TRUE,FALSE,,,,,,,,,,,,,,f,0.2673,space,0.6023,,,,,,,,0,114,114,21,1,,
5dd6280e238a915cda514060,2023-06-16_10h28.10.831,phx_ver10,2022.2.5,Win32,59.87665409,,,,,,,,,,,,76,testing_3,j2x,a,j2x_a,j2x_8_axa.wav,j2x_1_aja.wav,,FALSE,FALSE,,,,,,,,,,,,,,f,0.251,space,0.6103,,,,,,,,0,115,115,75,1,,
5dd6280e238a915cda514060,2023-06-16_10h28.10.831,phx_ver10,2022.2.5,Win32,59.87665409,,,,,,,,,,,,143,testing_3,sh2j,i,sh2j_i,sh2j_1_ishi.wav,sh2j_8_iji.wav,,FALSE,FALSE,,,,,,,,,,,,,,f,0.9182,space,1.3549,,,,,,,,0,116,116,142,1,,
5dd6280e238a915cda514060,2023-06-16_10h28.10.831,phx_ver10,2022.2.5,Win32,59.87665409,,,,,,,,,,,,77,testing_3,j2x,ai,j2x_ai,j2x_1_aijai.wav,j2x_1_aijai.wav,,TRUE,FALSE,,,,,,,,,,,,,,f,0.0677,space,0.5079,,,,,,,,0,117,117,76,1,,
5dd6280e238a915cda514060,2023-06-16_10h28.10.831,phx_ver10,2022.2.5,Win32,59.87665409,,,,,,,,,,,,30,testing_3,zh2sh,ai,zh2sh_ai,zh2sh_8_aishai.wav,zh2sh_8_aishai.wav,,TRUE,FALSE,,,,,,,,,,,,,,f,0.4722,space,0.817,,,,,,,,0,118,118,29,1,,
5dd6280e238a915cda514060,2023-06-16_10h28.10.831,phx_ver10,2022.2.5,Win32,59.87665409,,,,,,,,,,,,59,testing_3,zh2j,au,zh2j_au,zh2j_1_auzhau.wav,zh2j_8_aujau.wav,,FALSE,FALSE,,,,,,,,,,,,,,f,0.3937,space,0.736,,,,,,,,0,119,119,58,1,,
5dd6280e238a915cda514060,2023-06-16_10h28.10.831,phx_ver10,2022.2.5,Win32,59.87665409,,,,,,,,,,,,106,testing_3,sh2x,au,sh2x_au,sh2x_8_auxau.wav,sh2x_8_auxau.wav,,TRUE,FALSE,,,,,,,,,,,,,,f,0.2348,space,0.5707,,,,,,,,0,120,120,105,1,,
5dd6280e238a915cda514060,2023-06-16_10h28.10.831,phx_ver10,2022.2.5,Win32,59.87665409,,,,,,,,,,,,92,testing_3,j2x,ei,j2x_ei,j2x_8_eixei.wav,j2x_1_eijei.wav,,FALSE,FALSE,,,,,,,,,,,,,,f,0.4363,space,0.7674,,,,,,,,0,121,121,91,1,,
5dd6280e238a915cda514060,2023-06-16_10h28.10.831,phx_ver10,2022.2.5,Win32,59.87665409,,,,,,,,,,,,137,testing_3,sh2j,ei,sh2j_ei,sh2j_1_eishei.wav,sh2j_1_eishei.wav,,TRUE,FALSE,,,,,,,,,,,,,,f,0.326,space,0.702,,,,,,,,0,122,122,136,1,,
5dd6280e238a915cda514060,2023-06-16_10h28.10.831,phx_ver10,2022.2.5,Win32,59.87665409,,,,,,,,,,,,55,testing_3,zh2j,ai,zh2j_ai,zh2j_1_aizhai.wav,zh2j_8_aijai.wav,,FALSE,FALSE,,,,,,,,,,,,,,f,0.1011,space,0.5386,,,,,,,,0,123,123,54,1,,
5dd6280e238a915cda514060,2023-06-16_10h28.10.831,phx_ver10,2022.2.5,Win32,59.87665409,,,,,,,,,,,,122,testing_3,sh2j,a,sh2j_a,sh2j_8_aja.wav,sh2j_8_aja.wav,,TRUE,FALSE,,,,,,,,,,,,,,f,0.1846,space,0.5682,,,,,,,,0,124,124,121,1,,
5dd6280e238a915cda514060,2023-06-16_10h28.10.831,phx_ver10,2022.2.5,Win32,59.87665409,,,,,,,,,,,,74,testing_3,j2x,a,j2x_a,j2x_8_axa.wav,j2x_8_axa.wav,,TRUE,FALSE,,,,,,,,,,,,,,f,0.0005,space,0.601,,,,,,,,0,125,125,73,1,,
5dd6280e238a915cda514060,2023-06-16_10h28.10.831,phx_ver10,2022.2.5,Win32,59.87665409,,,,,,,,,,,,84,testing_3,j2x,au,j2x_au,j2x_8_auxau.wav,j2x_1_aujau.wav,,FALSE,FALSE,,,,,,,,,,,,,,j,0.7006,space,1.1036,,,,,,,,0,126,126,83,1,,
5dd6280e238a915cda514060,2023-06-16_10h28.10.831,phx_ver10,2022.2.5,Win32,59.87665409,,,,,,,,,,,,138,testing_3,sh2j,ei,sh2j_ei,sh2j_8_eijei.wav,sh2j_8_eijei.wav,,TRUE,FALSE,,,,,,,,,,,,,,f,0.1339,space,0.4683,,,,,,,,0,127,127,137,1,,
5dd6280e238a915cda514060,2023-06-16_10h28.10.831,phx_ver10,2022.2.5,Win32,59.87665409,,,,,,,,,,,,64,testing_3,zh2j,e,zh2j_e,zh2j_8_eje.wav,zh2j_1_ezhe.wav,,FALSE,FALSE,,,,,,,,,,,,,,f,0.8349,space,1.1687,,,,,,,,0,128,128,63,1,,
5dd6280e238a915cda514060,2023-06-16_10h28.10.831,phx_ver10,2022.2.5,Win32,59.87665409,,,,,,,,,,,,101,testing_3,sh2x,ai,sh2x_ai,sh2x_1_aishai.wav,sh2x_1_aishai.wav,,TRUE,FALSE,,,,,,,,,,,,,,f,0.4577,space,0.786,,,,,,,,0,129,129,100,1,,
5dd6280e238a915cda514060,2023-06-16_10h28.10.831,phx_ver10,2022.2.5,Win32,59.87665409,,,,,,,,,,,,87,testing_3,j2x,e,j2x_e,j2x_1_eje.wav,j2x_8_exe.wav,,FALSE,FALSE,,,,,,,,,,,,,,j,0.4364,space,0.9092,,,,,,,,0,130,130,86,1,,
5dd6280e238a915cda514060,2023-06-16_10h28.10.831,phx_ver10,2022.2.5,Win32,59.87665409,,,,,,,,,,,,110,testing_3,sh2x,e,sh2x_e,sh2x_8_exe.wav,sh2x_8_exe.wav,,TRUE,FALSE,,,,,,,,,,,,,,f,0.9757,space,1.744,,,,,,,,0,131,131,109,1,,
5dd6280e238a915cda514060,2023-06-16_10h28.10.831,phx_ver10,2022.2.5,Win32,59.87665409,,,,,,,,,,,,14,testing_2,zh2x,ai,zh2x_ai,zh2x_8_aixai.wav,zh2x_8_aixai.wav,,TRUE,FALSE,,,,,,,,,,,,,,f,3.3368,space,3.9456,,,,,,,,0,132,132,13,1,,
5dd6280e238a915cda514060,2023-06-16_10h28.10.831,phx_ver10,2022.2.5,Win32,59.87665409,,,,,,,,,,,,6,testing_1,zh2x,e,zh2x_e,zh2x_8_exe.wav,zh2x_8_exe_copy.wav,,TRUE,TRUE,,,,,,,,,,,,,,f,21.8668,space,22.3378,,,,,,,,0,133,133,5,1,,
5dd6280e238a915cda514060,2023-06-16_10h28.10.831,phx_ver10,2022.2.5,Win32,59.87665409,,,,,,,,,,,,113,testing_3,sh2x,ei,sh2x_ei,sh2x_1_eishei.wav,sh2x_1_eishei.wav,,TRUE,FALSE,,,,,,,,,,,,,,f,0.0173,space,0.0433,,,,,,,,0,134,134,112,1,,
5dd6280e238a915cda514060,2023-06-16_10h28.10.831,phx_ver10,2022.2.5,Win32,59.87665409,,,,,,,,,,,,120,testing_3,sh2x,i,sh2x_i,sh2x_8_ixi.wav,sh2x_1_ishi.wav,,FALSE,FALSE,,,,,,,,,,,,,,f,1.1011,space,1.4586,,,,,,,,0,135,135,119,1,,
5dd6280e238a915cda514060,2023-06-16_10h28.10.831,phx_ver10,2022.2.5,Win32,59.87665409,,,,,,,,,,,,100,testing_3,sh2x,a,sh2x_a,sh2x_8_axa.wav,sh2x_1_asha.wav,,FALSE,FALSE,,,,,,,,,,,,,,f,0.0173,space,0.7362,,,,,,,,0,136,136,99,1,,
5dd6280e238a915cda514060,2023-06-16_10h28.10.831,phx_ver10,2022.2.5,Win32,59.87665409,,,,,,,,,,,,67,testing_3,zh2j,ei,zh2j_ei,zh2j_1_eizhei.wav,zh2j_8_eijei.wav,,FALSE,FALSE,,,,,,,,,,,,,,f,0.8018,space,1.1518,,,,,,,,0,137,137,66,1,,
5dd6280e238a915cda514060,2023-06-16_10h28.10.831,phx_ver10,2022.2.5,Win32,59.87665409,,,,,,,,,,,,29,testing_3,zh2sh,ai,zh2sh_ai,zh2sh_1_aizhai.wav,zh2sh_1_aizhai.wav,,TRUE,FALSE,,,,,,,,,,,,,,f,0.001,space,0.3656,,,,,,,,0,138,138,28,1,,
5dd6280e238a915cda514060,2023-06-16_10h28.10.831,phx_ver10,2022.2.5,Win32,59.87665409,,,,,,,,,,,,142,testing_3,sh2j,i,sh2j_i,sh2j_8_iji.wav,sh2j_8_iji.wav,,TRUE,FALSE,,,,,,,,,,,,,,f,0.1337,space,0.6697,,,,,,,,0,139,139,141,1,,
5dd6280e238a915cda514060,2023-06-16_10h28.10.831,phx_ver10,2022.2.5,Win32,59.87665409,,,,,,,,,,,,65,testing_3,zh2j,ei,zh2j_ei,zh2j_1_eizhei.wav,zh2j_1_eizhei.wav,,TRUE,FALSE,,,,,,,,,,,,,,f,0.5176,space,1.5334,,,,,,,,0,140,140,64,1,,
5dd6280e238a915cda514060,2023-06-16_10h28.10.831,phx_ver10,2022.2.5,Win32,59.87665409,,,,,,,,,,,,107,testing_3,sh2x,au,sh2x_au,sh2x_1_aushau.wav,sh2x_8_auxau.wav,,FALSE,FALSE,,,,,,,,,,,,,,f,2.9904,space,3.57,,,,,,,,0,141,141,106,1,,
5dd6280e238a915cda514060,2023-06-16_10h28.10.831,phx_ver10,2022.2.5,Win32,59.87665409,,,,,,,,,,,,63,testing_3,zh2j,e,zh2j_e,zh2j_1_ezhe.wav,zh2j_8_eje.wav,,FALSE,FALSE,,,,,,,,,,,,,,f,6.6225,space,7.3389,,,,,,,,0,142,142,62,1,,
5dd6280e238a915cda514060,2023-06-16_10h28.10.831,phx_ver10,2022.2.5,Win32,59.87665409,,,,,,,,,,,,53,testing_3,zh2j,ai,zh2j_ai,zh2j_1_aizhai.wav,zh2j_1_aizhai.wav,,TRUE,FALSE,,,,,,,,,,,,,,f,2.3851,space,2.9012,,,,,,,,0,143,143,52,1,,
5dd6280e238a915cda514060,2023-06-16_10h28.10.831,phx_ver10,2022.2.5,Win32,59.87665409,,,,,,,,,,,,,,,,,,,,,,,,,,,,,,,,,,,,,,,,,,,,,,,,,,,space,2.3153
