participant,date,expName,psychopyVersion,OS,frameRate,space_1.keys,space_1.rt,space_2.keys,space_2.rt,space_train.keys,space_train.rt,training.thisRepN,training.thisTrialN,training.thisN,training.thisIndex,training.ran,token_id,task,continuum,vowel,series,sound_1,sound_2,img,same,trained,FJ_attn.keys,FJ_attn.rt,space_attn.keys,space_attn.rt,if_attn_test.thisRepN,if_attn_test.thisTrialN,if_attn_test.thisN,if_attn_test.thisIndex,if_attn_test.ran,space_trans_1.keys,space_trans_1.rt,space_trans_11.keys,space_trans_11.rt,FJ_test.keys,FJ_test.rt,space_test.keys,space_test.rt,testing_pre.thisRepN,testing_pre.thisTrialN,testing_pre.thisN,testing_pre.thisIndex,testing_pre.ran,space_trans_2.keys,space_trans_2.rt,testing_all.thisRepN,testing_all.thisTrialN,testing_all.thisN,testing_all.thisIndex,testing_all.ran,space_ending.keys,space_ending.rt
5e08ed25dc265f1e36179f52,2023-06-16_10h06.52.707,phx_ver10,2022.2.5,Win32,59.94125757,,,,,,,,,,,,,,,,,,,,,,,,,,,,,,,,,,,,,,,,,,,,,,,,,,,,
5e08ed25dc265f1e36179f52,2023-06-16_10h06.52.707,phx_ver10,2022.2.5,Win32,59.94125757,space,2.0428,,,,,,,,,,,,,,,,,,,,,,,,,,,,,,,,,,,,,,,,,,,,,,,,,,
5e08ed25dc265f1e36179f52,2023-06-16_10h06.52.707,phx_ver10,2022.2.5,Win32,59.94125757,,,space,0.6949,,,,,,,,,,,,,,,,,,,,,,,,,,,,,,,,,,,,,,,,,,,,,,,,
5e08ed25dc265f1e36179f52,2023-06-16_10h06.52.707,phx_ver10,2022.2.5,Win32,59.94125757,,,,,space,1.2932,0,0,0,1,1,2,training,zh2x,a,zh2x_a,zh2x_2_azha.wav,,azha.jpg,,,,,,,,,,,,,,,,,,,,,,,,,,,,,,,,,
5e08ed25dc265f1e36179f52,2023-06-16_10h06.52.707,phx_ver10,2022.2.5,Win32,59.94125757,,,,,space,0.2695,0,1,1,5,1,6,training,zh2x,a,zh2x_a,zh2x_3_azha.wav,,azha.jpg,,,,,,,,,,,,,,,,,,,,,,,,,,,,,,,,,
5e08ed25dc265f1e36179f52,2023-06-16_10h06.52.707,phx_ver10,2022.2.5,Win32,59.94125757,,,,,space,0.1865,0,2,2,30,1,31,training,zh2x,e,zh2x_e,zh2x_7_exe.wav,,exe.jpg,,,,,,,,,,,,,,,,,,,,,,,,,,,,,,,,,
5e08ed25dc265f1e36179f52,2023-06-16_10h06.52.707,phx_ver10,2022.2.5,Win32,59.94125757,,,,,space,0.1665,0,3,3,24,1,25,training,zh2x,e,zh2x_e,zh2x_5_exe.wav,,exe.jpg,,,,,,,,,,,,,,,,,,,,,,,,,,,,,,,,,
5e08ed25dc265f1e36179f52,2023-06-16_10h06.52.707,phx_ver10,2022.2.5,Win32,59.94125757,,,,,space,0.1558,0,4,4,40,1,41,training,zh2x,i,zh2x_i,zh2x_5_ixi.wav,,ixi.jpg,,,,,,,,,,,,,,,,,,,,,,,,,,,,,,,,,
5e08ed25dc265f1e36179f52,2023-06-16_10h06.52.707,phx_ver10,2022.2.5,Win32,59.94125757,,,,,space,0.5195,0,5,5,18,1,19,training,zh2x,e,zh2x_e,zh2x_2_ezhe.wav,,ezhe.jpg,,,,,,,,,,,,,,,,,,,,,,,,,,,,,,,,,
5e08ed25dc265f1e36179f52,2023-06-16_10h06.52.707,phx_ver10,2022.2.5,Win32,59.94125757,,,,,,,,,,,,,attn_test,,,,zh2x_8_ixi.wav,zh2x_1_izhi.wav,ixi.jpg,LEFT,,j,3.9677,space,4.9859,0,0,0,0,1,,,,,,,,,,,,,,,,,,,,,,
5e08ed25dc265f1e36179f52,2023-06-16_10h06.52.707,phx_ver10,2022.2.5,Win32,59.94125757,,,,,space,0.7431,0,6,6,16,1,17,training,zh2x,e,zh2x_e,zh2x_1_ezhe.wav,,ezhe.jpg,,,,,,,,,,,,,,,,,,,,,,,,,,,,,,,,,
5e08ed25dc265f1e36179f52,2023-06-16_10h06.52.707,phx_ver10,2022.2.5,Win32,59.94125757,,,,,space,0.603,0,7,7,23,1,24,training,zh2x,e,zh2x_e,zh2x_4_ezhe.wav,,ezhe.jpg,,,,,,,,,,,,,,,,,,,,,,,,,,,,,,,,,
5e08ed25dc265f1e36179f52,2023-06-16_10h06.52.707,phx_ver10,2022.2.5,Win32,59.94125757,,,,,space,0.3617,0,8,8,15,1,16,training,zh2x,a,zh2x_a,zh2x_8_axa.wav,,axa.jpg,,,,,,,,,,,,,,,,,,,,,,,,,,,,,,,,,
5e08ed25dc265f1e36179f52,2023-06-16_10h06.52.707,phx_ver10,2022.2.5,Win32,59.94125757,,,,,space,0.7037,0,9,9,36,1,37,training,zh2x,i,zh2x_i,zh2x_2_izhi.wav,,izhi.jpg,,,,,,,,,,,,,,,,,,,,,,,,,,,,,,,,,
5e08ed25dc265f1e36179f52,2023-06-16_10h06.52.707,phx_ver10,2022.2.5,Win32,59.94125757,,,,,space,0.3286,0,10,10,34,1,35,training,zh2x,i,zh2x_i,zh2x_2_izhi.wav,,izhi.jpg,,,,,,,,,,,,,,,,,,,,,,,,,,,,,,,,,
5e08ed25dc265f1e36179f52,2023-06-16_10h06.52.707,phx_ver10,2022.2.5,Win32,59.94125757,,,,,space,0.4201,0,11,11,25,1,26,training,zh2x,e,zh2x_e,zh2x_6_exe.wav,,exe.jpg,,,,,,,,,,,,,,,,,,,,,,,,,,,,,,,,,
5e08ed25dc265f1e36179f52,2023-06-16_10h06.52.707,phx_ver10,2022.2.5,Win32,59.94125757,,,,,,,,,,,,,attn_test,,,,zh2x_1_azha.wav,zh2x_1_ezhe.wav,ezhe.jpg,RIGHT,,j,0.9292,space,1.7695,0,0,0,0,1,,,,,,,,,,,,,,,,,,,,,,
5e08ed25dc265f1e36179f52,2023-06-16_10h06.52.707,phx_ver10,2022.2.5,Win32,59.94125757,,,,,space,0.6015,0,12,12,22,1,23,training,zh2x,e,zh2x_e,zh2x_3_ezhe.wav,,ezhe.jpg,,,,,,,,,,,,,,,,,,,,,,,,,,,,,,,,,
5e08ed25dc265f1e36179f52,2023-06-16_10h06.52.707,phx_ver10,2022.2.5,Win32,59.94125757,,,,,space,0.3218,0,13,13,47,1,48,training,zh2x,i,zh2x_i,zh2x_8_ixi.wav,,ixi.jpg,,,,,,,,,,,,,,,,,,,,,,,,,,,,,,,,,
5e08ed25dc265f1e36179f52,2023-06-16_10h06.52.707,phx_ver10,2022.2.5,Win32,59.94125757,,,,,space,0.1017,0,14,14,8,1,9,training,zh2x,a,zh2x_a,zh2x_5_axa.wav,,axa.jpg,,,,,,,,,,,,,,,,,,,,,,,,,,,,,,,,,
5e08ed25dc265f1e36179f52,2023-06-16_10h06.52.707,phx_ver10,2022.2.5,Win32,59.94125757,,,,,space,0.1351,0,15,15,19,1,20,training,zh2x,e,zh2x_e,zh2x_2_ezhe.wav,,ezhe.jpg,,,,,,,,,,,,,,,,,,,,,,,,,,,,,,,,,
5e08ed25dc265f1e36179f52,2023-06-16_10h06.52.707,phx_ver10,2022.2.5,Win32,59.94125757,,,,,space,0.4748,0,16,16,12,1,13,training,zh2x,a,zh2x_a,zh2x_7_axa.wav,,axa.jpg,,,,,,,,,,,,,,,,,,,,,,,,,,,,,,,,,
5e08ed25dc265f1e36179f52,2023-06-16_10h06.52.707,phx_ver10,2022.2.5,Win32,59.94125757,,,,,space,0.4198,0,17,17,26,1,27,training,zh2x,e,zh2x_e,zh2x_6_exe.wav,,exe.jpg,,,,,,,,,,,,,,,,,,,,,,,,,,,,,,,,,
5e08ed25dc265f1e36179f52,2023-06-16_10h06.52.707,phx_ver10,2022.2.5,Win32,59.94125757,,,,,,,,,,,,,attn_test,,,,zh2x_1_azha.wav,zh2x_1_ezhe.wav,ezhe.jpg,RIGHT,,j,0.2514,space,0.9482,0,0,0,0,1,,,,,,,,,,,,,,,,,,,,,,
5e08ed25dc265f1e36179f52,2023-06-16_10h06.52.707,phx_ver10,2022.2.5,Win32,59.94125757,,,,,space,0.4394,0,18,18,32,1,33,training,zh2x,i,zh2x_i,zh2x_1_izhi.wav,,izhi.jpg,,,,,,,,,,,,,,,,,,,,,,,,,,,,,,,,,
5e08ed25dc265f1e36179f52,2023-06-16_10h06.52.707,phx_ver10,2022.2.5,Win32,59.94125757,,,,,space,0.4395,0,19,19,37,1,38,training,zh2x,i,zh2x_i,zh2x_3_izhi.wav,,izhi.jpg,,,,,,,,,,,,,,,,,,,,,,,,,,,,,,,,,
5e08ed25dc265f1e36179f52,2023-06-16_10h06.52.707,phx_ver10,2022.2.5,Win32,59.94125757,,,,,space,0.101,0,20,20,42,1,43,training,zh2x,i,zh2x_i,zh2x_6_ixi.wav,,ixi.jpg,,,,,,,,,,,,,,,,,,,,,,,,,,,,,,,,,
5e08ed25dc265f1e36179f52,2023-06-16_10h06.52.707,phx_ver10,2022.2.5,Win32,59.94125757,,,,,space,0.485,0,21,21,9,1,10,training,zh2x,a,zh2x_a,zh2x_6_axa.wav,,axa.jpg,,,,,,,,,,,,,,,,,,,,,,,,,,,,,,,,,
5e08ed25dc265f1e36179f52,2023-06-16_10h06.52.707,phx_ver10,2022.2.5,Win32,59.94125757,,,,,space,0.7171,0,22,22,17,1,18,training,zh2x,e,zh2x_e,zh2x_2_ezhe.wav,,ezhe.jpg,,,,,,,,,,,,,,,,,,,,,,,,,,,,,,,,,
5e08ed25dc265f1e36179f52,2023-06-16_10h06.52.707,phx_ver10,2022.2.5,Win32,59.94125757,,,,,space,0.0254,0,23,23,4,1,5,training,zh2x,a,zh2x_a,zh2x_2_azha.wav,,azha.jpg,,,,,,,,,,,,,,,,,,,,,,,,,,,,,,,,,
5e08ed25dc265f1e36179f52,2023-06-16_10h06.52.707,phx_ver10,2022.2.5,Win32,59.94125757,,,,,,,,,,,,,attn_test,,,,zh2x_8_ixi.wav,zh2x_8_axa.wav,axa.jpg,RIGHT,,j,0.5548,space,1.068,0,0,0,0,1,,,,,,,,,,,,,,,,,,,,,,
5e08ed25dc265f1e36179f52,2023-06-16_10h06.52.707,phx_ver10,2022.2.5,Win32,59.94125757,,,,,space,0.4912,0,24,24,35,1,36,training,zh2x,i,zh2x_i,zh2x_2_izhi.wav,,izhi.jpg,,,,,,,,,,,,,,,,,,,,,,,,,,,,,,,,,
5e08ed25dc265f1e36179f52,2023-06-16_10h06.52.707,phx_ver10,2022.2.5,Win32,59.94125757,,,,,space,0.0733,0,25,25,28,1,29,training,zh2x,e,zh2x_e,zh2x_7_exe.wav,,exe.jpg,,,,,,,,,,,,,,,,,,,,,,,,,,,,,,,,,
5e08ed25dc265f1e36179f52,2023-06-16_10h06.52.707,phx_ver10,2022.2.5,Win32,59.94125757,,,,,space,0.5502,0,26,26,33,1,34,training,zh2x,i,zh2x_i,zh2x_2_izhi.wav,,izhi.jpg,,,,,,,,,,,,,,,,,,,,,,,,,,,,,,,,,
5e08ed25dc265f1e36179f52,2023-06-16_10h06.52.707,phx_ver10,2022.2.5,Win32,59.94125757,,,,,space,0.5011,0,27,27,38,1,39,training,zh2x,i,zh2x_i,zh2x_3_izhi.wav,,izhi.jpg,,,,,,,,,,,,,,,,,,,,,,,,,,,,,,,,,
5e08ed25dc265f1e36179f52,2023-06-16_10h06.52.707,phx_ver10,2022.2.5,Win32,59.94125757,,,,,space,0.4922,0,28,28,10,1,11,training,zh2x,a,zh2x_a,zh2x_6_axa.wav,,axa.jpg,,,,,,,,,,,,,,,,,,,,,,,,,,,,,,,,,
5e08ed25dc265f1e36179f52,2023-06-16_10h06.52.707,phx_ver10,2022.2.5,Win32,59.94125757,,,,,space,0.1665,0,29,29,0,1,1,training,zh2x,a,zh2x_a,zh2x_1_azha.wav,,azha.jpg,,,,,,,,,,,,,,,,,,,,,,,,,,,,,,,,,
5e08ed25dc265f1e36179f52,2023-06-16_10h06.52.707,phx_ver10,2022.2.5,Win32,59.94125757,,,,,,,,,,,,,attn_test,,,,zh2x_1_izhi.wav,zh2x_1_azha.wav,azha.jpg,RIGHT,,j,1.2182,space,1.677,0,0,0,0,1,,,,,,,,,,,,,,,,,,,,,,
5e08ed25dc265f1e36179f52,2023-06-16_10h06.52.707,phx_ver10,2022.2.5,Win32,59.94125757,,,,,space,0.4683,0,30,30,46,1,47,training,zh2x,i,zh2x_i,zh2x_7_ixi.wav,,ixi.jpg,,,,,,,,,,,,,,,,,,,,,,,,,,,,,,,,,
5e08ed25dc265f1e36179f52,2023-06-16_10h06.52.707,phx_ver10,2022.2.5,Win32,59.94125757,,,,,space,0.0413,0,31,31,2,1,3,training,zh2x,a,zh2x_a,zh2x_2_azha.wav,,azha.jpg,,,,,,,,,,,,,,,,,,,,,,,,,,,,,,,,,
5e08ed25dc265f1e36179f52,2023-06-16_10h06.52.707,phx_ver10,2022.2.5,Win32,59.94125757,,,,,space,0.5813,0,32,32,3,1,4,training,zh2x,a,zh2x_a,zh2x_2_azha.wav,,azha.jpg,,,,,,,,,,,,,,,,,,,,,,,,,,,,,,,,,
5e08ed25dc265f1e36179f52,2023-06-16_10h06.52.707,phx_ver10,2022.2.5,Win32,59.94125757,,,,,space,1.2074,0,33,33,45,1,46,training,zh2x,i,zh2x_i,zh2x_7_ixi.wav,,ixi.jpg,,,,,,,,,,,,,,,,,,,,,,,,,,,,,,,,,
5e08ed25dc265f1e36179f52,2023-06-16_10h06.52.707,phx_ver10,2022.2.5,Win32,59.94125757,,,,,space,0.1066,0,34,34,43,1,44,training,zh2x,i,zh2x_i,zh2x_7_ixi.wav,,ixi.jpg,,,,,,,,,,,,,,,,,,,,,,,,,,,,,,,,,
5e08ed25dc265f1e36179f52,2023-06-16_10h06.52.707,phx_ver10,2022.2.5,Win32,59.94125757,,,,,space,0.324,0,35,35,27,1,28,training,zh2x,e,zh2x_e,zh2x_7_exe.wav,,exe.jpg,,,,,,,,,,,,,,,,,,,,,,,,,,,,,,,,,
5e08ed25dc265f1e36179f52,2023-06-16_10h06.52.707,phx_ver10,2022.2.5,Win32,59.94125757,,,,,,,,,,,,,attn_test,,,,zh2x_8_ixi.wav,zh2x_1_azha.wav,azha.jpg,RIGHT,,j,0.6008,space,1.0514,0,0,0,0,1,,,,,,,,,,,,,,,,,,,,,,
5e08ed25dc265f1e36179f52,2023-06-16_10h06.52.707,phx_ver10,2022.2.5,Win32,59.94125757,,,,,space,0.5187,0,36,36,31,1,32,training,zh2x,e,zh2x_e,zh2x_8_exe.wav,,exe.jpg,,,,,,,,,,,,,,,,,,,,,,,,,,,,,,,,,
5e08ed25dc265f1e36179f52,2023-06-16_10h06.52.707,phx_ver10,2022.2.5,Win32,59.94125757,,,,,space,0.4696,0,37,37,20,1,21,training,zh2x,e,zh2x_e,zh2x_2_ezhe.wav,,ezhe.jpg,,,,,,,,,,,,,,,,,,,,,,,,,,,,,,,,,
5e08ed25dc265f1e36179f52,2023-06-16_10h06.52.707,phx_ver10,2022.2.5,Win32,59.94125757,,,,,space,0.357,0,38,38,41,1,42,training,zh2x,i,zh2x_i,zh2x_6_ixi.wav,,ixi.jpg,,,,,,,,,,,,,,,,,,,,,,,,,,,,,,,,,
5e08ed25dc265f1e36179f52,2023-06-16_10h06.52.707,phx_ver10,2022.2.5,Win32,59.94125757,,,,,space,0.339,0,39,39,13,1,14,training,zh2x,a,zh2x_a,zh2x_7_axa.wav,,axa.jpg,,,,,,,,,,,,,,,,,,,,,,,,,,,,,,,,,
5e08ed25dc265f1e36179f52,2023-06-16_10h06.52.707,phx_ver10,2022.2.5,Win32,59.94125757,,,,,space,0.4848,0,40,40,14,1,15,training,zh2x,a,zh2x_a,zh2x_7_axa.wav,,axa.jpg,,,,,,,,,,,,,,,,,,,,,,,,,,,,,,,,,
5e08ed25dc265f1e36179f52,2023-06-16_10h06.52.707,phx_ver10,2022.2.5,Win32,59.94125757,,,,,space,0.3718,0,41,41,44,1,45,training,zh2x,i,zh2x_i,zh2x_7_ixi.wav,,ixi.jpg,,,,,,,,,,,,,,,,,,,,,,,,,,,,,,,,,
5e08ed25dc265f1e36179f52,2023-06-16_10h06.52.707,phx_ver10,2022.2.5,Win32,59.94125757,,,,,,,,,,,,,attn_test,,,,zh2x_1_izhi.wav,zh2x_1_ezhe.wav,ezhe.jpg,RIGHT,,j,0.5031,space,0.8844,0,0,0,0,1,,,,,,,,,,,,,,,,,,,,,,
5e08ed25dc265f1e36179f52,2023-06-16_10h06.52.707,phx_ver10,2022.2.5,Win32,59.94125757,,,,,space,0.7423,0,42,42,29,1,30,training,zh2x,e,zh2x_e,zh2x_7_exe.wav,,exe.jpg,,,,,,,,,,,,,,,,,,,,,,,,,,,,,,,,,
5e08ed25dc265f1e36179f52,2023-06-16_10h06.52.707,phx_ver10,2022.2.5,Win32,59.94125757,,,,,space,0.3519,0,43,43,7,1,8,training,zh2x,a,zh2x_a,zh2x_4_azha.wav,,azha.jpg,,,,,,,,,,,,,,,,,,,,,,,,,,,,,,,,,
5e08ed25dc265f1e36179f52,2023-06-16_10h06.52.707,phx_ver10,2022.2.5,Win32,59.94125757,,,,,space,0.3351,0,44,44,11,1,12,training,zh2x,a,zh2x_a,zh2x_7_axa.wav,,axa.jpg,,,,,,,,,,,,,,,,,,,,,,,,,,,,,,,,,
5e08ed25dc265f1e36179f52,2023-06-16_10h06.52.707,phx_ver10,2022.2.5,Win32,59.94125757,,,,,space,0.2363,0,45,45,21,1,22,training,zh2x,e,zh2x_e,zh2x_3_ezhe.wav,,ezhe.jpg,,,,,,,,,,,,,,,,,,,,,,,,,,,,,,,,,
5e08ed25dc265f1e36179f52,2023-06-16_10h06.52.707,phx_ver10,2022.2.5,Win32,59.94125757,,,,,space,0.3093,0,46,46,39,1,40,training,zh2x,i,zh2x_i,zh2x_4_izhi.wav,,izhi.jpg,,,,,,,,,,,,,,,,,,,,,,,,,,,,,,,,,
5e08ed25dc265f1e36179f52,2023-06-16_10h06.52.707,phx_ver10,2022.2.5,Win32,59.94125757,,,,,space,0.3211,0,47,47,6,1,7,training,zh2x,a,zh2x_a,zh2x_3_azha.wav,,azha.jpg,,,,,,,,,,,,,,,,,,,,,,,,,,,,,,,,,
5e08ed25dc265f1e36179f52,2023-06-16_10h06.52.707,phx_ver10,2022.2.5,Win32,59.94125757,,,,,,,,,,,,,attn_test,,,,zh2x_1_azha.wav,zh2x_8_axa.wav,azha.jpg,LEFT,,f,0.0683,space,0.7016,,,,,,,,,,,,,,,,,,,,,,,,,,,
5e08ed25dc265f1e36179f52,2023-06-16_10h06.52.707,phx_ver10,2022.2.5,Win32,59.94125757,,,,,,,,,,,,,,,,,,,,,,,,,,,,,,,space,0.7007,,,,,,,,,,,,,,,,,,,,
5e08ed25dc265f1e36179f52,2023-06-16_10h06.52.707,phx_ver10,2022.2.5,Win32,59.94125757,,,,,,,,,,,,,,,,,,,,,,,,,,,,,,,,,space,3.6854,,,,,,,,,,,,,,,,,,
5e08ed25dc265f1e36179f52,2023-06-16_10h06.52.707,phx_ver10,2022.2.5,Win32,59.94125757,,,,,,,,,,,,2,testing_pre,,,,auhau.wav,aufau.wav,,FALSE,,,,,,,,,,,,,,,j,0.4514,space,1.5517,0,0,0,1,1,,,,,,,,,
5e08ed25dc265f1e36179f52,2023-06-16_10h06.52.707,phx_ver10,2022.2.5,Win32,59.94125757,,,,,,,,,,,,4,testing_pre,,,,eihei.wav,eihei.wav,,TRUE,,,,,,,,,,,,,,,f,0.0192,space,0.4033,0,1,1,3,1,,,,,,,,,
5e08ed25dc265f1e36179f52,2023-06-16_10h06.52.707,phx_ver10,2022.2.5,Win32,59.94125757,,,,,,,,,,,,3,testing_pre,,,,afa.wav,aha.wav,,FALSE,,,,,,,,,,,,,,,j,0.0516,space,0.4515,0,2,2,2,1,,,,,,,,,
5e08ed25dc265f1e36179f52,2023-06-16_10h06.52.707,phx_ver10,2022.2.5,Win32,59.94125757,,,,,,,,,,,,5,testing_pre,,,,ihi.wav,ifi.wav,,FALSE,,,,,,,,,,,,,,,j,0.071,space,0.4571,0,3,3,4,1,,,,,,,,,
5e08ed25dc265f1e36179f52,2023-06-16_10h06.52.707,phx_ver10,2022.2.5,Win32,59.94125757,,,,,,,,,,,,1,testing_pre,,,,ifi.wav,ifi.wav,,TRUE,,,,,,,,,,,,,,,f,0.0367,space,0.4006,0,4,4,0,1,,,,,,,,,
5e08ed25dc265f1e36179f52,2023-06-16_10h06.52.707,phx_ver10,2022.2.5,Win32,59.94125757,,,,,,,,,,,,,,,,,,,,,,,,,,,,,,,,,,,,,,,,,,,,space,0.6452,,,,,,,
5e08ed25dc265f1e36179f52,2023-06-16_10h06.52.707,phx_ver10,2022.2.5,Win32,59.94125757,,,,,,,,,,,,70,testing_3,zh2j,i,zh2j_i,zh2j_8_iji.wav,zh2j_8_iji.wav,,TRUE,FALSE,,,,,,,,,,,,,,f,0.4985,space,0.8347,,,,,,,,0,0,0,69,1,,
5e08ed25dc265f1e36179f52,2023-06-16_10h06.52.707,phx_ver10,2022.2.5,Win32,59.94125757,,,,,,,,,,,,48,testing_3,zh2sh,i,zh2sh_i,zh2sh_8_ishi.wav,zh2sh_1_izhi.wav,,FALSE,FALSE,,,,,,,,,,,,,,f,0.4022,space,0.9188,,,,,,,,0,1,1,47,1,,
5e08ed25dc265f1e36179f52,2023-06-16_10h06.52.707,phx_ver10,2022.2.5,Win32,59.94125757,,,,,,,,,,,,78,testing_3,j2x,ai,j2x_ai,j2x_8_aixai.wav,j2x_8_aixai.wav,,TRUE,FALSE,,,,,,,,,,,,,,f,0.2089,space,0.7401,,,,,,,,0,2,2,77,1,,
5e08ed25dc265f1e36179f52,2023-06-16_10h06.52.707,phx_ver10,2022.2.5,Win32,59.94125757,,,,,,,,,,,,6,testing_1,zh2x,e,zh2x_e,zh2x_8_exe.wav,zh2x_8_exe_copy.wav,,TRUE,TRUE,,,,,,,,,,,,,,f,0.001,space,0.4579,,,,,,,,0,3,3,5,1,,
5e08ed25dc265f1e36179f52,2023-06-16_10h06.52.707,phx_ver10,2022.2.5,Win32,59.94125757,,,,,,,,,,,,121,testing_3,sh2j,a,sh2j_a,sh2j_1_asha.wav,sh2j_1_asha.wav,,TRUE,FALSE,,,,,,,,,,,,,,f,0.0379,space,0.4389,,,,,,,,0,4,4,120,1,,
5e08ed25dc265f1e36179f52,2023-06-16_10h06.52.707,phx_ver10,2022.2.5,Win32,59.94125757,,,,,,,,,,,,69,testing_3,zh2j,i,zh2j_i,zh2j_1_izhi.wav,zh2j_1_izhi.wav,,TRUE,FALSE,,,,,,,,,,,,,,f,0.0347,space,0.4016,,,,,,,,0,5,5,68,1,,
5e08ed25dc265f1e36179f52,2023-06-16_10h06.52.707,phx_ver10,2022.2.5,Win32,59.94125757,,,,,,,,,,,,2,testing_1,zh2x,a,zh2x_a,zh2x_8_axa.wav,zh2x_8_axa_copy.wav,,TRUE,TRUE,,,,,,,,,,,,,,f,0.1033,space,0.4634,,,,,,,,0,6,6,1,1,,
5e08ed25dc265f1e36179f52,2023-06-16_10h06.52.707,phx_ver10,2022.2.5,Win32,59.94125757,,,,,,,,,,,,21,testing_2,zh2x,ei,zh2x_ei,zh2x_1_eizhei.wav,zh2x_1_eizhei.wav,,TRUE,FALSE,,,,,,,,,,,,,,f,0.0884,space,0.5346,,,,,,,,0,7,7,20,1,,
5e08ed25dc265f1e36179f52,2023-06-16_10h06.52.707,phx_ver10,2022.2.5,Win32,59.94125757,,,,,,,,,,,,105,testing_3,sh2x,au,sh2x_au,sh2x_1_aushau.wav,sh2x_1_aushau.wav,,TRUE,FALSE,,,,,,,,,,,,,,f,0.0513,space,0.4987,,,,,,,,0,8,8,104,1,,
5e08ed25dc265f1e36179f52,2023-06-16_10h06.52.707,phx_ver10,2022.2.5,Win32,59.94125757,,,,,,,,,,,,8,testing_1,zh2x,e,zh2x_e,zh2x_8_exe.wav,zh2x_1_ezhe.wav,,FALSE,TRUE,,,,,,,,,,,,,,f,0.5277,space,0.9069,,,,,,,,0,9,9,7,1,,
5e08ed25dc265f1e36179f52,2023-06-16_10h06.52.707,phx_ver10,2022.2.5,Win32,59.94125757,,,,,,,,,,,,120,testing_3,sh2x,i,sh2x_i,sh2x_8_ixi.wav,sh2x_1_ishi.wav,,FALSE,FALSE,,,,,,,,,,,,,,f,0.084,space,0.5206,,,,,,,,0,10,10,119,1,,
5e08ed25dc265f1e36179f52,2023-06-16_10h06.52.707,phx_ver10,2022.2.5,Win32,59.94125757,,,,,,,,,,,,76,testing_3,j2x,a,j2x_a,j2x_8_axa.wav,j2x_1_aja.wav,,FALSE,FALSE,,,,,,,,,,,,,,f,0.0357,space,0.4665,,,,,,,,0,11,11,75,1,,
5e08ed25dc265f1e36179f52,2023-06-16_10h06.52.707,phx_ver10,2022.2.5,Win32,59.94125757,,,,,,,,,,,,50,testing_3,zh2j,a,zh2j_a,zh2j_8_aja.wav,zh2j_8_aja.wav,,TRUE,FALSE,,,,,,,,,,,,,,f,1.8234,space,2.2167,,,,,,,,0,12,12,49,1,,
5e08ed25dc265f1e36179f52,2023-06-16_10h06.52.707,phx_ver10,2022.2.5,Win32,59.94125757,,,,,,,,,,,,43,testing_3,zh2sh,ei,zh2sh_ei,zh2sh_1_eizhei.wav,zh2sh_8_eishei.wav,,FALSE,FALSE,,,,,,,,,,,,,,f,0.6998,space,1.4001,,,,,,,,0,13,13,42,1,,
5e08ed25dc265f1e36179f52,2023-06-16_10h06.52.707,phx_ver10,2022.2.5,Win32,59.94125757,,,,,,,,,,,,98,testing_3,sh2x,a,sh2x_a,sh2x_8_axa.wav,sh2x_8_axa.wav,,TRUE,FALSE,,,,,,,,,,,,,,f,0.4343,space,0.7564,,,,,,,,0,14,14,97,1,,
5e08ed25dc265f1e36179f52,2023-06-16_10h06.52.707,phx_ver10,2022.2.5,Win32,59.94125757,,,,,,,,,,,,59,testing_3,zh2j,au,zh2j_au,zh2j_1_auzhau.wav,zh2j_8_aujau.wav,,FALSE,FALSE,,,,,,,,,,,,,,f,0.2668,space,0.5883,,,,,,,,0,15,15,58,1,,
5e08ed25dc265f1e36179f52,2023-06-16_10h06.52.707,phx_ver10,2022.2.5,Win32,59.94125757,,,,,,,,,,,,15,testing_2,zh2x,ai,zh2x_ai,zh2x_1_aizhai.wav,zh2x_8_aixai.wav,,FALSE,FALSE,,,,,,,,,,,,,,j,0.4413,space,0.74,,,,,,,,0,16,16,14,1,,
5e08ed25dc265f1e36179f52,2023-06-16_10h06.52.707,phx_ver10,2022.2.5,Win32,59.94125757,,,,,,,,,,,,4,testing_1,zh2x,a,zh2x_a,zh2x_8_axa.wav,zh2x_1_azha.wav,,FALSE,TRUE,,,,,,,,,,,,,,f,0.1482,space,0.4958,,,,,,,,0,17,17,3,1,,
5e08ed25dc265f1e36179f52,2023-06-16_10h06.52.707,phx_ver10,2022.2.5,Win32,59.94125757,,,,,,,,,,,,66,testing_3,zh2j,ei,zh2j_ei,zh2j_8_eijei.wav,zh2j_8_eijei.wav,,TRUE,FALSE,,,,,,,,,,,,,,f,0.3389,space,0.9554,,,,,,,,0,18,18,65,1,,
5e08ed25dc265f1e36179f52,2023-06-16_10h06.52.707,phx_ver10,2022.2.5,Win32,59.94125757,,,,,,,,,,,,118,testing_3,sh2x,i,sh2x_i,sh2x_8_ixi.wav,sh2x_8_ixi.wav,,TRUE,FALSE,,,,,,,,,,,,,,f,0.1328,space,0.535,,,,,,,,0,19,19,117,1,,
5e08ed25dc265f1e36179f52,2023-06-16_10h06.52.707,phx_ver10,2022.2.5,Win32,59.94125757,,,,,,,,,,,,80,testing_3,j2x,ai,j2x_ai,j2x_8_aixai.wav,j2x_1_aijai.wav,,FALSE,FALSE,,,,,,,,,,,,,,f,0.3081,space,0.9395,,,,,,,,0,20,20,79,1,,
5e08ed25dc265f1e36179f52,2023-06-16_10h06.52.707,phx_ver10,2022.2.5,Win32,59.94125757,,,,,,,,,,,,144,testing_3,sh2j,i,sh2j_i,sh2j_8_iji.wav,sh2j_1_ishi.wav,,FALSE,FALSE,,,,,,,,,,,,,,j,0.1519,space,0.5214,,,,,,,,0,21,21,143,1,,
5e08ed25dc265f1e36179f52,2023-06-16_10h06.52.707,phx_ver10,2022.2.5,Win32,59.94125757,,,,,,,,,,,,22,testing_2,zh2x,ei,zh2x_ei,zh2x_8_eixei.wav,zh2x_8_eixei.wav,,TRUE,FALSE,,,,,,,,,,,,,,f,0.2201,space,0.5699,,,,,,,,0,22,22,21,1,,
5e08ed25dc265f1e36179f52,2023-06-16_10h06.52.707,phx_ver10,2022.2.5,Win32,59.94125757,,,,,,,,,,,,3,testing_1,zh2x,a,zh2x_a,zh2x_1_azha.wav,zh2x_8_axa.wav,,FALSE,TRUE,,,,,,,,,,,,,,f,0.3693,space,0.9176,,,,,,,,0,23,23,2,1,,
5e08ed25dc265f1e36179f52,2023-06-16_10h06.52.707,phx_ver10,2022.2.5,Win32,59.94125757,,,,,,,,,,,,41,testing_3,zh2sh,ei,zh2sh_ei,zh2sh_1_eizhei.wav,zh2sh_1_eizhei.wav,,TRUE,FALSE,,,,,,,,,,,,,,f,0.0359,space,0.5366,,,,,,,,0,24,24,40,1,,
5e08ed25dc265f1e36179f52,2023-06-16_10h06.52.707,phx_ver10,2022.2.5,Win32,59.94125757,,,,,,,,,,,,10,testing_1,zh2x,i,zh2x_i,zh2x_8_ixi.wav,zh2x_8_ixi_copy.wav,,TRUE,TRUE,,,,,,,,,,,,,,f,0.3017,space,0.6363,,,,,,,,0,25,25,9,1,,
5e08ed25dc265f1e36179f52,2023-06-16_10h06.52.707,phx_ver10,2022.2.5,Win32,59.94125757,,,,,,,,,,,,81,testing_3,j2x,au,j2x_au,j2x_1_aujau.wav,j2x_1_aujau.wav,,TRUE,FALSE,,,,,,,,,,,,,,f,0.2843,space,0.9008,,,,,,,,0,26,26,80,1,,
5e08ed25dc265f1e36179f52,2023-06-16_10h06.52.707,phx_ver10,2022.2.5,Win32,59.94125757,,,,,,,,,,,,40,testing_3,zh2sh,e,zh2sh_e,zh2sh_8_eshe.wav,zh2sh_1_ezhe.wav,,FALSE,FALSE,,,,,,,,,,,,,,f,0.2704,space,0.7363,,,,,,,,0,27,27,39,1,,
5e08ed25dc265f1e36179f52,2023-06-16_10h06.52.707,phx_ver10,2022.2.5,Win32,59.94125757,,,,,,,,,,,,39,testing_3,zh2sh,e,zh2sh_e,zh2sh_1_ezhe.wav,zh2sh_8_eshe.wav,,FALSE,FALSE,,,,,,,,,,,,,,f,0.8257,space,1.5891,,,,,,,,0,28,28,38,1,,
5e08ed25dc265f1e36179f52,2023-06-16_10h06.52.707,phx_ver10,2022.2.5,Win32,59.94125757,,,,,,,,,,,,89,testing_3,j2x,ei,j2x_ei,j2x_1_eijei.wav,j2x_1_eijei.wav,,TRUE,FALSE,,,,,,,,,,,,,,f,3.8659,space,4.2695,,,,,,,,0,29,29,88,1,,
5e08ed25dc265f1e36179f52,2023-06-16_10h06.52.707,phx_ver10,2022.2.5,Win32,59.94125757,,,,,,,,,,,,30,testing_3,zh2sh,ai,zh2sh_ai,zh2sh_8_aishai.wav,zh2sh_8_aishai.wav,,TRUE,FALSE,,,,,,,,,,,,,,f,1.29,space,1.9037,,,,,,,,0,30,30,29,1,,
5e08ed25dc265f1e36179f52,2023-06-16_10h06.52.707,phx_ver10,2022.2.5,Win32,59.94125757,,,,,,,,,,,,107,testing_3,sh2x,au,sh2x_au,sh2x_1_aushau.wav,sh2x_8_auxau.wav,,FALSE,FALSE,,,,,,,,,,,,,,f,0.7842,space,1.0384,,,,,,,,0,31,31,106,1,,
5e08ed25dc265f1e36179f52,2023-06-16_10h06.52.707,phx_ver10,2022.2.5,Win32,59.94125757,,,,,,,,,,,,32,testing_3,zh2sh,ai,zh2sh_ai,zh2sh_8_aishai.wav,zh2sh_1_aizhai.wav,,FALSE,FALSE,,,,,,,,,,,,,,j,0.2009,space,0.5711,,,,,,,,0,32,32,31,1,,
5e08ed25dc265f1e36179f52,2023-06-16_10h06.52.707,phx_ver10,2022.2.5,Win32,59.94125757,,,,,,,,,,,,20,testing_2,zh2x,au,zh2x_au,zh2x_8_auxau.wav,zh2x_1_auzhau.wav,,FALSE,FALSE,,,,,,,,,,,,,,j,0.1552,space,0.5864,,,,,,,,0,33,33,19,1,,
5e08ed25dc265f1e36179f52,2023-06-16_10h06.52.707,phx_ver10,2022.2.5,Win32,59.94125757,,,,,,,,,,,,100,testing_3,sh2x,a,sh2x_a,sh2x_8_axa.wav,sh2x_1_asha.wav,,FALSE,FALSE,,,,,,,,,,,,,,f,1.984,space,2.2985,,,,,,,,0,34,34,99,1,,
5e08ed25dc265f1e36179f52,2023-06-16_10h06.52.707,phx_ver10,2022.2.5,Win32,59.94125757,,,,,,,,,,,,127,testing_3,sh2j,ai,sh2j_ai,sh2j_1_aishai.wav,sh2j_8_aijai.wav,,FALSE,FALSE,,,,,,,,,,,,,,j,0.853,space,1.1553,,,,,,,,0,35,35,126,1,,
5e08ed25dc265f1e36179f52,2023-06-16_10h06.52.707,phx_ver10,2022.2.5,Win32,59.94125757,,,,,,,,,,,,27,testing_3,zh2sh,a,zh2sh_a,zh2sh_1_azha.wav,zh2sh_8_asha.wav,,FALSE,FALSE,,,,,,,,,,,,,,f,1.1171,space,1.5523,,,,,,,,0,36,36,26,1,,
5e08ed25dc265f1e36179f52,2023-06-16_10h06.52.707,phx_ver10,2022.2.5,Win32,59.94125757,,,,,,,,,,,,24,testing_2,zh2x,ei,zh2x_ei,zh2x_8_eixei.wav,zh2x_1_eizhei.wav,,FALSE,FALSE,,,,,,,,,,,,,,f,2.2688,space,2.65,,,,,,,,0,37,37,23,1,,
5e08ed25dc265f1e36179f52,2023-06-16_10h06.52.707,phx_ver10,2022.2.5,Win32,59.94125757,,,,,,,,,,,,124,testing_3,sh2j,a,sh2j_a,sh2j_8_aja.wav,sh2j_1_asha.wav,,FALSE,FALSE,,,,,,,,,,,,,,j,1.4395,space,1.7842,,,,,,,,0,38,38,123,1,,
5e08ed25dc265f1e36179f52,2023-06-16_10h06.52.707,phx_ver10,2022.2.5,Win32,59.94125757,,,,,,,,,,,,123,testing_3,sh2j,a,sh2j_a,sh2j_1_asha.wav,sh2j_8_aja.wav,,FALSE,FALSE,,,,,,,,,,,,,,f,1.9225,space,2.3368,,,,,,,,0,39,39,122,1,,
5e08ed25dc265f1e36179f52,2023-06-16_10h06.52.707,phx_ver10,2022.2.5,Win32,59.94125757,,,,,,,,,,,,115,testing_3,sh2x,ei,sh2x_ei,sh2x_1_eishei.wav,sh2x_8_eixei.wav,,FALSE,FALSE,,,,,,,,,,,,,,f,4.7006,space,5.1345,,,,,,,,0,40,40,114,1,,
5e08ed25dc265f1e36179f52,2023-06-16_10h06.52.707,phx_ver10,2022.2.5,Win32,59.94125757,,,,,,,,,,,,61,testing_3,zh2j,e,zh2j_e,zh2j_1_ezhe.wav,zh2j_1_ezhe.wav,,TRUE,FALSE,,,,,,,,,,,,,,f,3.9382,space,4.3834,,,,,,,,0,41,41,60,1,,
5e08ed25dc265f1e36179f52,2023-06-16_10h06.52.707,phx_ver10,2022.2.5,Win32,59.94125757,,,,,,,,,,,,42,testing_3,zh2sh,ei,zh2sh_ei,zh2sh_8_eishei.wav,zh2sh_8_eishei.wav,,TRUE,FALSE,,,,,,,,,,,,,,f,1.7691,space,2.2491,,,,,,,,0,42,42,41,1,,
5e08ed25dc265f1e36179f52,2023-06-16_10h06.52.707,phx_ver10,2022.2.5,Win32,59.94125757,,,,,,,,,,,,35,testing_3,zh2sh,au,zh2sh_au,zh2sh_1_auzhau.wav,zh2sh_8_aushau.wav,,FALSE,FALSE,,,,,,,,,,,,,,j,0.323,space,0.6182,,,,,,,,0,43,43,34,1,,
5e08ed25dc265f1e36179f52,2023-06-16_10h06.52.707,phx_ver10,2022.2.5,Win32,59.94125757,,,,,,,,,,,,9,testing_1,zh2x,i,zh2x_i,zh2x_1_izhi.wav,zh2x_1_izhi_copy.wav,,TRUE,TRUE,,,,,,,,,,,,,,f,0.4851,space,0.8347,,,,,,,,0,44,44,8,1,,
5e08ed25dc265f1e36179f52,2023-06-16_10h06.52.707,phx_ver10,2022.2.5,Win32,59.94125757,,,,,,,,,,,,57,testing_3,zh2j,au,zh2j_au,zh2j_1_auzhau.wav,zh2j_1_auzhau.wav,,TRUE,FALSE,,,,,,,,,,,,,,f,0.6877,space,1.0995,,,,,,,,0,45,45,56,1,,
5e08ed25dc265f1e36179f52,2023-06-16_10h06.52.707,phx_ver10,2022.2.5,Win32,59.94125757,,,,,,,,,,,,16,testing_2,zh2x,ai,zh2x_ai,zh2x_8_aixai.wav,zh2x_1_aizhai.wav,,FALSE,FALSE,,,,,,,,,,,,,,f,2.6533,space,3.0667,,,,,,,,0,46,46,15,1,,
5e08ed25dc265f1e36179f52,2023-06-16_10h06.52.707,phx_ver10,2022.2.5,Win32,59.94125757,,,,,,,,,,,,95,testing_3,j2x,i,j2x_i,j2x_1_iji.wav,j2x_8_ixi.wav,,FALSE,FALSE,,,,,,,,,,,,,,f,2.9678,space,3.3858,,,,,,,,0,47,47,94,1,,
5e08ed25dc265f1e36179f52,2023-06-16_10h06.52.707,phx_ver10,2022.2.5,Win32,59.94125757,,,,,,,,,,,,58,testing_3,zh2j,au,zh2j_au,zh2j_8_aujau.wav,zh2j_8_aujau.wav,,TRUE,FALSE,,,,,,,,,,,,,,f,3.816,space,4.871,,,,,,,,0,48,48,57,1,,
5e08ed25dc265f1e36179f52,2023-06-16_10h06.52.707,phx_ver10,2022.2.5,Win32,59.94125757,,,,,,,,,,,,93,testing_3,j2x,i,j2x_i,j2x_1_iji.wav,j2x_1_iji.wav,,TRUE,FALSE,,,,,,,,,,,,,,f,0.808,space,1.2344,,,,,,,,0,49,49,92,1,,
5e08ed25dc265f1e36179f52,2023-06-16_10h06.52.707,phx_ver10,2022.2.5,Win32,59.94125757,,,,,,,,,,,,37,testing_3,zh2sh,e,zh2sh_e,zh2sh_1_ezhe.wav,zh2sh_1_ezhe.wav,,TRUE,FALSE,,,,,,,,,,,,,,f,0.5022,space,0.8404,,,,,,,,0,50,50,36,1,,
5e08ed25dc265f1e36179f52,2023-06-16_10h06.52.707,phx_ver10,2022.2.5,Win32,59.94125757,,,,,,,,,,,,128,testing_3,sh2j,ai,sh2j_ai,sh2j_8_aijai.wav,sh2j_1_aishai.wav,,FALSE,FALSE,,,,,,,,,,,,,,j,0.4522,space,0.8918,,,,,,,,0,51,51,127,1,,
5e08ed25dc265f1e36179f52,2023-06-16_10h06.52.707,phx_ver10,2022.2.5,Win32,59.94125757,,,,,,,,,,,,143,testing_3,sh2j,i,sh2j_i,sh2j_1_ishi.wav,sh2j_8_iji.wav,,FALSE,FALSE,,,,,,,,,,,,,,j,0.487,space,0.8371,,,,,,,,0,52,52,142,1,,
5e08ed25dc265f1e36179f52,2023-06-16_10h06.52.707,phx_ver10,2022.2.5,Win32,59.94125757,,,,,,,,,,,,94,testing_3,j2x,i,j2x_i,j2x_8_ixi.wav,j2x_8_ixi.wav,,TRUE,FALSE,,,,,,,,,,,,,,f,0.8932,space,1.3202,,,,,,,,0,53,53,93,1,,
5e08ed25dc265f1e36179f52,2023-06-16_10h06.52.707,phx_ver10,2022.2.5,Win32,59.94125757,,,,,,,,,,,,141,testing_3,sh2j,i,sh2j_i,sh2j_1_ishi.wav,sh2j_1_ishi.wav,,TRUE,FALSE,,,,,,,,,,,,,,f,0.1536,space,0.5973,,,,,,,,0,54,54,140,1,,
5e08ed25dc265f1e36179f52,2023-06-16_10h06.52.707,phx_ver10,2022.2.5,Win32,59.94125757,,,,,,,,,,,,97,testing_3,sh2x,a,sh2x_a,sh2x_1_asha.wav,sh2x_1_asha.wav,,TRUE,FALSE,,,,,,,,,,,,,,f,0.4195,space,0.7504,,,,,,,,0,55,55,96,1,,
5e08ed25dc265f1e36179f52,2023-06-16_10h06.52.707,phx_ver10,2022.2.5,Win32,59.94125757,,,,,,,,,,,,83,testing_3,j2x,au,j2x_au,j2x_1_aujau.wav,j2x_8_auxau.wav,,FALSE,FALSE,,,,,,,,,,,,,,j,0.2855,space,0.6409,,,,,,,,0,56,56,82,1,,
5e08ed25dc265f1e36179f52,2023-06-16_10h06.52.707,phx_ver10,2022.2.5,Win32,59.94125757,,,,,,,,,,,,38,testing_3,zh2sh,e,zh2sh_e,zh2sh_8_eshe.wav,zh2sh_8_eshe.wav,,TRUE,FALSE,,,,,,,,,,,,,,f,0.4717,space,0.7691,,,,,,,,0,57,57,37,1,,
5e08ed25dc265f1e36179f52,2023-06-16_10h06.52.707,phx_ver10,2022.2.5,Win32,59.94125757,,,,,,,,,,,,62,testing_3,zh2j,e,zh2j_e,zh2j_8_eje.wav,zh2j_8_eje.wav,,TRUE,FALSE,,,,,,,,,,,,,,f,0.1144,space,0.5144,,,,,,,,0,58,58,61,1,,
5e08ed25dc265f1e36179f52,2023-06-16_10h06.52.707,phx_ver10,2022.2.5,Win32,59.94125757,,,,,,,,,,,,68,testing_3,zh2j,ei,zh2j_ei,zh2j_8_eijei.wav,zh2j_1_eizhei.wav,,FALSE,FALSE,,,,,,,,,,,,,,f,0.2513,space,0.6147,,,,,,,,0,59,59,67,1,,
5e08ed25dc265f1e36179f52,2023-06-16_10h06.52.707,phx_ver10,2022.2.5,Win32,59.94125757,,,,,,,,,,,,29,testing_3,zh2sh,ai,zh2sh_ai,zh2sh_1_aizhai.wav,zh2sh_1_aizhai.wav,,TRUE,FALSE,,,,,,,,,,,,,,f,0.0902,space,0.6735,,,,,,,,0,60,60,28,1,,
5e08ed25dc265f1e36179f52,2023-06-16_10h06.52.707,phx_ver10,2022.2.5,Win32,59.94125757,,,,,,,,,,,,140,testing_3,sh2j,ei,sh2j_ei,sh2j_8_eijei.wav,sh2j_1_eishei.wav,,FALSE,FALSE,,,,,,,,,,,,,,j,0.4144,space,0.7169,,,,,,,,0,61,61,139,1,,
5e08ed25dc265f1e36179f52,2023-06-16_10h06.52.707,phx_ver10,2022.2.5,Win32,59.94125757,,,,,,,,,,,,116,testing_3,sh2x,ei,sh2x_ei,sh2x_8_eixei.wav,sh2x_1_eishei.wav,,FALSE,FALSE,,,,,,,,,,,,,,f,0.9719,space,1.3291,,,,,,,,0,62,62,115,1,,
5e08ed25dc265f1e36179f52,2023-06-16_10h06.52.707,phx_ver10,2022.2.5,Win32,59.94125757,,,,,,,,,,,,46,testing_3,zh2sh,i,zh2sh_i,zh2sh_8_ishi.wav,zh2sh_8_ishi.wav,,TRUE,FALSE,,,,,,,,,,,,,,f,0.704,space,1.1233,,,,,,,,0,63,63,45,1,,
5e08ed25dc265f1e36179f52,2023-06-16_10h06.52.707,phx_ver10,2022.2.5,Win32,59.94125757,,,,,,,,,,,,63,testing_3,zh2j,e,zh2j_e,zh2j_1_ezhe.wav,zh2j_8_eje.wav,,FALSE,FALSE,,,,,,,,,,,,,,f,1.5929,space,1.9832,,,,,,,,0,64,64,62,1,,
5e08ed25dc265f1e36179f52,2023-06-16_10h06.52.707,phx_ver10,2022.2.5,Win32,59.94125757,,,,,,,,,,,,13,testing_2,zh2x,ai,zh2x_ai,zh2x_1_aizhai.wav,zh2x_1_aizhai.wav,,TRUE,FALSE,,,,,,,,,,,,,,f,2.3022,space,2.6684,,,,,,,,0,65,65,12,1,,
5e08ed25dc265f1e36179f52,2023-06-16_10h06.52.707,phx_ver10,2022.2.5,Win32,59.94125757,,,,,,,,,,,,49,testing_3,zh2j,a,zh2j_a,zh2j_1_azha.wav,zh2j_1_azha.wav,,TRUE,FALSE,,,,,,,,,,,,,,f,0.6331,space,0.9848,,,,,,,,0,66,66,48,1,,
5e08ed25dc265f1e36179f52,2023-06-16_10h06.52.707,phx_ver10,2022.2.5,Win32,59.94125757,,,,,,,,,,,,53,testing_3,zh2j,ai,zh2j_ai,zh2j_1_aizhai.wav,zh2j_1_aizhai.wav,,TRUE,FALSE,,,,,,,,,,,,,,f,0.4204,space,0.6925,,,,,,,,0,67,67,52,1,,
5e08ed25dc265f1e36179f52,2023-06-16_10h06.52.707,phx_ver10,2022.2.5,Win32,59.94125757,,,,,,,,,,,,12,testing_1,zh2x,i,zh2x_i,zh2x_8_ixi.wav,zh2x_1_izhi.wav,,FALSE,TRUE,,,,,,,,,,,,,,f,0.4703,space,0.7915,,,,,,,,0,68,68,11,1,,
5e08ed25dc265f1e36179f52,2023-06-16_10h06.52.707,phx_ver10,2022.2.5,Win32,59.94125757,,,,,,,,,,,,91,testing_3,j2x,ei,j2x_ei,j2x_1_eijei.wav,j2x_8_eixei.wav,,FALSE,FALSE,,,,,,,,,,,,,,j,0.7602,space,1.1364,,,,,,,,0,69,69,90,1,,
5e08ed25dc265f1e36179f52,2023-06-16_10h06.52.707,phx_ver10,2022.2.5,Win32,59.94125757,,,,,,,,,,,,85,testing_3,j2x,e,j2x_e,j2x_1_eje.wav,j2x_1_eje.wav,,TRUE,FALSE,,,,,,,,,,,,,,f,0.954,space,1.3239,,,,,,,,0,70,70,84,1,,
5e08ed25dc265f1e36179f52,2023-06-16_10h06.52.707,phx_ver10,2022.2.5,Win32,59.94125757,,,,,,,,,,,,102,testing_3,sh2x,ai,sh2x_ai,sh2x_8_aixai.wav,sh2x_8_aixai.wav,,TRUE,FALSE,,,,,,,,,,,,,,f,0.7687,space,1.1438,,,,,,,,0,71,71,101,1,,
5e08ed25dc265f1e36179f52,2023-06-16_10h06.52.707,phx_ver10,2022.2.5,Win32,59.94125757,,,,,,,,,,,,125,testing_3,sh2j,ai,sh2j_ai,sh2j_1_aishai.wav,sh2j_1_aishai.wav,,TRUE,FALSE,,,,,,,,,,,,,,f,0.9877,space,1.3781,,,,,,,,0,72,72,124,1,,
5e08ed25dc265f1e36179f52,2023-06-16_10h06.52.707,phx_ver10,2022.2.5,Win32,59.94125757,,,,,,,,,,,,18,testing_2,zh2x,au,zh2x_au,zh2x_8_auxau.wav,zh2x_8_auxau.wav,,TRUE,FALSE,,,,,,,,,,,,,,f,0.0402,space,0.4537,,,,,,,,0,73,73,17,1,,
5e08ed25dc265f1e36179f52,2023-06-16_10h06.52.707,phx_ver10,2022.2.5,Win32,59.94125757,,,,,,,,,,,,17,testing_2,zh2x,au,zh2x_au,zh2x_1_auzhau.wav,zh2x_1_auzhau.wav,,TRUE,FALSE,,,,,,,,,,,,,,f,2.1853,space,2.5519,,,,,,,,0,74,74,16,1,,
5e08ed25dc265f1e36179f52,2023-06-16_10h06.52.707,phx_ver10,2022.2.5,Win32,59.94125757,,,,,,,,,,,,31,testing_3,zh2sh,ai,zh2sh_ai,zh2sh_1_aizhai.wav,zh2sh_8_aishai.wav,,FALSE,FALSE,,,,,,,,,,,,,,f,1.118,space,1.6172,,,,,,,,0,75,75,30,1,,
5e08ed25dc265f1e36179f52,2023-06-16_10h06.52.707,phx_ver10,2022.2.5,Win32,59.94125757,,,,,,,,,,,,138,testing_3,sh2j,ei,sh2j_ei,sh2j_8_eijei.wav,sh2j_8_eijei.wav,,TRUE,FALSE,,,,,,,,,,,,,,f,0.6273,space,1.0058,,,,,,,,0,76,76,137,1,,
5e08ed25dc265f1e36179f52,2023-06-16_10h06.52.707,phx_ver10,2022.2.5,Win32,59.94125757,,,,,,,,,,,,108,testing_3,sh2x,au,sh2x_au,sh2x_8_auxau.wav,sh2x_1_aushau.wav,,FALSE,FALSE,,,,,,,,,,,,,,f,1.3525,space,1.7345,,,,,,,,0,77,77,107,1,,
5e08ed25dc265f1e36179f52,2023-06-16_10h06.52.707,phx_ver10,2022.2.5,Win32,59.94125757,,,,,,,,,,,,136,testing_3,sh2j,e,sh2j_e,sh2j_8_eje.wav,sh2j_1_eshe.wav,,FALSE,FALSE,,,,,,,,,,,,,,f,0.7507,space,1.2178,,,,,,,,0,78,78,135,1,,
5e08ed25dc265f1e36179f52,2023-06-16_10h06.52.707,phx_ver10,2022.2.5,Win32,59.94125757,,,,,,,,,,,,130,testing_3,sh2j,au,sh2j_au,sh2j_8_aujau.wav,sh2j_8_aujau.wav,,TRUE,FALSE,,,,,,,,,,,,,,f,0.6535,space,1.0843,,,,,,,,0,79,79,129,1,,
5e08ed25dc265f1e36179f52,2023-06-16_10h06.52.707,phx_ver10,2022.2.5,Win32,59.94125757,,,,,,,,,,,,86,testing_3,j2x,e,j2x_e,j2x_8_exe.wav,j2x_8_exe.wav,,TRUE,FALSE,,,,,,,,,,,,,,f,0.5166,space,0.7996,,,,,,,,0,80,80,85,1,,
5e08ed25dc265f1e36179f52,2023-06-16_10h06.52.707,phx_ver10,2022.2.5,Win32,59.94125757,,,,,,,,,,,,129,testing_3,sh2j,au,sh2j_au,sh2j_1_aushau.wav,sh2j_1_aushau.wav,,TRUE,FALSE,,,,,,,,,,,,,,f,3.4653,space,3.8881,,,,,,,,0,81,81,128,1,,
5e08ed25dc265f1e36179f52,2023-06-16_10h06.52.707,phx_ver10,2022.2.5,Win32,59.94125757,,,,,,,,,,,,87,testing_3,j2x,e,j2x_e,j2x_1_eje.wav,j2x_8_exe.wav,,FALSE,FALSE,,,,,,,,,,,,,,j,0.201,space,0.5839,,,,,,,,0,82,82,86,1,,
5e08ed25dc265f1e36179f52,2023-06-16_10h06.52.707,phx_ver10,2022.2.5,Win32,59.94125757,,,,,,,,,,,,77,testing_3,j2x,ai,j2x_ai,j2x_1_aijai.wav,j2x_1_aijai.wav,,TRUE,FALSE,,,,,,,,,,,,,,f,0.1866,space,0.7501,,,,,,,,0,83,83,76,1,,
5e08ed25dc265f1e36179f52,2023-06-16_10h06.52.707,phx_ver10,2022.2.5,Win32,59.94125757,,,,,,,,,,,,90,testing_3,j2x,ei,j2x_ei,j2x_8_eixei.wav,j2x_8_eixei.wav,,TRUE,FALSE,,,,,,,,,,,,,,f,1.0533,space,1.6346,,,,,,,,0,84,84,89,1,,
5e08ed25dc265f1e36179f52,2023-06-16_10h06.52.707,phx_ver10,2022.2.5,Win32,59.94125757,,,,,,,,,,,,71,testing_3,zh2j,i,zh2j_i,zh2j_1_izhi.wav,zh2j_8_iji.wav,,FALSE,FALSE,,,,,,,,,,,,,,f,3.6331,space,4.0327,,,,,,,,0,85,85,70,1,,
5e08ed25dc265f1e36179f52,2023-06-16_10h06.52.707,phx_ver10,2022.2.5,Win32,59.94125757,,,,,,,,,,,,122,testing_3,sh2j,a,sh2j_a,sh2j_8_aja.wav,sh2j_8_aja.wav,,TRUE,FALSE,,,,,,,,,,,,,,f,0.0236,space,0.3845,,,,,,,,0,86,86,121,1,,
5e08ed25dc265f1e36179f52,2023-06-16_10h06.52.707,phx_ver10,2022.2.5,Win32,59.94125757,,,,,,,,,,,,56,testing_3,zh2j,ai,zh2j_ai,zh2j_8_aijai.wav,zh2j_1_aizhai.wav,,FALSE,FALSE,,,,,,,,,,,,,,f,0.7818,space,1.3214,,,,,,,,0,87,87,55,1,,
5e08ed25dc265f1e36179f52,2023-06-16_10h06.52.707,phx_ver10,2022.2.5,Win32,59.94125757,,,,,,,,,,,,99,testing_3,sh2x,a,sh2x_a,sh2x_1_asha.wav,sh2x_8_axa.wav,,FALSE,FALSE,,,,,,,,,,,,,,f,1.2386,space,1.6183,,,,,,,,0,88,88,98,1,,
5e08ed25dc265f1e36179f52,2023-06-16_10h06.52.707,phx_ver10,2022.2.5,Win32,59.94125757,,,,,,,,,,,,67,testing_3,zh2j,ei,zh2j_ei,zh2j_1_eizhei.wav,zh2j_8_eijei.wav,,FALSE,FALSE,,,,,,,,,,,,,,f,6.3572,space,6.8341,,,,,,,,0,89,89,66,1,,
5e08ed25dc265f1e36179f52,2023-06-16_10h06.52.707,phx_ver10,2022.2.5,Win32,59.94125757,,,,,,,,,,,,137,testing_3,sh2j,ei,sh2j_ei,sh2j_1_eishei.wav,sh2j_1_eishei.wav,,TRUE,FALSE,,,,,,,,,,,,,,f,0.1522,space,0.5844,,,,,,,,0,90,90,136,1,,
5e08ed25dc265f1e36179f52,2023-06-16_10h06.52.707,phx_ver10,2022.2.5,Win32,59.94125757,,,,,,,,,,,,104,testing_3,sh2x,ai,sh2x_ai,sh2x_8_aixai.wav,sh2x_1_aishai.wav,,FALSE,FALSE,,,,,,,,,,,,,,f,0.1343,space,0.4997,,,,,,,,0,91,91,103,1,,
5e08ed25dc265f1e36179f52,2023-06-16_10h06.52.707,phx_ver10,2022.2.5,Win32,59.94125757,,,,,,,,,,,,28,testing_3,zh2sh,a,zh2sh_a,zh2sh_8_asha.wav,zh2sh_1_azha.wav,,FALSE,FALSE,,,,,,,,,,,,,,j,0.8005,space,1.1663,,,,,,,,0,92,92,27,1,,
5e08ed25dc265f1e36179f52,2023-06-16_10h06.52.707,phx_ver10,2022.2.5,Win32,59.94125757,,,,,,,,,,,,75,testing_3,j2x,a,j2x_a,j2x_1_aja.wav,j2x_8_axa.wav,,FALSE,FALSE,,,,,,,,,,,,,,f,2.2405,space,2.5842,,,,,,,,0,93,93,74,1,,
5e08ed25dc265f1e36179f52,2023-06-16_10h06.52.707,phx_ver10,2022.2.5,Win32,59.94125757,,,,,,,,,,,,74,testing_3,j2x,a,j2x_a,j2x_8_axa.wav,j2x_8_axa.wav,,TRUE,FALSE,,,,,,,,,,,,,,f,0.1223,space,0.4517,,,,,,,,0,94,94,73,1,,
5e08ed25dc265f1e36179f52,2023-06-16_10h06.52.707,phx_ver10,2022.2.5,Win32,59.94125757,,,,,,,,,,,,33,testing_3,zh2sh,au,zh2sh_au,zh2sh_1_auzhau.wav,zh2sh_1_auzhau.wav,,TRUE,FALSE,,,,,,,,,,,,,,f,0.0349,space,0.4514,,,,,,,,0,95,95,32,1,,
5e08ed25dc265f1e36179f52,2023-06-16_10h06.52.707,phx_ver10,2022.2.5,Win32,59.94125757,,,,,,,,,,,,34,testing_3,zh2sh,au,zh2sh_au,zh2sh_8_aushau.wav,zh2sh_8_aushau.wav,,TRUE,FALSE,,,,,,,,,,,,,,f,0.0552,space,0.4178,,,,,,,,0,96,96,33,1,,
5e08ed25dc265f1e36179f52,2023-06-16_10h06.52.707,phx_ver10,2022.2.5,Win32,59.94125757,,,,,,,,,,,,45,testing_3,zh2sh,i,zh2sh_i,zh2sh_1_izhi.wav,zh2sh_1_izhi.wav,,TRUE,FALSE,,,,,,,,,,,,,,f,0.0271,space,0.5867,,,,,,,,0,97,97,44,1,,
5e08ed25dc265f1e36179f52,2023-06-16_10h06.52.707,phx_ver10,2022.2.5,Win32,59.94125757,,,,,,,,,,,,25,testing_3,zh2sh,a,zh2sh_a,zh2sh_1_azha.wav,zh2sh_1_azha.wav,,TRUE,FALSE,,,,,,,,,,,,,,f,0.8575,space,1.2238,,,,,,,,0,98,98,24,1,,
5e08ed25dc265f1e36179f52,2023-06-16_10h06.52.707,phx_ver10,2022.2.5,Win32,59.94125757,,,,,,,,,,,,5,testing_1,zh2x,e,zh2x_e,zh2x_1_ezhe.wav,zh2x_1_ezhe_copy.wav,,TRUE,TRUE,,,,,,,,,,,,,,f,0.1444,space,0.5124,,,,,,,,0,99,99,4,1,,
5e08ed25dc265f1e36179f52,2023-06-16_10h06.52.707,phx_ver10,2022.2.5,Win32,59.94125757,,,,,,,,,,,,103,testing_3,sh2x,ai,sh2x_ai,sh2x_1_aishai.wav,sh2x_8_aixai.wav,,FALSE,FALSE,,,,,,,,,,,,,,f,0.1016,space,0.465,,,,,,,,0,100,100,102,1,,
5e08ed25dc265f1e36179f52,2023-06-16_10h06.52.707,phx_ver10,2022.2.5,Win32,59.94125757,,,,,,,,,,,,7,testing_1,zh2x,e,zh2x_e,zh2x_1_ezhe.wav,zh2x_8_exe.wav,,FALSE,TRUE,,,,,,,,,,,,,,j,0.2809,space,0.6216,,,,,,,,0,101,101,6,1,,
5e08ed25dc265f1e36179f52,2023-06-16_10h06.52.707,phx_ver10,2022.2.5,Win32,59.94125757,,,,,,,,,,,,132,testing_3,sh2j,au,sh2j_au,sh2j_8_aujau.wav,sh2j_1_aushau.wav,,FALSE,FALSE,,,,,,,,,,,,,,j,0.3829,space,0.7326,,,,,,,,0,102,102,131,1,,
5e08ed25dc265f1e36179f52,2023-06-16_10h06.52.707,phx_ver10,2022.2.5,Win32,59.94125757,,,,,,,,,,,,106,testing_3,sh2x,au,sh2x_au,sh2x_8_auxau.wav,sh2x_8_auxau.wav,,TRUE,FALSE,,,,,,,,,,,,,,f,0.0679,space,0.336,,,,,,,,0,103,103,105,1,,
5e08ed25dc265f1e36179f52,2023-06-16_10h06.52.707,phx_ver10,2022.2.5,Win32,59.94125757,,,,,,,,,,,,84,testing_3,j2x,au,j2x_au,j2x_8_auxau.wav,j2x_1_aujau.wav,,FALSE,FALSE,,,,,,,,,,,,,,j,0.3844,space,0.718,,,,,,,,0,104,104,83,1,,
5e08ed25dc265f1e36179f52,2023-06-16_10h06.52.707,phx_ver10,2022.2.5,Win32,59.94125757,,,,,,,,,,,,36,testing_3,zh2sh,au,zh2sh_au,zh2sh_8_aushau.wav,zh2sh_1_auzhau.wav,,FALSE,FALSE,,,,,,,,,,,,,,j,0.4161,space,0.7186,,,,,,,,0,105,105,35,1,,
5e08ed25dc265f1e36179f52,2023-06-16_10h06.52.707,phx_ver10,2022.2.5,Win32,59.94125757,,,,,,,,,,,,11,testing_1,zh2x,i,zh2x_i,zh2x_1_izhi.wav,zh2x_8_ixi.wav,,FALSE,TRUE,,,,,,,,,,,,,,j,0.1017,space,0.4234,,,,,,,,0,106,106,10,1,,
5e08ed25dc265f1e36179f52,2023-06-16_10h06.52.707,phx_ver10,2022.2.5,Win32,59.94125757,,,,,,,,,,,,72,testing_3,zh2j,i,zh2j_i,zh2j_8_iji.wav,zh2j_1_izhi.wav,,FALSE,FALSE,,,,,,,,,,,,,,f,0.4123,space,0.7659,,,,,,,,0,107,107,71,1,,
5e08ed25dc265f1e36179f52,2023-06-16_10h06.52.707,phx_ver10,2022.2.5,Win32,59.94125757,,,,,,,,,,,,96,testing_3,j2x,i,j2x_i,j2x_8_ixi.wav,j2x_1_iji.wav,,FALSE,FALSE,,,,,,,,,,,,,,j,0.4407,space,0.7553,,,,,,,,0,108,108,95,1,,
5e08ed25dc265f1e36179f52,2023-06-16_10h06.52.707,phx_ver10,2022.2.5,Win32,59.94125757,,,,,,,,,,,,64,testing_3,zh2j,e,zh2j_e,zh2j_8_eje.wav,zh2j_1_ezhe.wav,,FALSE,FALSE,,,,,,,,,,,,,,j,4.8526,space,5.219,,,,,,,,0,109,109,63,1,,
5e08ed25dc265f1e36179f52,2023-06-16_10h06.52.707,phx_ver10,2022.2.5,Win32,59.94125757,,,,,,,,,,,,65,testing_3,zh2j,ei,zh2j_ei,zh2j_1_eizhei.wav,zh2j_1_eizhei.wav,,TRUE,FALSE,,,,,,,,,,,,,,f,2.5413,space,2.9341,,,,,,,,0,110,110,64,1,,
5e08ed25dc265f1e36179f52,2023-06-16_10h06.52.707,phx_ver10,2022.2.5,Win32,59.94125757,,,,,,,,,,,,109,testing_3,sh2x,e,sh2x_e,sh2x_1_eshe.wav,sh2x_1_eshe.wav,,TRUE,FALSE,,,,,,,,,,,,,,f,2.9598,space,3.3025,,,,,,,,0,111,111,108,1,,
5e08ed25dc265f1e36179f52,2023-06-16_10h06.52.707,phx_ver10,2022.2.5,Win32,59.94125757,,,,,,,,,,,,52,testing_3,zh2j,a,zh2j_a,zh2j_8_aja.wav,zh2j_1_azha.wav,,FALSE,FALSE,,,,,,,,,,,,,,f,1.7127,space,2.0135,,,,,,,,0,112,112,51,1,,
5e08ed25dc265f1e36179f52,2023-06-16_10h06.52.707,phx_ver10,2022.2.5,Win32,59.94125757,,,,,,,,,,,,54,testing_3,zh2j,ai,zh2j_ai,zh2j_8_aijai.wav,zh2j_8_aijai.wav,,TRUE,FALSE,,,,,,,,,,,,,,f,0.2015,space,0.5198,,,,,,,,0,113,113,53,1,,
5e08ed25dc265f1e36179f52,2023-06-16_10h06.52.707,phx_ver10,2022.2.5,Win32,59.94125757,,,,,,,,,,,,47,testing_3,zh2sh,i,zh2sh_i,zh2sh_1_izhi.wav,zh2sh_8_ishi.wav,,FALSE,FALSE,,,,,,,,,,,,,,j,0.6901,space,1.0205,,,,,,,,0,114,114,46,1,,
5e08ed25dc265f1e36179f52,2023-06-16_10h06.52.707,phx_ver10,2022.2.5,Win32,59.94125757,,,,,,,,,,,,88,testing_3,j2x,e,j2x_e,j2x_8_exe.wav,j2x_1_eje.wav,,FALSE,FALSE,,,,,,,,,,,,,,j,0.5422,space,0.8525,,,,,,,,0,115,115,87,1,,
5e08ed25dc265f1e36179f52,2023-06-16_10h06.52.707,phx_ver10,2022.2.5,Win32,59.94125757,,,,,,,,,,,,133,testing_3,sh2j,e,sh2j_e,sh2j_1_eshe.wav,sh2j_1_eshe.wav,,TRUE,FALSE,,,,,,,,,,,,,,f,0.1013,space,0.5839,,,,,,,,0,116,116,132,1,,
5e08ed25dc265f1e36179f52,2023-06-16_10h06.52.707,phx_ver10,2022.2.5,Win32,59.94125757,,,,,,,,,,,,131,testing_3,sh2j,au,sh2j_au,sh2j_1_aushau.wav,sh2j_8_aujau.wav,,FALSE,FALSE,,,,,,,,,,,,,,j,0.5247,space,0.8531,,,,,,,,0,117,117,130,1,,
5e08ed25dc265f1e36179f52,2023-06-16_10h06.52.707,phx_ver10,2022.2.5,Win32,59.94125757,,,,,,,,,,,,126,testing_3,sh2j,ai,sh2j_ai,sh2j_8_aijai.wav,sh2j_8_aijai.wav,,TRUE,FALSE,,,,,,,,,,,,,,f,0.5879,space,0.8849,,,,,,,,0,118,118,125,1,,
5e08ed25dc265f1e36179f52,2023-06-16_10h06.52.707,phx_ver10,2022.2.5,Win32,59.94125757,,,,,,,,,,,,19,testing_2,zh2x,au,zh2x_au,zh2x_1_auzhau.wav,zh2x_8_auxau.wav,,FALSE,FALSE,,,,,,,,,,,,,,j,0.286,space,0.4562,,,,,,,,0,119,119,18,1,,
5e08ed25dc265f1e36179f52,2023-06-16_10h06.52.707,phx_ver10,2022.2.5,Win32,59.94125757,,,,,,,,,,,,60,testing_3,zh2j,au,zh2j_au,zh2j_8_aujau.wav,zh2j_1_auzhau.wav,,FALSE,FALSE,,,,,,,,,,,,,,f,0.101,space,0.4743,,,,,,,,0,120,120,59,1,,
5e08ed25dc265f1e36179f52,2023-06-16_10h06.52.707,phx_ver10,2022.2.5,Win32,59.94125757,,,,,,,,,,,,135,testing_3,sh2j,e,sh2j_e,sh2j_1_eshe.wav,sh2j_8_eje.wav,,FALSE,FALSE,,,,,,,,,,,,,,f,1.3661,space,1.6664,,,,,,,,0,121,121,134,1,,
5e08ed25dc265f1e36179f52,2023-06-16_10h06.52.707,phx_ver10,2022.2.5,Win32,59.94125757,,,,,,,,,,,,55,testing_3,zh2j,ai,zh2j_ai,zh2j_1_aizhai.wav,zh2j_8_aijai.wav,,FALSE,FALSE,,,,,,,,,,,,,,f,0.2698,space,0.5666,,,,,,,,0,122,122,54,1,,
5e08ed25dc265f1e36179f52,2023-06-16_10h06.52.707,phx_ver10,2022.2.5,Win32,59.94125757,,,,,,,,,,,,117,testing_3,sh2x,i,sh2x_i,sh2x_1_ishi.wav,sh2x_1_ishi.wav,,TRUE,FALSE,,,,,,,,,,,,,,f,0.4359,space,0.7222,,,,,,,,0,123,123,116,1,,
5e08ed25dc265f1e36179f52,2023-06-16_10h06.52.707,phx_ver10,2022.2.5,Win32,59.94125757,,,,,,,,,,,,51,testing_3,zh2j,a,zh2j_a,zh2j_1_azha.wav,zh2j_8_aja.wav,,FALSE,FALSE,,,,,,,,,,,,,,f,0.6205,space,0.8993,,,,,,,,0,124,124,50,1,,
5e08ed25dc265f1e36179f52,2023-06-16_10h06.52.707,phx_ver10,2022.2.5,Win32,59.94125757,,,,,,,,,,,,73,testing_3,j2x,a,j2x_a,j2x_1_aja.wav,j2x_1_aja.wav,,TRUE,FALSE,,,,,,,,,,,,,,f,0.468,space,0.7755,,,,,,,,0,125,125,72,1,,
5e08ed25dc265f1e36179f52,2023-06-16_10h06.52.707,phx_ver10,2022.2.5,Win32,59.94125757,,,,,,,,,,,,44,testing_3,zh2sh,ei,zh2sh_ei,zh2sh_8_eishei.wav,zh2sh_1_eizhei.wav,,FALSE,FALSE,,,,,,,,,,,,,,f,0.401,space,0.7232,,,,,,,,0,126,126,43,1,,
5e08ed25dc265f1e36179f52,2023-06-16_10h06.52.707,phx_ver10,2022.2.5,Win32,59.94125757,,,,,,,,,,,,142,testing_3,sh2j,i,sh2j_i,sh2j_8_iji.wav,sh2j_8_iji.wav,,TRUE,FALSE,,,,,,,,,,,,,,f,0.9386,space,1.8839,,,,,,,,0,127,127,141,1,,
5e08ed25dc265f1e36179f52,2023-06-16_10h06.52.707,phx_ver10,2022.2.5,Win32,59.94125757,,,,,,,,,,,,101,testing_3,sh2x,ai,sh2x_ai,sh2x_1_aishai.wav,sh2x_1_aishai.wav,,TRUE,FALSE,,,,,,,,,,,,,,f,1.0019,space,1.3193,,,,,,,,0,128,128,100,1,,
5e08ed25dc265f1e36179f52,2023-06-16_10h06.52.707,phx_ver10,2022.2.5,Win32,59.94125757,,,,,,,,,,,,112,testing_3,sh2x,e,sh2x_e,sh2x_8_exe.wav,sh2x_1_eshe.wav,,FALSE,FALSE,,,,,,,,,,,,,,f,1.3849,space,1.6856,,,,,,,,0,129,129,111,1,,
5e08ed25dc265f1e36179f52,2023-06-16_10h06.52.707,phx_ver10,2022.2.5,Win32,59.94125757,,,,,,,,,,,,92,testing_3,j2x,ei,j2x_ei,j2x_8_eixei.wav,j2x_1_eijei.wav,,FALSE,FALSE,,,,,,,,,,,,,,f,1.0014,space,1.4023,,,,,,,,0,130,130,91,1,,
5e08ed25dc265f1e36179f52,2023-06-16_10h06.52.707,phx_ver10,2022.2.5,Win32,59.94125757,,,,,,,,,,,,134,testing_3,sh2j,e,sh2j_e,sh2j_8_eje.wav,sh2j_8_eje.wav,,TRUE,FALSE,,,,,,,,,,,,,,f,0.3188,space,0.7529,,,,,,,,0,131,131,133,1,,
5e08ed25dc265f1e36179f52,2023-06-16_10h06.52.707,phx_ver10,2022.2.5,Win32,59.94125757,,,,,,,,,,,,119,testing_3,sh2x,i,sh2x_i,sh2x_1_ishi.wav,sh2x_8_ixi.wav,,FALSE,FALSE,,,,,,,,,,,,,,f,0.2183,space,0.5806,,,,,,,,0,132,132,118,1,,
5e08ed25dc265f1e36179f52,2023-06-16_10h06.52.707,phx_ver10,2022.2.5,Win32,59.94125757,,,,,,,,,,,,82,testing_3,j2x,au,j2x_au,j2x_8_auxau.wav,j2x_8_auxau.wav,,TRUE,FALSE,,,,,,,,,,,,,,f,2.5177,space,2.8618,,,,,,,,0,133,133,81,1,,
5e08ed25dc265f1e36179f52,2023-06-16_10h06.52.707,phx_ver10,2022.2.5,Win32,59.94125757,,,,,,,,,,,,113,testing_3,sh2x,ei,sh2x_ei,sh2x_1_eishei.wav,sh2x_1_eishei.wav,,TRUE,FALSE,,,,,,,,,,,,,,f,0.3553,space,0.7008,,,,,,,,0,134,134,112,1,,
5e08ed25dc265f1e36179f52,2023-06-16_10h06.52.707,phx_ver10,2022.2.5,Win32,59.94125757,,,,,,,,,,,,14,testing_2,zh2x,ai,zh2x_ai,zh2x_8_aixai.wav,zh2x_8_aixai.wav,,TRUE,FALSE,,,,,,,,,,,,,,f,2.5826,space,2.8583,,,,,,,,0,135,135,13,1,,
5e08ed25dc265f1e36179f52,2023-06-16_10h06.52.707,phx_ver10,2022.2.5,Win32,59.94125757,,,,,,,,,,,,114,testing_3,sh2x,ei,sh2x_ei,sh2x_8_eixei.wav,sh2x_8_eixei.wav,,TRUE,FALSE,,,,,,,,,,,,,,f,6.6702,space,6.9734,,,,,,,,0,136,136,113,1,,
5e08ed25dc265f1e36179f52,2023-06-16_10h06.52.707,phx_ver10,2022.2.5,Win32,59.94125757,,,,,,,,,,,,26,testing_3,zh2sh,a,zh2sh_a,zh2sh_8_asha.wav,zh2sh_8_asha.wav,,TRUE,FALSE,,,,,,,,,,,,,,f,2.6247,space,3.0066,,,,,,,,0,137,137,25,1,,
5e08ed25dc265f1e36179f52,2023-06-16_10h06.52.707,phx_ver10,2022.2.5,Win32,59.94125757,,,,,,,,,,,,79,testing_3,j2x,ai,j2x_ai,j2x_1_aijai.wav,j2x_8_aixai.wav,,FALSE,FALSE,,,,,,,,,,,,,,f,1.6918,space,2.0579,,,,,,,,0,138,138,78,1,,
5e08ed25dc265f1e36179f52,2023-06-16_10h06.52.707,phx_ver10,2022.2.5,Win32,59.94125757,,,,,,,,,,,,139,testing_3,sh2j,ei,sh2j_ei,sh2j_1_eishei.wav,sh2j_8_eijei.wav,,FALSE,FALSE,,,,,,,,,,,,,,f,3.6356,space,3.9902,,,,,,,,0,139,139,138,1,,
5e08ed25dc265f1e36179f52,2023-06-16_10h06.52.707,phx_ver10,2022.2.5,Win32,59.94125757,,,,,,,,,,,,111,testing_3,sh2x,e,sh2x_e,sh2x_1_eshe.wav,sh2x_8_exe.wav,,FALSE,FALSE,,,,,,,,,,,,,,f,2.4538,space,2.8209,,,,,,,,0,140,140,110,1,,
5e08ed25dc265f1e36179f52,2023-06-16_10h06.52.707,phx_ver10,2022.2.5,Win32,59.94125757,,,,,,,,,,,,1,testing_1,zh2x,a,zh2x_a,zh2x_1_azha.wav,zh2x_1_azha_copy.wav,,TRUE,TRUE,,,,,,,,,,,,,,f,1.4862,space,1.9166,,,,,,,,0,141,141,0,1,,
5e08ed25dc265f1e36179f52,2023-06-16_10h06.52.707,phx_ver10,2022.2.5,Win32,59.94125757,,,,,,,,,,,,23,testing_2,zh2x,ei,zh2x_ei,zh2x_1_eizhei.wav,zh2x_8_eixei.wav,,FALSE,FALSE,,,,,,,,,,,,,,f,15.0678,space,15.4026,,,,,,,,0,142,142,22,1,,
5e08ed25dc265f1e36179f52,2023-06-16_10h06.52.707,phx_ver10,2022.2.5,Win32,59.94125757,,,,,,,,,,,,110,testing_3,sh2x,e,sh2x_e,sh2x_8_exe.wav,sh2x_8_exe.wav,,TRUE,FALSE,,,,,,,,,,,,,,f,0.269,space,0.6823,,,,,,,,0,143,143,109,1,,
5e08ed25dc265f1e36179f52,2023-06-16_10h06.52.707,phx_ver10,2022.2.5,Win32,59.94125757,,,,,,,,,,,,,,,,,,,,,,,,,,,,,,,,,,,,,,,,,,,,,,,,,,,space,2.003
