participant,date,expName,psychopyVersion,OS,frameRate,space_1.keys,space_1.rt,space_2.keys,space_2.rt,space_train.keys,space_train.rt,training.thisRepN,training.thisTrialN,training.thisN,training.thisIndex,training.ran,token_id,task,continuum,vowel,series,sound_1,sound_2,img,same,trained,FJ_attn.keys,FJ_attn.rt,space_attn.keys,space_attn.rt,if_attn_test.thisRepN,if_attn_test.thisTrialN,if_attn_test.thisN,if_attn_test.thisIndex,if_attn_test.ran,space_trans_1.keys,space_trans_1.rt,space_trans_11.keys,space_trans_11.rt,FJ_test.keys,FJ_test.rt,space_test.keys,space_test.rt,testing_pre.thisRepN,testing_pre.thisTrialN,testing_pre.thisN,testing_pre.thisIndex,testing_pre.ran,space_trans_2.keys,space_trans_2.rt,testing_all.thisRepN,testing_all.thisTrialN,testing_all.thisN,testing_all.thisIndex,testing_all.ran,space_ending.keys,space_ending.rt
5e363914b3f2835e3ae5cc62,2023-06-16_05h28.09.685,phx_ver10,2022.2.5,Win32,59.08070424,,,,,,,,,,,,,,,,,,,,,,,,,,,,,,,,,,,,,,,,,,,,,,,,,,,,
5e363914b3f2835e3ae5cc62,2023-06-16_05h28.09.685,phx_ver10,2022.2.5,Win32,59.08070424,space,3.3092,,,,,,,,,,,,,,,,,,,,,,,,,,,,,,,,,,,,,,,,,,,,,,,,,,
5e363914b3f2835e3ae5cc62,2023-06-16_05h28.09.685,phx_ver10,2022.2.5,Win32,59.08070424,,,space,1.5677,,,,,,,,,,,,,,,,,,,,,,,,,,,,,,,,,,,,,,,,,,,,,,,,
5e363914b3f2835e3ae5cc62,2023-06-16_05h28.09.685,phx_ver10,2022.2.5,Win32,59.08070424,,,,,space,1.8168,0,0,0,33,1,34,training,zh2x,i,zh2x_i,zh2x_2_izhi.wav,,izhi.jpg,,,,,,,,,,,,,,,,,,,,,,,,,,,,,,,,,
5e363914b3f2835e3ae5cc62,2023-06-16_05h28.09.685,phx_ver10,2022.2.5,Win32,59.08070424,,,,,space,1.8173,0,1,1,43,1,44,training,zh2x,i,zh2x_i,zh2x_7_ixi.wav,,ixi.jpg,,,,,,,,,,,,,,,,,,,,,,,,,,,,,,,,,
5e363914b3f2835e3ae5cc62,2023-06-16_05h28.09.685,phx_ver10,2022.2.5,Win32,59.08070424,,,,,space,1.0672,0,2,2,9,1,10,training,zh2x,a,zh2x_a,zh2x_6_axa.wav,,axa.jpg,,,,,,,,,,,,,,,,,,,,,,,,,,,,,,,,,
5e363914b3f2835e3ae5cc62,2023-06-16_05h28.09.685,phx_ver10,2022.2.5,Win32,59.08070424,,,,,space,0.5338,0,3,3,7,1,8,training,zh2x,a,zh2x_a,zh2x_4_azha.wav,,azha.jpg,,,,,,,,,,,,,,,,,,,,,,,,,,,,,,,,,
5e363914b3f2835e3ae5cc62,2023-06-16_05h28.09.685,phx_ver10,2022.2.5,Win32,59.08070424,,,,,space,0.7009,0,4,4,17,1,18,training,zh2x,e,zh2x_e,zh2x_2_ezhe.wav,,ezhe.jpg,,,,,,,,,,,,,,,,,,,,,,,,,,,,,,,,,
5e363914b3f2835e3ae5cc62,2023-06-16_05h28.09.685,phx_ver10,2022.2.5,Win32,59.08070424,,,,,space,0.2179,0,5,5,32,1,33,training,zh2x,i,zh2x_i,zh2x_1_izhi.wav,,izhi.jpg,,,,,,,,,,,,,,,,,,,,,,,,,,,,,,,,,
5e363914b3f2835e3ae5cc62,2023-06-16_05h28.09.685,phx_ver10,2022.2.5,Win32,59.08070424,,,,,,,,,,,,,attn_test,,,,zh2x_8_axa.wav,zh2x_8_ixi.wav,axa.jpg,LEFT,,f,11.6991,space,15.1485,0,0,0,0,1,,,,,,,,,,,,,,,,,,,,,,
5e363914b3f2835e3ae5cc62,2023-06-16_05h28.09.685,phx_ver10,2022.2.5,Win32,59.08070424,,,,,space,0.7587,0,6,6,15,1,16,training,zh2x,a,zh2x_a,zh2x_8_axa.wav,,axa.jpg,,,,,,,,,,,,,,,,,,,,,,,,,,,,,,,,,
5e363914b3f2835e3ae5cc62,2023-06-16_05h28.09.685,phx_ver10,2022.2.5,Win32,59.08070424,,,,,space,0.4548,0,7,7,45,1,46,training,zh2x,i,zh2x_i,zh2x_7_ixi.wav,,ixi.jpg,,,,,,,,,,,,,,,,,,,,,,,,,,,,,,,,,
5e363914b3f2835e3ae5cc62,2023-06-16_05h28.09.685,phx_ver10,2022.2.5,Win32,59.08070424,,,,,space,0.2847,0,8,8,16,1,17,training,zh2x,e,zh2x_e,zh2x_1_ezhe.wav,,ezhe.jpg,,,,,,,,,,,,,,,,,,,,,,,,,,,,,,,,,
5e363914b3f2835e3ae5cc62,2023-06-16_05h28.09.685,phx_ver10,2022.2.5,Win32,59.08070424,,,,,space,0.8633,0,9,9,2,1,3,training,zh2x,a,zh2x_a,zh2x_2_azha.wav,,azha.jpg,,,,,,,,,,,,,,,,,,,,,,,,,,,,,,,,,
5e363914b3f2835e3ae5cc62,2023-06-16_05h28.09.685,phx_ver10,2022.2.5,Win32,59.08070424,,,,,space,0.1344,0,10,10,12,1,13,training,zh2x,a,zh2x_a,zh2x_7_axa.wav,,axa.jpg,,,,,,,,,,,,,,,,,,,,,,,,,,,,,,,,,
5e363914b3f2835e3ae5cc62,2023-06-16_05h28.09.685,phx_ver10,2022.2.5,Win32,59.08070424,,,,,space,0.5887,0,11,11,47,1,48,training,zh2x,i,zh2x_i,zh2x_8_ixi.wav,,ixi.jpg,,,,,,,,,,,,,,,,,,,,,,,,,,,,,,,,,
5e363914b3f2835e3ae5cc62,2023-06-16_05h28.09.685,phx_ver10,2022.2.5,Win32,59.08070424,,,,,,,,,,,,,attn_test,,,,zh2x_1_izhi.wav,zh2x_1_azha.wav,azha.jpg,RIGHT,,f,1.1677,space,2.6509,0,0,0,0,1,,,,,,,,,,,,,,,,,,,,,,
5e363914b3f2835e3ae5cc62,2023-06-16_05h28.09.685,phx_ver10,2022.2.5,Win32,59.08070424,,,,,space,0.7427,0,12,12,44,1,45,training,zh2x,i,zh2x_i,zh2x_7_ixi.wav,,ixi.jpg,,,,,,,,,,,,,,,,,,,,,,,,,,,,,,,,,
5e363914b3f2835e3ae5cc62,2023-06-16_05h28.09.685,phx_ver10,2022.2.5,Win32,59.08070424,,,,,space,0.8343,0,13,13,11,1,12,training,zh2x,a,zh2x_a,zh2x_7_axa.wav,,axa.jpg,,,,,,,,,,,,,,,,,,,,,,,,,,,,,,,,,
5e363914b3f2835e3ae5cc62,2023-06-16_05h28.09.685,phx_ver10,2022.2.5,Win32,59.08070424,,,,,space,0.2648,0,14,14,0,1,1,training,zh2x,a,zh2x_a,zh2x_1_azha.wav,,azha.jpg,,,,,,,,,,,,,,,,,,,,,,,,,,,,,,,,,
5e363914b3f2835e3ae5cc62,2023-06-16_05h28.09.685,phx_ver10,2022.2.5,Win32,59.08070424,,,,,space,0.6709,0,15,15,40,1,41,training,zh2x,i,zh2x_i,zh2x_5_ixi.wav,,ixi.jpg,,,,,,,,,,,,,,,,,,,,,,,,,,,,,,,,,
5e363914b3f2835e3ae5cc62,2023-06-16_05h28.09.685,phx_ver10,2022.2.5,Win32,59.08070424,,,,,space,0.6146,0,16,16,4,1,5,training,zh2x,a,zh2x_a,zh2x_2_azha.wav,,azha.jpg,,,,,,,,,,,,,,,,,,,,,,,,,,,,,,,,,
5e363914b3f2835e3ae5cc62,2023-06-16_05h28.09.685,phx_ver10,2022.2.5,Win32,59.08070424,,,,,space,0.1838,0,17,17,13,1,14,training,zh2x,a,zh2x_a,zh2x_7_axa.wav,,axa.jpg,,,,,,,,,,,,,,,,,,,,,,,,,,,,,,,,,
5e363914b3f2835e3ae5cc62,2023-06-16_05h28.09.685,phx_ver10,2022.2.5,Win32,59.08070424,,,,,,,,,,,,,attn_test,,,,zh2x_1_ezhe.wav,zh2x_1_azha.wav,azha.jpg,RIGHT,,j,2.0531,space,3.0177,0,0,0,0,1,,,,,,,,,,,,,,,,,,,,,,
5e363914b3f2835e3ae5cc62,2023-06-16_05h28.09.685,phx_ver10,2022.2.5,Win32,59.08070424,,,,,space,0.4809,0,18,18,14,1,15,training,zh2x,a,zh2x_a,zh2x_7_axa.wav,,axa.jpg,,,,,,,,,,,,,,,,,,,,,,,,,,,,,,,,,
5e363914b3f2835e3ae5cc62,2023-06-16_05h28.09.685,phx_ver10,2022.2.5,Win32,59.08070424,,,,,space,0.6241,0,19,19,34,1,35,training,zh2x,i,zh2x_i,zh2x_2_izhi.wav,,izhi.jpg,,,,,,,,,,,,,,,,,,,,,,,,,,,,,,,,,
5e363914b3f2835e3ae5cc62,2023-06-16_05h28.09.685,phx_ver10,2022.2.5,Win32,59.08070424,,,,,space,0.4684,0,20,20,36,1,37,training,zh2x,i,zh2x_i,zh2x_2_izhi.wav,,izhi.jpg,,,,,,,,,,,,,,,,,,,,,,,,,,,,,,,,,
5e363914b3f2835e3ae5cc62,2023-06-16_05h28.09.685,phx_ver10,2022.2.5,Win32,59.08070424,,,,,space,0.7048,0,21,21,18,1,19,training,zh2x,e,zh2x_e,zh2x_2_ezhe.wav,,ezhe.jpg,,,,,,,,,,,,,,,,,,,,,,,,,,,,,,,,,
5e363914b3f2835e3ae5cc62,2023-06-16_05h28.09.685,phx_ver10,2022.2.5,Win32,59.08070424,,,,,space,0.3842,0,22,22,39,1,40,training,zh2x,i,zh2x_i,zh2x_4_izhi.wav,,izhi.jpg,,,,,,,,,,,,,,,,,,,,,,,,,,,,,,,,,
5e363914b3f2835e3ae5cc62,2023-06-16_05h28.09.685,phx_ver10,2022.2.5,Win32,59.08070424,,,,,space,0.7009,0,23,23,42,1,43,training,zh2x,i,zh2x_i,zh2x_6_ixi.wav,,ixi.jpg,,,,,,,,,,,,,,,,,,,,,,,,,,,,,,,,,
5e363914b3f2835e3ae5cc62,2023-06-16_05h28.09.685,phx_ver10,2022.2.5,Win32,59.08070424,,,,,,,,,,,,,attn_test,,,,zh2x_8_axa.wav,zh2x_1_izhi.wav,axa.jpg,LEFT,,j,1.0673,space,2.2902,0,0,0,0,1,,,,,,,,,,,,,,,,,,,,,,
5e363914b3f2835e3ae5cc62,2023-06-16_05h28.09.685,phx_ver10,2022.2.5,Win32,59.08070424,,,,,space,0.634,0,24,24,31,1,32,training,zh2x,e,zh2x_e,zh2x_8_exe.wav,,exe.jpg,,,,,,,,,,,,,,,,,,,,,,,,,,,,,,,,,
5e363914b3f2835e3ae5cc62,2023-06-16_05h28.09.685,phx_ver10,2022.2.5,Win32,59.08070424,,,,,space,1.1174,0,25,25,25,1,26,training,zh2x,e,zh2x_e,zh2x_6_exe.wav,,exe.jpg,,,,,,,,,,,,,,,,,,,,,,,,,,,,,,,,,
5e363914b3f2835e3ae5cc62,2023-06-16_05h28.09.685,phx_ver10,2022.2.5,Win32,59.08070424,,,,,space,0.4203,0,26,26,27,1,28,training,zh2x,e,zh2x_e,zh2x_7_exe.wav,,exe.jpg,,,,,,,,,,,,,,,,,,,,,,,,,,,,,,,,,
5e363914b3f2835e3ae5cc62,2023-06-16_05h28.09.685,phx_ver10,2022.2.5,Win32,59.08070424,,,,,space,0.439,0,27,27,24,1,25,training,zh2x,e,zh2x_e,zh2x_5_exe.wav,,exe.jpg,,,,,,,,,,,,,,,,,,,,,,,,,,,,,,,,,
5e363914b3f2835e3ae5cc62,2023-06-16_05h28.09.685,phx_ver10,2022.2.5,Win32,59.08070424,,,,,space,0.6989,0,28,28,30,1,31,training,zh2x,e,zh2x_e,zh2x_7_exe.wav,,exe.jpg,,,,,,,,,,,,,,,,,,,,,,,,,,,,,,,,,
5e363914b3f2835e3ae5cc62,2023-06-16_05h28.09.685,phx_ver10,2022.2.5,Win32,59.08070424,,,,,space,0.5388,0,29,29,37,1,38,training,zh2x,i,zh2x_i,zh2x_3_izhi.wav,,izhi.jpg,,,,,,,,,,,,,,,,,,,,,,,,,,,,,,,,,
5e363914b3f2835e3ae5cc62,2023-06-16_05h28.09.685,phx_ver10,2022.2.5,Win32,59.08070424,,,,,,,,,,,,,attn_test,,,,zh2x_8_exe.wav,zh2x_1_ezhe.wav,exe.jpg,LEFT,,f,0.8337,space,1.617,0,0,0,0,1,,,,,,,,,,,,,,,,,,,,,,
5e363914b3f2835e3ae5cc62,2023-06-16_05h28.09.685,phx_ver10,2022.2.5,Win32,59.08070424,,,,,space,0.4881,0,30,30,46,1,47,training,zh2x,i,zh2x_i,zh2x_7_ixi.wav,,ixi.jpg,,,,,,,,,,,,,,,,,,,,,,,,,,,,,,,,,
5e363914b3f2835e3ae5cc62,2023-06-16_05h28.09.685,phx_ver10,2022.2.5,Win32,59.08070424,,,,,space,0.4672,0,31,31,29,1,30,training,zh2x,e,zh2x_e,zh2x_7_exe.wav,,exe.jpg,,,,,,,,,,,,,,,,,,,,,,,,,,,,,,,,,
5e363914b3f2835e3ae5cc62,2023-06-16_05h28.09.685,phx_ver10,2022.2.5,Win32,59.08070424,,,,,space,0.4538,0,32,32,10,1,11,training,zh2x,a,zh2x_a,zh2x_6_axa.wav,,axa.jpg,,,,,,,,,,,,,,,,,,,,,,,,,,,,,,,,,
5e363914b3f2835e3ae5cc62,2023-06-16_05h28.09.685,phx_ver10,2022.2.5,Win32,59.08070424,,,,,space,1.0344,0,33,33,21,1,22,training,zh2x,e,zh2x_e,zh2x_3_ezhe.wav,,ezhe.jpg,,,,,,,,,,,,,,,,,,,,,,,,,,,,,,,,,
5e363914b3f2835e3ae5cc62,2023-06-16_05h28.09.685,phx_ver10,2022.2.5,Win32,59.08070424,,,,,space,0.5215,0,34,34,28,1,29,training,zh2x,e,zh2x_e,zh2x_7_exe.wav,,exe.jpg,,,,,,,,,,,,,,,,,,,,,,,,,,,,,,,,,
5e363914b3f2835e3ae5cc62,2023-06-16_05h28.09.685,phx_ver10,2022.2.5,Win32,59.08070424,,,,,space,0.3347,0,35,35,41,1,42,training,zh2x,i,zh2x_i,zh2x_6_ixi.wav,,ixi.jpg,,,,,,,,,,,,,,,,,,,,,,,,,,,,,,,,,
5e363914b3f2835e3ae5cc62,2023-06-16_05h28.09.685,phx_ver10,2022.2.5,Win32,59.08070424,,,,,,,,,,,,,attn_test,,,,zh2x_1_azha.wav,zh2x_8_axa.wav,axa.jpg,RIGHT,,j,0.168,space,0.8843,0,0,0,0,1,,,,,,,,,,,,,,,,,,,,,,
5e363914b3f2835e3ae5cc62,2023-06-16_05h28.09.685,phx_ver10,2022.2.5,Win32,59.08070424,,,,,space,0.5349,0,36,36,5,1,6,training,zh2x,a,zh2x_a,zh2x_3_azha.wav,,azha.jpg,,,,,,,,,,,,,,,,,,,,,,,,,,,,,,,,,
5e363914b3f2835e3ae5cc62,2023-06-16_05h28.09.685,phx_ver10,2022.2.5,Win32,59.08070424,,,,,space,0.5933,0,37,37,20,1,21,training,zh2x,e,zh2x_e,zh2x_2_ezhe.wav,,ezhe.jpg,,,,,,,,,,,,,,,,,,,,,,,,,,,,,,,,,
5e363914b3f2835e3ae5cc62,2023-06-16_05h28.09.685,phx_ver10,2022.2.5,Win32,59.08070424,,,,,space,0.6349,0,38,38,8,1,9,training,zh2x,a,zh2x_a,zh2x_5_axa.wav,,axa.jpg,,,,,,,,,,,,,,,,,,,,,,,,,,,,,,,,,
5e363914b3f2835e3ae5cc62,2023-06-16_05h28.09.685,phx_ver10,2022.2.5,Win32,59.08070424,,,,,space,0.4661,0,39,39,23,1,24,training,zh2x,e,zh2x_e,zh2x_4_ezhe.wav,,ezhe.jpg,,,,,,,,,,,,,,,,,,,,,,,,,,,,,,,,,
5e363914b3f2835e3ae5cc62,2023-06-16_05h28.09.685,phx_ver10,2022.2.5,Win32,59.08070424,,,,,space,0.4674,0,40,40,1,1,2,training,zh2x,a,zh2x_a,zh2x_2_azha.wav,,azha.jpg,,,,,,,,,,,,,,,,,,,,,,,,,,,,,,,,,
5e363914b3f2835e3ae5cc62,2023-06-16_05h28.09.685,phx_ver10,2022.2.5,Win32,59.08070424,,,,,space,0.1175,0,41,41,6,1,7,training,zh2x,a,zh2x_a,zh2x_3_azha.wav,,azha.jpg,,,,,,,,,,,,,,,,,,,,,,,,,,,,,,,,,
5e363914b3f2835e3ae5cc62,2023-06-16_05h28.09.685,phx_ver10,2022.2.5,Win32,59.08070424,,,,,,,,,,,,,attn_test,,,,zh2x_8_axa.wav,zh2x_1_azha.wav,azha.jpg,RIGHT,,f,0.1871,space,0.7683,0,0,0,0,1,,,,,,,,,,,,,,,,,,,,,,
5e363914b3f2835e3ae5cc62,2023-06-16_05h28.09.685,phx_ver10,2022.2.5,Win32,59.08070424,,,,,space,0.568,0,42,42,22,1,23,training,zh2x,e,zh2x_e,zh2x_3_ezhe.wav,,ezhe.jpg,,,,,,,,,,,,,,,,,,,,,,,,,,,,,,,,,
5e363914b3f2835e3ae5cc62,2023-06-16_05h28.09.685,phx_ver10,2022.2.5,Win32,59.08070424,,,,,space,0.4364,0,43,43,38,1,39,training,zh2x,i,zh2x_i,zh2x_3_izhi.wav,,izhi.jpg,,,,,,,,,,,,,,,,,,,,,,,,,,,,,,,,,
5e363914b3f2835e3ae5cc62,2023-06-16_05h28.09.685,phx_ver10,2022.2.5,Win32,59.08070424,,,,,space,0.8004,0,44,44,3,1,4,training,zh2x,a,zh2x_a,zh2x_2_azha.wav,,azha.jpg,,,,,,,,,,,,,,,,,,,,,,,,,,,,,,,,,
5e363914b3f2835e3ae5cc62,2023-06-16_05h28.09.685,phx_ver10,2022.2.5,Win32,59.08070424,,,,,space,2.1872,0,45,45,35,1,36,training,zh2x,i,zh2x_i,zh2x_2_izhi.wav,,izhi.jpg,,,,,,,,,,,,,,,,,,,,,,,,,,,,,,,,,
5e363914b3f2835e3ae5cc62,2023-06-16_05h28.09.685,phx_ver10,2022.2.5,Win32,59.08070424,,,,,space,0.3211,0,46,46,19,1,20,training,zh2x,e,zh2x_e,zh2x_2_ezhe.wav,,ezhe.jpg,,,,,,,,,,,,,,,,,,,,,,,,,,,,,,,,,
5e363914b3f2835e3ae5cc62,2023-06-16_05h28.09.685,phx_ver10,2022.2.5,Win32,59.08070424,,,,,space,1.0561,0,47,47,26,1,27,training,zh2x,e,zh2x_e,zh2x_6_exe.wav,,exe.jpg,,,,,,,,,,,,,,,,,,,,,,,,,,,,,,,,,
5e363914b3f2835e3ae5cc62,2023-06-16_05h28.09.685,phx_ver10,2022.2.5,Win32,59.08070424,,,,,,,,,,,,,attn_test,,,,zh2x_8_exe.wav,zh2x_1_izhi.wav,izhi.jpg,RIGHT,,j,1.2505,space,1.6172,,,,,,,,,,,,,,,,,,,,,,,,,,,
5e363914b3f2835e3ae5cc62,2023-06-16_05h28.09.685,phx_ver10,2022.2.5,Win32,59.08070424,,,,,,,,,,,,,,,,,,,,,,,,,,,,,,,space,0.0294,,,,,,,,,,,,,,,,,,,,
5e363914b3f2835e3ae5cc62,2023-06-16_05h28.09.685,phx_ver10,2022.2.5,Win32,59.08070424,,,,,,,,,,,,,,,,,,,,,,,,,,,,,,,,,space,0.5806,,,,,,,,,,,,,,,,,,
5e363914b3f2835e3ae5cc62,2023-06-16_05h28.09.685,phx_ver10,2022.2.5,Win32,59.08070424,,,,,,,,,,,,1,testing_pre,,,,ifi.wav,ifi.wav,,TRUE,,,,,,,,,,,,,,,f,2.7138,space,3.4957,0,0,0,0,1,,,,,,,,,
5e363914b3f2835e3ae5cc62,2023-06-16_05h28.09.685,phx_ver10,2022.2.5,Win32,59.08070424,,,,,,,,,,,,5,testing_pre,,,,ihi.wav,ifi.wav,,FALSE,,,,,,,,,,,,,,,f,2.6844,space,3.8178,0,1,1,4,1,,,,,,,,,
5e363914b3f2835e3ae5cc62,2023-06-16_05h28.09.685,phx_ver10,2022.2.5,Win32,59.08070424,,,,,,,,,,,,4,testing_pre,,,,eihei.wav,eihei.wav,,TRUE,,,,,,,,,,,,,,,f,0.4505,space,1.3542,0,2,2,3,1,,,,,,,,,
5e363914b3f2835e3ae5cc62,2023-06-16_05h28.09.685,phx_ver10,2022.2.5,Win32,59.08070424,,,,,,,,,,,,2,testing_pre,,,,auhau.wav,aufau.wav,,FALSE,,,,,,,,,,,,,,,j,0.0008,space,0.5677,0,3,3,1,1,,,,,,,,,
5e363914b3f2835e3ae5cc62,2023-06-16_05h28.09.685,phx_ver10,2022.2.5,Win32,59.08070424,,,,,,,,,,,,3,testing_pre,,,,afa.wav,aha.wav,,FALSE,,,,,,,,,,,,,,,f,1.3674,space,1.7674,0,4,4,2,1,,,,,,,,,
5e363914b3f2835e3ae5cc62,2023-06-16_05h28.09.685,phx_ver10,2022.2.5,Win32,59.08070424,,,,,,,,,,,,,,,,,,,,,,,,,,,,,,,,,,,,,,,,,,,,space,0.8242,,,,,,,
5e363914b3f2835e3ae5cc62,2023-06-16_05h28.09.685,phx_ver10,2022.2.5,Win32,59.08070424,,,,,,,,,,,,130,testing_3,sh2j,au,sh2j_au,sh2j_8_aujau.wav,sh2j_8_aujau.wav,,TRUE,FALSE,,,,,,,,,,,,,,f,0.084,space,1.0517,,,,,,,,0,0,0,129,1,,
5e363914b3f2835e3ae5cc62,2023-06-16_05h28.09.685,phx_ver10,2022.2.5,Win32,59.08070424,,,,,,,,,,,,53,testing_3,zh2j,ai,zh2j_ai,zh2j_1_aizhai.wav,zh2j_1_aizhai.wav,,TRUE,FALSE,,,,,,,,,,,,,,f,0.1549,space,0.7344,,,,,,,,0,1,1,52,1,,
5e363914b3f2835e3ae5cc62,2023-06-16_05h28.09.685,phx_ver10,2022.2.5,Win32,59.08070424,,,,,,,,,,,,94,testing_3,j2x,i,j2x_i,j2x_8_ixi.wav,j2x_8_ixi.wav,,TRUE,FALSE,,,,,,,,,,,,,,f,0.4748,space,1.285,,,,,,,,0,2,2,93,1,,
5e363914b3f2835e3ae5cc62,2023-06-16_05h28.09.685,phx_ver10,2022.2.5,Win32,59.08070424,,,,,,,,,,,,84,testing_3,j2x,au,j2x_au,j2x_8_auxau.wav,j2x_1_aujau.wav,,FALSE,FALSE,,,,,,,,,,,,,,f,1.0182,space,1.7236,,,,,,,,0,3,3,83,1,,
5e363914b3f2835e3ae5cc62,2023-06-16_05h28.09.685,phx_ver10,2022.2.5,Win32,59.08070424,,,,,,,,,,,,86,testing_3,j2x,e,j2x_e,j2x_8_exe.wav,j2x_8_exe.wav,,TRUE,FALSE,,,,,,,,,,,,,,f,2.8187,space,3.5838,,,,,,,,0,4,4,85,1,,
5e363914b3f2835e3ae5cc62,2023-06-16_05h28.09.685,phx_ver10,2022.2.5,Win32,59.08070424,,,,,,,,,,,,143,testing_3,sh2j,i,sh2j_i,sh2j_1_ishi.wav,sh2j_8_iji.wav,,FALSE,FALSE,,,,,,,,,,,,,,f,0.9035,space,1.8524,,,,,,,,0,5,5,142,1,,
5e363914b3f2835e3ae5cc62,2023-06-16_05h28.09.685,phx_ver10,2022.2.5,Win32,59.08070424,,,,,,,,,,,,27,testing_3,zh2sh,a,zh2sh_a,zh2sh_1_azha.wav,zh2sh_8_asha.wav,,FALSE,FALSE,,,,,,,,,,,,,,f,0.0864,space,0.6389,,,,,,,,0,6,6,26,1,,
5e363914b3f2835e3ae5cc62,2023-06-16_05h28.09.685,phx_ver10,2022.2.5,Win32,59.08070424,,,,,,,,,,,,90,testing_3,j2x,ei,j2x_ei,j2x_8_eixei.wav,j2x_8_eixei.wav,,TRUE,FALSE,,,,,,,,,,,,,,f,0.318,space,1.0745,,,,,,,,0,7,7,89,1,,
5e363914b3f2835e3ae5cc62,2023-06-16_05h28.09.685,phx_ver10,2022.2.5,Win32,59.08070424,,,,,,,,,,,,88,testing_3,j2x,e,j2x_e,j2x_8_exe.wav,j2x_1_eje.wav,,FALSE,FALSE,,,,,,,,,,,,,,f,0.3949,space,0.9613,,,,,,,,0,8,8,87,1,,
5e363914b3f2835e3ae5cc62,2023-06-16_05h28.09.685,phx_ver10,2022.2.5,Win32,59.08070424,,,,,,,,,,,,19,testing_2,zh2x,au,zh2x_au,zh2x_1_auzhau.wav,zh2x_8_auxau.wav,,FALSE,FALSE,,,,,,,,,,,,,,f,0.4037,space,0.9717,,,,,,,,0,9,9,18,1,,
5e363914b3f2835e3ae5cc62,2023-06-16_05h28.09.685,phx_ver10,2022.2.5,Win32,59.08070424,,,,,,,,,,,,126,testing_3,sh2j,ai,sh2j_ai,sh2j_8_aijai.wav,sh2j_8_aijai.wav,,TRUE,FALSE,,,,,,,,,,,,,,f,0.8322,space,3.6998,,,,,,,,0,10,10,125,1,,
5e363914b3f2835e3ae5cc62,2023-06-16_05h28.09.685,phx_ver10,2022.2.5,Win32,59.08070424,,,,,,,,,,,,78,testing_3,j2x,ai,j2x_ai,j2x_8_aixai.wav,j2x_8_aixai.wav,,TRUE,FALSE,,,,,,,,,,,,,,f,0.7173,space,1.6337,,,,,,,,0,11,11,77,1,,
5e363914b3f2835e3ae5cc62,2023-06-16_05h28.09.685,phx_ver10,2022.2.5,Win32,59.08070424,,,,,,,,,,,,39,testing_3,zh2sh,e,zh2sh_e,zh2sh_1_ezhe.wav,zh2sh_8_eshe.wav,,FALSE,FALSE,,,,,,,,,,,,,,f,0.4507,space,1.1175,,,,,,,,0,12,12,38,1,,
5e363914b3f2835e3ae5cc62,2023-06-16_05h28.09.685,phx_ver10,2022.2.5,Win32,59.08070424,,,,,,,,,,,,65,testing_3,zh2j,ei,zh2j_ei,zh2j_1_eizhei.wav,zh2j_1_eizhei.wav,,TRUE,FALSE,,,,,,,,,,,,,,f,0.0379,space,0.7508,,,,,,,,0,13,13,64,1,,
5e363914b3f2835e3ae5cc62,2023-06-16_05h28.09.685,phx_ver10,2022.2.5,Win32,59.08070424,,,,,,,,,,,,3,testing_1,zh2x,a,zh2x_a,zh2x_1_azha.wav,zh2x_8_axa.wav,,FALSE,TRUE,,,,,,,,,,,,,,f,0.5245,space,1.3534,,,,,,,,0,14,14,2,1,,
5e363914b3f2835e3ae5cc62,2023-06-16_05h28.09.685,phx_ver10,2022.2.5,Win32,59.08070424,,,,,,,,,,,,67,testing_3,zh2j,ei,zh2j_ei,zh2j_1_eizhei.wav,zh2j_8_eijei.wav,,FALSE,FALSE,,,,,,,,,,,,,,f,0.3401,space,0.7176,,,,,,,,0,15,15,66,1,,
5e363914b3f2835e3ae5cc62,2023-06-16_05h28.09.685,phx_ver10,2022.2.5,Win32,59.08070424,,,,,,,,,,,,44,testing_3,zh2sh,ei,zh2sh_ei,zh2sh_8_eishei.wav,zh2sh_1_eizhei.wav,,FALSE,FALSE,,,,,,,,,,,,,,j,0.5186,space,1.1509,,,,,,,,0,16,16,43,1,,
5e363914b3f2835e3ae5cc62,2023-06-16_05h28.09.685,phx_ver10,2022.2.5,Win32,59.08070424,,,,,,,,,,,,74,testing_3,j2x,a,j2x_a,j2x_8_axa.wav,j2x_8_axa.wav,,TRUE,FALSE,,,,,,,,,,,,,,f,0.5232,space,1.3318,,,,,,,,0,17,17,73,1,,
5e363914b3f2835e3ae5cc62,2023-06-16_05h28.09.685,phx_ver10,2022.2.5,Win32,59.08070424,,,,,,,,,,,,42,testing_3,zh2sh,ei,zh2sh_ei,zh2sh_8_eishei.wav,zh2sh_8_eishei.wav,,TRUE,FALSE,,,,,,,,,,,,,,f,0.5343,space,1.2347,,,,,,,,0,18,18,41,1,,
5e363914b3f2835e3ae5cc62,2023-06-16_05h28.09.685,phx_ver10,2022.2.5,Win32,59.08070424,,,,,,,,,,,,23,testing_2,zh2x,ei,zh2x_ei,zh2x_1_eizhei.wav,zh2x_8_eixei.wav,,FALSE,FALSE,,,,,,,,,,,,,,f,0.4394,space,1.0903,,,,,,,,0,19,19,22,1,,
5e363914b3f2835e3ae5cc62,2023-06-16_05h28.09.685,phx_ver10,2022.2.5,Win32,59.08070424,,,,,,,,,,,,73,testing_3,j2x,a,j2x_a,j2x_1_aja.wav,j2x_1_aja.wav,,TRUE,FALSE,,,,,,,,,,,,,,f,0.5577,space,1.1193,,,,,,,,0,20,20,72,1,,
5e363914b3f2835e3ae5cc62,2023-06-16_05h28.09.685,phx_ver10,2022.2.5,Win32,59.08070424,,,,,,,,,,,,121,testing_3,sh2j,a,sh2j_a,sh2j_1_asha.wav,sh2j_1_asha.wav,,TRUE,FALSE,,,,,,,,,,,,,,f,0.4172,space,1.4332,,,,,,,,0,21,21,120,1,,
5e363914b3f2835e3ae5cc62,2023-06-16_05h28.09.685,phx_ver10,2022.2.5,Win32,59.08070424,,,,,,,,,,,,138,testing_3,sh2j,ei,sh2j_ei,sh2j_8_eijei.wav,sh2j_8_eijei.wav,,TRUE,FALSE,,,,,,,,,,,,,,f,0.2505,space,0.8839,,,,,,,,0,22,22,137,1,,
5e363914b3f2835e3ae5cc62,2023-06-16_05h28.09.685,phx_ver10,2022.2.5,Win32,59.08070424,,,,,,,,,,,,10,testing_1,zh2x,i,zh2x_i,zh2x_8_ixi.wav,zh2x_8_ixi_copy.wav,,TRUE,TRUE,,,,,,,,,,,,,,j,2.584,space,3.0673,,,,,,,,0,23,23,9,1,,
5e363914b3f2835e3ae5cc62,2023-06-16_05h28.09.685,phx_ver10,2022.2.5,Win32,59.08070424,,,,,,,,,,,,79,testing_3,j2x,ai,j2x_ai,j2x_1_aijai.wav,j2x_8_aixai.wav,,FALSE,FALSE,,,,,,,,,,,,,,f,0.4178,space,0.8671,,,,,,,,0,24,24,78,1,,
5e363914b3f2835e3ae5cc62,2023-06-16_05h28.09.685,phx_ver10,2022.2.5,Win32,59.08070424,,,,,,,,,,,,66,testing_3,zh2j,ei,zh2j_ei,zh2j_8_eijei.wav,zh2j_8_eijei.wav,,TRUE,FALSE,,,,,,,,,,,,,,f,0.1656,space,0.7022,,,,,,,,0,25,25,65,1,,
5e363914b3f2835e3ae5cc62,2023-06-16_05h28.09.685,phx_ver10,2022.2.5,Win32,59.08070424,,,,,,,,,,,,20,testing_2,zh2x,au,zh2x_au,zh2x_8_auxau.wav,zh2x_1_auzhau.wav,,FALSE,FALSE,,,,,,,,,,,,,,f,0.3675,space,0.8837,,,,,,,,0,26,26,19,1,,
5e363914b3f2835e3ae5cc62,2023-06-16_05h28.09.685,phx_ver10,2022.2.5,Win32,59.08070424,,,,,,,,,,,,21,testing_2,zh2x,ei,zh2x_ei,zh2x_1_eizhei.wav,zh2x_1_eizhei.wav,,TRUE,FALSE,,,,,,,,,,,,,,f,0.2843,space,0.7184,,,,,,,,0,27,27,20,1,,
5e363914b3f2835e3ae5cc62,2023-06-16_05h28.09.685,phx_ver10,2022.2.5,Win32,59.08070424,,,,,,,,,,,,102,testing_3,sh2x,ai,sh2x_ai,sh2x_8_aixai.wav,sh2x_8_aixai.wav,,TRUE,FALSE,,,,,,,,,,,,,,f,0.4178,space,0.8175,,,,,,,,0,28,28,101,1,,
5e363914b3f2835e3ae5cc62,2023-06-16_05h28.09.685,phx_ver10,2022.2.5,Win32,59.08070424,,,,,,,,,,,,99,testing_3,sh2x,a,sh2x_a,sh2x_1_asha.wav,sh2x_8_axa.wav,,FALSE,FALSE,,,,,,,,,,,,,,j,1.1005,space,1.5082,,,,,,,,0,29,29,98,1,,
5e363914b3f2835e3ae5cc62,2023-06-16_05h28.09.685,phx_ver10,2022.2.5,Win32,59.08070424,,,,,,,,,,,,123,testing_3,sh2j,a,sh2j_a,sh2j_1_asha.wav,sh2j_8_aja.wav,,FALSE,FALSE,,,,,,,,,,,,,,j,0.1512,space,0.5379,,,,,,,,0,30,30,122,1,,
5e363914b3f2835e3ae5cc62,2023-06-16_05h28.09.685,phx_ver10,2022.2.5,Win32,59.08070424,,,,,,,,,,,,47,testing_3,zh2sh,i,zh2sh_i,zh2sh_1_izhi.wav,zh2sh_8_ishi.wav,,FALSE,FALSE,,,,,,,,,,,,,,f,0.2177,space,0.6008,,,,,,,,0,31,31,46,1,,
5e363914b3f2835e3ae5cc62,2023-06-16_05h28.09.685,phx_ver10,2022.2.5,Win32,59.08070424,,,,,,,,,,,,51,testing_3,zh2j,a,zh2j_a,zh2j_1_azha.wav,zh2j_8_aja.wav,,FALSE,FALSE,,,,,,,,,,,,,,f,0.1699,space,0.5342,,,,,,,,0,32,32,50,1,,
5e363914b3f2835e3ae5cc62,2023-06-16_05h28.09.685,phx_ver10,2022.2.5,Win32,59.08070424,,,,,,,,,,,,107,testing_3,sh2x,au,sh2x_au,sh2x_1_aushau.wav,sh2x_8_auxau.wav,,FALSE,FALSE,,,,,,,,,,,,,,f,0.1175,space,0.4754,,,,,,,,0,33,33,106,1,,
5e363914b3f2835e3ae5cc62,2023-06-16_05h28.09.685,phx_ver10,2022.2.5,Win32,59.08070424,,,,,,,,,,,,76,testing_3,j2x,a,j2x_a,j2x_8_axa.wav,j2x_1_aja.wav,,FALSE,FALSE,,,,,,,,,,,,,,f,0.2173,space,0.5701,,,,,,,,0,34,34,75,1,,
5e363914b3f2835e3ae5cc62,2023-06-16_05h28.09.685,phx_ver10,2022.2.5,Win32,59.08070424,,,,,,,,,,,,131,testing_3,sh2j,au,sh2j_au,sh2j_1_aushau.wav,sh2j_8_aujau.wav,,FALSE,FALSE,,,,,,,,,,,,,,f,0.1507,space,0.5341,,,,,,,,0,35,35,130,1,,
5e363914b3f2835e3ae5cc62,2023-06-16_05h28.09.685,phx_ver10,2022.2.5,Win32,59.08070424,,,,,,,,,,,,136,testing_3,sh2j,e,sh2j_e,sh2j_8_eje.wav,sh2j_1_eshe.wav,,FALSE,FALSE,,,,,,,,,,,,,,f,0.4083,space,0.6709,,,,,,,,0,36,36,135,1,,
5e363914b3f2835e3ae5cc62,2023-06-16_05h28.09.685,phx_ver10,2022.2.5,Win32,59.08070424,,,,,,,,,,,,113,testing_3,sh2x,ei,sh2x_ei,sh2x_1_eishei.wav,sh2x_1_eishei.wav,,TRUE,FALSE,,,,,,,,,,,,,,f,0.0511,space,0.3512,,,,,,,,0,37,37,112,1,,
5e363914b3f2835e3ae5cc62,2023-06-16_05h28.09.685,phx_ver10,2022.2.5,Win32,59.08070424,,,,,,,,,,,,100,testing_3,sh2x,a,sh2x_a,sh2x_8_axa.wav,sh2x_1_asha.wav,,FALSE,FALSE,,,,,,,,,,,,,,f,0.0915,space,0.4507,,,,,,,,0,38,38,99,1,,
5e363914b3f2835e3ae5cc62,2023-06-16_05h28.09.685,phx_ver10,2022.2.5,Win32,59.08070424,,,,,,,,,,,,106,testing_3,sh2x,au,sh2x_au,sh2x_8_auxau.wav,sh2x_8_auxau.wav,,TRUE,FALSE,,,,,,,,,,,,,,f,0.384,space,0.7003,,,,,,,,0,39,39,105,1,,
5e363914b3f2835e3ae5cc62,2023-06-16_05h28.09.685,phx_ver10,2022.2.5,Win32,59.08070424,,,,,,,,,,,,87,testing_3,j2x,e,j2x_e,j2x_1_eje.wav,j2x_8_exe.wav,,FALSE,FALSE,,,,,,,,,,,,,,f,0.0339,space,0.4006,,,,,,,,0,40,40,86,1,,
5e363914b3f2835e3ae5cc62,2023-06-16_05h28.09.685,phx_ver10,2022.2.5,Win32,59.08070424,,,,,,,,,,,,108,testing_3,sh2x,au,sh2x_au,sh2x_8_auxau.wav,sh2x_1_aushau.wav,,FALSE,FALSE,,,,,,,,,,,,,,f,0.0676,space,0.3841,,,,,,,,0,41,41,107,1,,
5e363914b3f2835e3ae5cc62,2023-06-16_05h28.09.685,phx_ver10,2022.2.5,Win32,59.08070424,,,,,,,,,,,,112,testing_3,sh2x,e,sh2x_e,sh2x_8_exe.wav,sh2x_1_eshe.wav,,FALSE,FALSE,,,,,,,,,,,,,,f,0.2878,space,0.5834,,,,,,,,0,42,42,111,1,,
5e363914b3f2835e3ae5cc62,2023-06-16_05h28.09.685,phx_ver10,2022.2.5,Win32,59.08070424,,,,,,,,,,,,24,testing_2,zh2x,ei,zh2x_ei,zh2x_8_eixei.wav,zh2x_1_eizhei.wav,,FALSE,FALSE,,,,,,,,,,,,,,j,0.5341,space,0.9055,,,,,,,,0,43,43,23,1,,
5e363914b3f2835e3ae5cc62,2023-06-16_05h28.09.685,phx_ver10,2022.2.5,Win32,59.08070424,,,,,,,,,,,,101,testing_3,sh2x,ai,sh2x_ai,sh2x_1_aishai.wav,sh2x_1_aishai.wav,,TRUE,FALSE,,,,,,,,,,,,,,f,0.4067,space,0.8008,,,,,,,,0,44,44,100,1,,
5e363914b3f2835e3ae5cc62,2023-06-16_05h28.09.685,phx_ver10,2022.2.5,Win32,59.08070424,,,,,,,,,,,,64,testing_3,zh2j,e,zh2j_e,zh2j_8_eje.wav,zh2j_1_ezhe.wav,,FALSE,FALSE,,,,,,,,,,,,,,f,0.0894,space,0.403,,,,,,,,0,45,45,63,1,,
5e363914b3f2835e3ae5cc62,2023-06-16_05h28.09.685,phx_ver10,2022.2.5,Win32,59.08070424,,,,,,,,,,,,134,testing_3,sh2j,e,sh2j_e,sh2j_8_eje.wav,sh2j_8_eje.wav,,TRUE,FALSE,,,,,,,,,,,,,,f,0.1723,space,0.5405,,,,,,,,0,46,46,133,1,,
5e363914b3f2835e3ae5cc62,2023-06-16_05h28.09.685,phx_ver10,2022.2.5,Win32,59.08070424,,,,,,,,,,,,98,testing_3,sh2x,a,sh2x_a,sh2x_8_axa.wav,sh2x_8_axa.wav,,TRUE,FALSE,,,,,,,,,,,,,,f,0.1672,space,0.5584,,,,,,,,0,47,47,97,1,,
5e363914b3f2835e3ae5cc62,2023-06-16_05h28.09.685,phx_ver10,2022.2.5,Win32,59.08070424,,,,,,,,,,,,125,testing_3,sh2j,ai,sh2j_ai,sh2j_1_aishai.wav,sh2j_1_aishai.wav,,TRUE,FALSE,,,,,,,,,,,,,,f,0.3343,space,0.6679,,,,,,,,0,48,48,124,1,,
5e363914b3f2835e3ae5cc62,2023-06-16_05h28.09.685,phx_ver10,2022.2.5,Win32,59.08070424,,,,,,,,,,,,34,testing_3,zh2sh,au,zh2sh_au,zh2sh_8_aushau.wav,zh2sh_8_aushau.wav,,TRUE,FALSE,,,,,,,,,,,,,,f,0.369,space,0.6724,,,,,,,,0,49,49,33,1,,
5e363914b3f2835e3ae5cc62,2023-06-16_05h28.09.685,phx_ver10,2022.2.5,Win32,59.08070424,,,,,,,,,,,,89,testing_3,j2x,ei,j2x_ei,j2x_1_eijei.wav,j2x_1_eijei.wav,,TRUE,FALSE,,,,,,,,,,,,,,j,0.3173,space,0.6999,,,,,,,,0,50,50,88,1,,
5e363914b3f2835e3ae5cc62,2023-06-16_05h28.09.685,phx_ver10,2022.2.5,Win32,59.08070424,,,,,,,,,,,,4,testing_1,zh2x,a,zh2x_a,zh2x_8_axa.wav,zh2x_1_azha.wav,,FALSE,TRUE,,,,,,,,,,,,,,j,0.3371,space,0.7505,,,,,,,,0,51,51,3,1,,
5e363914b3f2835e3ae5cc62,2023-06-16_05h28.09.685,phx_ver10,2022.2.5,Win32,59.08070424,,,,,,,,,,,,75,testing_3,j2x,a,j2x_a,j2x_1_aja.wav,j2x_8_axa.wav,,FALSE,FALSE,,,,,,,,,,,,,,j,0.2026,space,0.641,,,,,,,,0,52,52,74,1,,
5e363914b3f2835e3ae5cc62,2023-06-16_05h28.09.685,phx_ver10,2022.2.5,Win32,59.08070424,,,,,,,,,,,,93,testing_3,j2x,i,j2x_i,j2x_1_iji.wav,j2x_1_iji.wav,,TRUE,FALSE,,,,,,,,,,,,,,f,1.9675,space,2.4012,,,,,,,,0,53,53,92,1,,
5e363914b3f2835e3ae5cc62,2023-06-16_05h28.09.685,phx_ver10,2022.2.5,Win32,59.08070424,,,,,,,,,,,,15,testing_2,zh2x,ai,zh2x_ai,zh2x_1_aizhai.wav,zh2x_8_aixai.wav,,FALSE,FALSE,,,,,,,,,,,,,,f,0.6338,space,1.1007,,,,,,,,0,54,54,14,1,,
5e363914b3f2835e3ae5cc62,2023-06-16_05h28.09.685,phx_ver10,2022.2.5,Win32,59.08070424,,,,,,,,,,,,103,testing_3,sh2x,ai,sh2x_ai,sh2x_1_aishai.wav,sh2x_8_aixai.wav,,FALSE,FALSE,,,,,,,,,,,,,,j,1.2335,space,1.6051,,,,,,,,0,55,55,102,1,,
5e363914b3f2835e3ae5cc62,2023-06-16_05h28.09.685,phx_ver10,2022.2.5,Win32,59.08070424,,,,,,,,,,,,22,testing_2,zh2x,ei,zh2x_ei,zh2x_8_eixei.wav,zh2x_8_eixei.wav,,TRUE,FALSE,,,,,,,,,,,,,,f,0.1335,space,0.4339,,,,,,,,0,56,56,21,1,,
5e363914b3f2835e3ae5cc62,2023-06-16_05h28.09.685,phx_ver10,2022.2.5,Win32,59.08070424,,,,,,,,,,,,114,testing_3,sh2x,ei,sh2x_ei,sh2x_8_eixei.wav,sh2x_8_eixei.wav,,TRUE,FALSE,,,,,,,,,,,,,,f,0.2005,space,0.5005,,,,,,,,0,57,57,113,1,,
5e363914b3f2835e3ae5cc62,2023-06-16_05h28.09.685,phx_ver10,2022.2.5,Win32,59.08070424,,,,,,,,,,,,97,testing_3,sh2x,a,sh2x_a,sh2x_1_asha.wav,sh2x_1_asha.wav,,TRUE,FALSE,,,,,,,,,,,,,,f,0.3066,space,0.6838,,,,,,,,0,58,58,96,1,,
5e363914b3f2835e3ae5cc62,2023-06-16_05h28.09.685,phx_ver10,2022.2.5,Win32,59.08070424,,,,,,,,,,,,5,testing_1,zh2x,e,zh2x_e,zh2x_1_ezhe.wav,zh2x_1_ezhe_copy.wav,,TRUE,TRUE,,,,,,,,,,,,,,f,0.1671,space,0.4714,,,,,,,,0,59,59,4,1,,
5e363914b3f2835e3ae5cc62,2023-06-16_05h28.09.685,phx_ver10,2022.2.5,Win32,59.08070424,,,,,,,,,,,,8,testing_1,zh2x,e,zh2x_e,zh2x_8_exe.wav,zh2x_1_ezhe.wav,,FALSE,TRUE,,,,,,,,,,,,,,j,0.0699,space,0.4339,,,,,,,,0,60,60,7,1,,
5e363914b3f2835e3ae5cc62,2023-06-16_05h28.09.685,phx_ver10,2022.2.5,Win32,59.08070424,,,,,,,,,,,,2,testing_1,zh2x,a,zh2x_a,zh2x_8_axa.wav,zh2x_8_axa_copy.wav,,TRUE,TRUE,,,,,,,,,,,,,,f,0.7166,space,1.0556,,,,,,,,0,61,61,1,1,,
5e363914b3f2835e3ae5cc62,2023-06-16_05h28.09.685,phx_ver10,2022.2.5,Win32,59.08070424,,,,,,,,,,,,35,testing_3,zh2sh,au,zh2sh_au,zh2sh_1_auzhau.wav,zh2sh_8_aushau.wav,,FALSE,FALSE,,,,,,,,,,,,,,j,0.6853,space,0.7752,,,,,,,,0,62,62,34,1,,
5e363914b3f2835e3ae5cc62,2023-06-16_05h28.09.685,phx_ver10,2022.2.5,Win32,59.08070424,,,,,,,,,,,,57,testing_3,zh2j,au,zh2j_au,zh2j_1_auzhau.wav,zh2j_1_auzhau.wav,,TRUE,FALSE,,,,,,,,,,,,,,f,0.2724,space,0.6173,,,,,,,,0,63,63,56,1,,
5e363914b3f2835e3ae5cc62,2023-06-16_05h28.09.685,phx_ver10,2022.2.5,Win32,59.08070424,,,,,,,,,,,,81,testing_3,j2x,au,j2x_au,j2x_1_aujau.wav,j2x_1_aujau.wav,,TRUE,FALSE,,,,,,,,,,,,,,f,0.0221,space,0.3841,,,,,,,,0,64,64,80,1,,
5e363914b3f2835e3ae5cc62,2023-06-16_05h28.09.685,phx_ver10,2022.2.5,Win32,59.08070424,,,,,,,,,,,,140,testing_3,sh2j,ei,sh2j_ei,sh2j_8_eijei.wav,sh2j_1_eishei.wav,,FALSE,FALSE,,,,,,,,,,,,,,f,0.0676,space,0.4187,,,,,,,,0,65,65,139,1,,
5e363914b3f2835e3ae5cc62,2023-06-16_05h28.09.685,phx_ver10,2022.2.5,Win32,59.08070424,,,,,,,,,,,,118,testing_3,sh2x,i,sh2x_i,sh2x_8_ixi.wav,sh2x_8_ixi.wav,,TRUE,FALSE,,,,,,,,,,,,,,f,0.1512,space,0.458,,,,,,,,0,66,66,117,1,,
5e363914b3f2835e3ae5cc62,2023-06-16_05h28.09.685,phx_ver10,2022.2.5,Win32,59.08070424,,,,,,,,,,,,61,testing_3,zh2j,e,zh2j_e,zh2j_1_ezhe.wav,zh2j_1_ezhe.wav,,TRUE,FALSE,,,,,,,,,,,,,,f,0.3178,space,0.6342,,,,,,,,0,67,67,60,1,,
5e363914b3f2835e3ae5cc62,2023-06-16_05h28.09.685,phx_ver10,2022.2.5,Win32,59.08070424,,,,,,,,,,,,43,testing_3,zh2sh,ei,zh2sh_ei,zh2sh_1_eizhei.wav,zh2sh_8_eishei.wav,,FALSE,FALSE,,,,,,,,,,,,,,f,0.1842,space,0.5338,,,,,,,,0,68,68,42,1,,
5e363914b3f2835e3ae5cc62,2023-06-16_05h28.09.685,phx_ver10,2022.2.5,Win32,59.08070424,,,,,,,,,,,,133,testing_3,sh2j,e,sh2j_e,sh2j_1_eshe.wav,sh2j_1_eshe.wav,,TRUE,FALSE,,,,,,,,,,,,,,f,0.0507,space,1.1078,,,,,,,,0,69,69,132,1,,
5e363914b3f2835e3ae5cc62,2023-06-16_05h28.09.685,phx_ver10,2022.2.5,Win32,59.08070424,,,,,,,,,,,,128,testing_3,sh2j,ai,sh2j_ai,sh2j_8_aijai.wav,sh2j_1_aishai.wav,,FALSE,FALSE,,,,,,,,,,,,,,f,0.1851,space,0.4682,,,,,,,,0,70,70,127,1,,
5e363914b3f2835e3ae5cc62,2023-06-16_05h28.09.685,phx_ver10,2022.2.5,Win32,59.08070424,,,,,,,,,,,,141,testing_3,sh2j,i,sh2j_i,sh2j_1_ishi.wav,sh2j_1_ishi.wav,,TRUE,FALSE,,,,,,,,,,,,,,j,1.1729,space,1.5355,,,,,,,,0,71,71,140,1,,
5e363914b3f2835e3ae5cc62,2023-06-16_05h28.09.685,phx_ver10,2022.2.5,Win32,59.08070424,,,,,,,,,,,,83,testing_3,j2x,au,j2x_au,j2x_1_aujau.wav,j2x_8_auxau.wav,,FALSE,FALSE,,,,,,,,,,,,,,j,0.6348,space,1.2173,,,,,,,,0,72,72,82,1,,
5e363914b3f2835e3ae5cc62,2023-06-16_05h28.09.685,phx_ver10,2022.2.5,Win32,59.08070424,,,,,,,,,,,,111,testing_3,sh2x,e,sh2x_e,sh2x_1_eshe.wav,sh2x_8_exe.wav,,FALSE,FALSE,,,,,,,,,,,,,,f,0.251,space,0.5843,,,,,,,,0,73,73,110,1,,
5e363914b3f2835e3ae5cc62,2023-06-16_05h28.09.685,phx_ver10,2022.2.5,Win32,59.08070424,,,,,,,,,,,,37,testing_3,zh2sh,e,zh2sh_e,zh2sh_1_ezhe.wav,zh2sh_1_ezhe.wav,,TRUE,FALSE,,,,,,,,,,,,,,j,0.1009,space,0.4217,,,,,,,,0,74,74,36,1,,
5e363914b3f2835e3ae5cc62,2023-06-16_05h28.09.685,phx_ver10,2022.2.5,Win32,59.08070424,,,,,,,,,,,,58,testing_3,zh2j,au,zh2j_au,zh2j_8_aujau.wav,zh2j_8_aujau.wav,,TRUE,FALSE,,,,,,,,,,,,,,j,0.484,space,0.8174,,,,,,,,0,75,75,57,1,,
5e363914b3f2835e3ae5cc62,2023-06-16_05h28.09.685,phx_ver10,2022.2.5,Win32,59.08070424,,,,,,,,,,,,9,testing_1,zh2x,i,zh2x_i,zh2x_1_izhi.wav,zh2x_1_izhi_copy.wav,,TRUE,TRUE,,,,,,,,,,,,,,f,0.4005,space,0.8004,,,,,,,,0,76,76,8,1,,
5e363914b3f2835e3ae5cc62,2023-06-16_05h28.09.685,phx_ver10,2022.2.5,Win32,59.08070424,,,,,,,,,,,,117,testing_3,sh2x,i,sh2x_i,sh2x_1_ishi.wav,sh2x_1_ishi.wav,,TRUE,FALSE,,,,,,,,,,,,,,f,0.6338,space,0.9404,,,,,,,,0,77,77,116,1,,
5e363914b3f2835e3ae5cc62,2023-06-16_05h28.09.685,phx_ver10,2022.2.5,Win32,59.08070424,,,,,,,,,,,,110,testing_3,sh2x,e,sh2x_e,sh2x_8_exe.wav,sh2x_8_exe.wav,,TRUE,FALSE,,,,,,,,,,,,,,f,0.6849,space,1.0342,,,,,,,,0,78,78,109,1,,
5e363914b3f2835e3ae5cc62,2023-06-16_05h28.09.685,phx_ver10,2022.2.5,Win32,59.08070424,,,,,,,,,,,,11,testing_1,zh2x,i,zh2x_i,zh2x_1_izhi.wav,zh2x_8_ixi.wav,,FALSE,TRUE,,,,,,,,,,,,,,f,0.1672,space,0.517,,,,,,,,0,79,79,10,1,,
5e363914b3f2835e3ae5cc62,2023-06-16_05h28.09.685,phx_ver10,2022.2.5,Win32,59.08070424,,,,,,,,,,,,91,testing_3,j2x,ei,j2x_ei,j2x_1_eijei.wav,j2x_8_eixei.wav,,FALSE,FALSE,,,,,,,,,,,,,,f,0.2028,space,0.4833,,,,,,,,0,80,80,90,1,,
5e363914b3f2835e3ae5cc62,2023-06-16_05h28.09.685,phx_ver10,2022.2.5,Win32,59.08070424,,,,,,,,,,,,14,testing_2,zh2x,ai,zh2x_ai,zh2x_8_aixai.wav,zh2x_8_aixai.wav,,TRUE,FALSE,,,,,,,,,,,,,,j,0.0676,space,0.4007,,,,,,,,0,81,81,13,1,,
5e363914b3f2835e3ae5cc62,2023-06-16_05h28.09.685,phx_ver10,2022.2.5,Win32,59.08070424,,,,,,,,,,,,7,testing_1,zh2x,e,zh2x_e,zh2x_1_ezhe.wav,zh2x_8_exe.wav,,FALSE,TRUE,,,,,,,,,,,,,,j,1.1501,space,1.7838,,,,,,,,0,82,82,6,1,,
5e363914b3f2835e3ae5cc62,2023-06-16_05h28.09.685,phx_ver10,2022.2.5,Win32,59.08070424,,,,,,,,,,,,69,testing_3,zh2j,i,zh2j_i,zh2j_1_izhi.wav,zh2j_1_izhi.wav,,TRUE,FALSE,,,,,,,,,,,,,,f,1.5893,space,2.2011,,,,,,,,0,83,83,68,1,,
5e363914b3f2835e3ae5cc62,2023-06-16_05h28.09.685,phx_ver10,2022.2.5,Win32,59.08070424,,,,,,,,,,,,72,testing_3,zh2j,i,zh2j_i,zh2j_8_iji.wav,zh2j_1_izhi.wav,,FALSE,FALSE,,,,,,,,,,,,,,f,0.0172,space,0.3062,,,,,,,,0,84,84,71,1,,
5e363914b3f2835e3ae5cc62,2023-06-16_05h28.09.685,phx_ver10,2022.2.5,Win32,59.08070424,,,,,,,,,,,,82,testing_3,j2x,au,j2x_au,j2x_8_auxau.wav,j2x_8_auxau.wav,,TRUE,FALSE,,,,,,,,,,,,,,j,0.0344,space,0.3197,,,,,,,,0,85,85,81,1,,
5e363914b3f2835e3ae5cc62,2023-06-16_05h28.09.685,phx_ver10,2022.2.5,Win32,59.08070424,,,,,,,,,,,,50,testing_3,zh2j,a,zh2j_a,zh2j_8_aja.wav,zh2j_8_aja.wav,,TRUE,FALSE,,,,,,,,,,,,,,f,0.0513,space,0.3678,,,,,,,,0,86,86,49,1,,
5e363914b3f2835e3ae5cc62,2023-06-16_05h28.09.685,phx_ver10,2022.2.5,Win32,59.08070424,,,,,,,,,,,,32,testing_3,zh2sh,ai,zh2sh_ai,zh2sh_8_aishai.wav,zh2sh_1_aizhai.wav,,FALSE,FALSE,,,,,,,,,,,,,,j,0.2849,space,0.6006,,,,,,,,0,87,87,31,1,,
5e363914b3f2835e3ae5cc62,2023-06-16_05h28.09.685,phx_ver10,2022.2.5,Win32,59.08070424,,,,,,,,,,,,12,testing_1,zh2x,i,zh2x_i,zh2x_8_ixi.wav,zh2x_1_izhi.wav,,FALSE,TRUE,,,,,,,,,,,,,,f,0.4007,space,0.6843,,,,,,,,0,88,88,11,1,,
5e363914b3f2835e3ae5cc62,2023-06-16_05h28.09.685,phx_ver10,2022.2.5,Win32,59.08070424,,,,,,,,,,,,49,testing_3,zh2j,a,zh2j_a,zh2j_1_azha.wav,zh2j_1_azha.wav,,TRUE,FALSE,,,,,,,,,,,,,,f,0.2675,space,0.5845,,,,,,,,0,89,89,48,1,,
5e363914b3f2835e3ae5cc62,2023-06-16_05h28.09.685,phx_ver10,2022.2.5,Win32,59.08070424,,,,,,,,,,,,54,testing_3,zh2j,ai,zh2j_ai,zh2j_8_aijai.wav,zh2j_8_aijai.wav,,TRUE,FALSE,,,,,,,,,,,,,,f,0.2037,space,0.5721,,,,,,,,0,90,90,53,1,,
5e363914b3f2835e3ae5cc62,2023-06-16_05h28.09.685,phx_ver10,2022.2.5,Win32,59.08070424,,,,,,,,,,,,104,testing_3,sh2x,ai,sh2x_ai,sh2x_8_aixai.wav,sh2x_1_aishai.wav,,FALSE,FALSE,,,,,,,,,,,,,,f,1.5509,space,1.923,,,,,,,,0,91,91,103,1,,
5e363914b3f2835e3ae5cc62,2023-06-16_05h28.09.685,phx_ver10,2022.2.5,Win32,59.08070424,,,,,,,,,,,,55,testing_3,zh2j,ai,zh2j_ai,zh2j_1_aizhai.wav,zh2j_8_aijai.wav,,FALSE,FALSE,,,,,,,,,,,,,,f,0.5072,space,0.8194,,,,,,,,0,92,92,54,1,,
5e363914b3f2835e3ae5cc62,2023-06-16_05h28.09.685,phx_ver10,2022.2.5,Win32,59.08070424,,,,,,,,,,,,139,testing_3,sh2j,ei,sh2j_ei,sh2j_1_eishei.wav,sh2j_8_eijei.wav,,FALSE,FALSE,,,,,,,,,,,,,,j,0.2006,space,0.5334,,,,,,,,0,93,93,138,1,,
5e363914b3f2835e3ae5cc62,2023-06-16_05h28.09.685,phx_ver10,2022.2.5,Win32,59.08070424,,,,,,,,,,,,116,testing_3,sh2x,ei,sh2x_ei,sh2x_8_eixei.wav,sh2x_1_eishei.wav,,FALSE,FALSE,,,,,,,,,,,,,,j,0.4171,space,1.2903,,,,,,,,0,94,94,115,1,,
5e363914b3f2835e3ae5cc62,2023-06-16_05h28.09.685,phx_ver10,2022.2.5,Win32,59.08070424,,,,,,,,,,,,95,testing_3,j2x,i,j2x_i,j2x_1_iji.wav,j2x_8_ixi.wav,,FALSE,FALSE,,,,,,,,,,,,,,f,0.157,space,0.5173,,,,,,,,0,95,95,94,1,,
5e363914b3f2835e3ae5cc62,2023-06-16_05h28.09.685,phx_ver10,2022.2.5,Win32,59.08070424,,,,,,,,,,,,109,testing_3,sh2x,e,sh2x_e,sh2x_1_eshe.wav,sh2x_1_eshe.wav,,TRUE,FALSE,,,,,,,,,,,,,,j,0.451,space,0.8709,,,,,,,,0,96,96,108,1,,
5e363914b3f2835e3ae5cc62,2023-06-16_05h28.09.685,phx_ver10,2022.2.5,Win32,59.08070424,,,,,,,,,,,,18,testing_2,zh2x,au,zh2x_au,zh2x_8_auxau.wav,zh2x_8_auxau.wav,,TRUE,FALSE,,,,,,,,,,,,,,f,0.2675,space,0.6044,,,,,,,,0,97,97,17,1,,
5e363914b3f2835e3ae5cc62,2023-06-16_05h28.09.685,phx_ver10,2022.2.5,Win32,59.08070424,,,,,,,,,,,,29,testing_3,zh2sh,ai,zh2sh_ai,zh2sh_1_aizhai.wav,zh2sh_1_aizhai.wav,,TRUE,FALSE,,,,,,,,,,,,,,j,1.0044,space,1.3507,,,,,,,,0,98,98,28,1,,
5e363914b3f2835e3ae5cc62,2023-06-16_05h28.09.685,phx_ver10,2022.2.5,Win32,59.08070424,,,,,,,,,,,,63,testing_3,zh2j,e,zh2j_e,zh2j_1_ezhe.wav,zh2j_8_eje.wav,,FALSE,FALSE,,,,,,,,,,,,,,f,1.5548,space,1.967,,,,,,,,0,99,99,62,1,,
5e363914b3f2835e3ae5cc62,2023-06-16_05h28.09.685,phx_ver10,2022.2.5,Win32,59.08070424,,,,,,,,,,,,115,testing_3,sh2x,ei,sh2x_ei,sh2x_1_eishei.wav,sh2x_8_eixei.wav,,FALSE,FALSE,,,,,,,,,,,,,,f,0.2378,space,0.6554,,,,,,,,0,100,100,114,1,,
5e363914b3f2835e3ae5cc62,2023-06-16_05h28.09.685,phx_ver10,2022.2.5,Win32,59.08070424,,,,,,,,,,,,33,testing_3,zh2sh,au,zh2sh_au,zh2sh_1_auzhau.wav,zh2sh_1_auzhau.wav,,TRUE,FALSE,,,,,,,,,,,,,,f,0.1504,space,0.5508,,,,,,,,0,101,101,32,1,,
5e363914b3f2835e3ae5cc62,2023-06-16_05h28.09.685,phx_ver10,2022.2.5,Win32,59.08070424,,,,,,,,,,,,1,testing_1,zh2x,a,zh2x_a,zh2x_1_azha.wav,zh2x_1_azha_copy.wav,,TRUE,TRUE,,,,,,,,,,,,,,f,0.1842,space,0.534,,,,,,,,0,102,102,0,1,,
5e363914b3f2835e3ae5cc62,2023-06-16_05h28.09.685,phx_ver10,2022.2.5,Win32,59.08070424,,,,,,,,,,,,6,testing_1,zh2x,e,zh2x_e,zh2x_8_exe.wav,zh2x_8_exe_copy.wav,,TRUE,TRUE,,,,,,,,,,,,,,f,0.0008,space,0.2838,,,,,,,,0,103,103,5,1,,
5e363914b3f2835e3ae5cc62,2023-06-16_05h28.09.685,phx_ver10,2022.2.5,Win32,59.08070424,,,,,,,,,,,,59,testing_3,zh2j,au,zh2j_au,zh2j_1_auzhau.wav,zh2j_8_aujau.wav,,FALSE,FALSE,,,,,,,,,,,,,,f,0.1176,space,0.5228,,,,,,,,0,104,104,58,1,,
5e363914b3f2835e3ae5cc62,2023-06-16_05h28.09.685,phx_ver10,2022.2.5,Win32,59.08070424,,,,,,,,,,,,96,testing_3,j2x,i,j2x_i,j2x_8_ixi.wav,j2x_1_iji.wav,,FALSE,FALSE,,,,,,,,,,,,,,j,0.2233,space,0.5095,,,,,,,,0,105,105,95,1,,
5e363914b3f2835e3ae5cc62,2023-06-16_05h28.09.685,phx_ver10,2022.2.5,Win32,59.08070424,,,,,,,,,,,,46,testing_3,zh2sh,i,zh2sh_i,zh2sh_8_ishi.wav,zh2sh_8_ishi.wav,,TRUE,FALSE,,,,,,,,,,,,,,f,0.3536,space,0.6501,,,,,,,,0,106,106,45,1,,
5e363914b3f2835e3ae5cc62,2023-06-16_05h28.09.685,phx_ver10,2022.2.5,Win32,59.08070424,,,,,,,,,,,,92,testing_3,j2x,ei,j2x_ei,j2x_8_eixei.wav,j2x_1_eijei.wav,,FALSE,FALSE,,,,,,,,,,,,,,j,0.5672,space,0.8733,,,,,,,,0,107,107,91,1,,
5e363914b3f2835e3ae5cc62,2023-06-16_05h28.09.685,phx_ver10,2022.2.5,Win32,59.08070424,,,,,,,,,,,,77,testing_3,j2x,ai,j2x_ai,j2x_1_aijai.wav,j2x_1_aijai.wav,,TRUE,FALSE,,,,,,,,,,,,,,f,0.5067,space,0.8694,,,,,,,,0,108,108,76,1,,
5e363914b3f2835e3ae5cc62,2023-06-16_05h28.09.685,phx_ver10,2022.2.5,Win32,59.08070424,,,,,,,,,,,,124,testing_3,sh2j,a,sh2j_a,sh2j_8_aja.wav,sh2j_1_asha.wav,,FALSE,FALSE,,,,,,,,,,,,,,f,1.0208,space,1.5708,,,,,,,,0,109,109,123,1,,
5e363914b3f2835e3ae5cc62,2023-06-16_05h28.09.685,phx_ver10,2022.2.5,Win32,59.08070424,,,,,,,,,,,,85,testing_3,j2x,e,j2x_e,j2x_1_eje.wav,j2x_1_eje.wav,,TRUE,FALSE,,,,,,,,,,,,,,f,0.3507,space,0.7519,,,,,,,,0,110,110,84,1,,
5e363914b3f2835e3ae5cc62,2023-06-16_05h28.09.685,phx_ver10,2022.2.5,Win32,59.08070424,,,,,,,,,,,,62,testing_3,zh2j,e,zh2j_e,zh2j_8_eje.wav,zh2j_8_eje.wav,,TRUE,FALSE,,,,,,,,,,,,,,f,0.5339,space,0.8343,,,,,,,,0,111,111,61,1,,
5e363914b3f2835e3ae5cc62,2023-06-16_05h28.09.685,phx_ver10,2022.2.5,Win32,59.08070424,,,,,,,,,,,,26,testing_3,zh2sh,a,zh2sh_a,zh2sh_8_asha.wav,zh2sh_8_asha.wav,,TRUE,FALSE,,,,,,,,,,,,,,j,0.3178,space,0.6348,,,,,,,,0,112,112,25,1,,
5e363914b3f2835e3ae5cc62,2023-06-16_05h28.09.685,phx_ver10,2022.2.5,Win32,59.08070424,,,,,,,,,,,,41,testing_3,zh2sh,ei,zh2sh_ei,zh2sh_1_eizhei.wav,zh2sh_1_eizhei.wav,,TRUE,FALSE,,,,,,,,,,,,,,f,0.3839,space,0.701,,,,,,,,0,113,113,40,1,,
5e363914b3f2835e3ae5cc62,2023-06-16_05h28.09.685,phx_ver10,2022.2.5,Win32,59.08070424,,,,,,,,,,,,142,testing_3,sh2j,i,sh2j_i,sh2j_8_iji.wav,sh2j_8_iji.wav,,TRUE,FALSE,,,,,,,,,,,,,,f,0.7177,space,1.1839,,,,,,,,0,114,114,141,1,,
5e363914b3f2835e3ae5cc62,2023-06-16_05h28.09.685,phx_ver10,2022.2.5,Win32,59.08070424,,,,,,,,,,,,120,testing_3,sh2x,i,sh2x_i,sh2x_8_ixi.wav,sh2x_1_ishi.wav,,FALSE,FALSE,,,,,,,,,,,,,,f,0.3095,space,0.7841,,,,,,,,0,115,115,119,1,,
5e363914b3f2835e3ae5cc62,2023-06-16_05h28.09.685,phx_ver10,2022.2.5,Win32,59.08070424,,,,,,,,,,,,38,testing_3,zh2sh,e,zh2sh_e,zh2sh_8_eshe.wav,zh2sh_8_eshe.wav,,TRUE,FALSE,,,,,,,,,,,,,,f,0.0214,space,0.3843,,,,,,,,0,116,116,37,1,,
5e363914b3f2835e3ae5cc62,2023-06-16_05h28.09.685,phx_ver10,2022.2.5,Win32,59.08070424,,,,,,,,,,,,36,testing_3,zh2sh,au,zh2sh_au,zh2sh_8_aushau.wav,zh2sh_1_auzhau.wav,,FALSE,FALSE,,,,,,,,,,,,,,j,0.0171,space,0.3534,,,,,,,,0,117,117,35,1,,
5e363914b3f2835e3ae5cc62,2023-06-16_05h28.09.685,phx_ver10,2022.2.5,Win32,59.08070424,,,,,,,,,,,,144,testing_3,sh2j,i,sh2j_i,sh2j_8_iji.wav,sh2j_1_ishi.wav,,FALSE,FALSE,,,,,,,,,,,,,,j,0.2168,space,0.5701,,,,,,,,0,118,118,143,1,,
5e363914b3f2835e3ae5cc62,2023-06-16_05h28.09.685,phx_ver10,2022.2.5,Win32,59.08070424,,,,,,,,,,,,135,testing_3,sh2j,e,sh2j_e,sh2j_1_eshe.wav,sh2j_8_eje.wav,,FALSE,FALSE,,,,,,,,,,,,,,f,0.5709,space,0.8883,,,,,,,,0,119,119,134,1,,
5e363914b3f2835e3ae5cc62,2023-06-16_05h28.09.685,phx_ver10,2022.2.5,Win32,59.08070424,,,,,,,,,,,,71,testing_3,zh2j,i,zh2j_i,zh2j_1_izhi.wav,zh2j_8_iji.wav,,FALSE,FALSE,,,,,,,,,,,,,,f,0.2844,space,0.6053,,,,,,,,0,120,120,70,1,,
5e363914b3f2835e3ae5cc62,2023-06-16_05h28.09.685,phx_ver10,2022.2.5,Win32,59.08070424,,,,,,,,,,,,40,testing_3,zh2sh,e,zh2sh_e,zh2sh_8_eshe.wav,zh2sh_1_ezhe.wav,,FALSE,FALSE,,,,,,,,,,,,,,f,0.9402,space,1.3007,,,,,,,,0,121,121,39,1,,
5e363914b3f2835e3ae5cc62,2023-06-16_05h28.09.685,phx_ver10,2022.2.5,Win32,59.08070424,,,,,,,,,,,,122,testing_3,sh2j,a,sh2j_a,sh2j_8_aja.wav,sh2j_8_aja.wav,,TRUE,FALSE,,,,,,,,,,,,,,f,0.09,space,0.451,,,,,,,,0,122,122,121,1,,
5e363914b3f2835e3ae5cc62,2023-06-16_05h28.09.685,phx_ver10,2022.2.5,Win32,59.08070424,,,,,,,,,,,,45,testing_3,zh2sh,i,zh2sh_i,zh2sh_1_izhi.wav,zh2sh_1_izhi.wav,,TRUE,FALSE,,,,,,,,,,,,,,f,0.3672,space,0.657,,,,,,,,0,123,123,44,1,,
5e363914b3f2835e3ae5cc62,2023-06-16_05h28.09.685,phx_ver10,2022.2.5,Win32,59.08070424,,,,,,,,,,,,68,testing_3,zh2j,ei,zh2j_ei,zh2j_8_eijei.wav,zh2j_1_eizhei.wav,,FALSE,FALSE,,,,,,,,,,,,,,f,0.1841,space,0.4848,,,,,,,,0,124,124,67,1,,
5e363914b3f2835e3ae5cc62,2023-06-16_05h28.09.685,phx_ver10,2022.2.5,Win32,59.08070424,,,,,,,,,,,,70,testing_3,zh2j,i,zh2j_i,zh2j_8_iji.wav,zh2j_8_iji.wav,,TRUE,FALSE,,,,,,,,,,,,,,f,0.3675,space,0.8698,,,,,,,,0,125,125,69,1,,
5e363914b3f2835e3ae5cc62,2023-06-16_05h28.09.685,phx_ver10,2022.2.5,Win32,59.08070424,,,,,,,,,,,,25,testing_3,zh2sh,a,zh2sh_a,zh2sh_1_azha.wav,zh2sh_1_azha.wav,,TRUE,FALSE,,,,,,,,,,,,,,f,0.0174,space,0.4393,,,,,,,,0,126,126,24,1,,
5e363914b3f2835e3ae5cc62,2023-06-16_05h28.09.685,phx_ver10,2022.2.5,Win32,59.08070424,,,,,,,,,,,,129,testing_3,sh2j,au,sh2j_au,sh2j_1_aushau.wav,sh2j_1_aushau.wav,,TRUE,FALSE,,,,,,,,,,,,,,f,0.5031,space,0.8839,,,,,,,,0,127,127,128,1,,
5e363914b3f2835e3ae5cc62,2023-06-16_05h28.09.685,phx_ver10,2022.2.5,Win32,59.08070424,,,,,,,,,,,,80,testing_3,j2x,ai,j2x_ai,j2x_8_aixai.wav,j2x_1_aijai.wav,,FALSE,FALSE,,,,,,,,,,,,,,f,0.5168,space,0.884,,,,,,,,0,128,128,79,1,,
5e363914b3f2835e3ae5cc62,2023-06-16_05h28.09.685,phx_ver10,2022.2.5,Win32,59.08070424,,,,,,,,,,,,28,testing_3,zh2sh,a,zh2sh_a,zh2sh_8_asha.wav,zh2sh_1_azha.wav,,FALSE,FALSE,,,,,,,,,,,,,,f,0.9669,space,1.3166,,,,,,,,0,129,129,27,1,,
5e363914b3f2835e3ae5cc62,2023-06-16_05h28.09.685,phx_ver10,2022.2.5,Win32,59.08070424,,,,,,,,,,,,119,testing_3,sh2x,i,sh2x_i,sh2x_1_ishi.wav,sh2x_8_ixi.wav,,FALSE,FALSE,,,,,,,,,,,,,,f,0.3723,space,0.735,,,,,,,,0,130,130,118,1,,
5e363914b3f2835e3ae5cc62,2023-06-16_05h28.09.685,phx_ver10,2022.2.5,Win32,59.08070424,,,,,,,,,,,,17,testing_2,zh2x,au,zh2x_au,zh2x_1_auzhau.wav,zh2x_1_auzhau.wav,,TRUE,FALSE,,,,,,,,,,,,,,f,0.1513,space,0.4011,,,,,,,,0,131,131,16,1,,
5e363914b3f2835e3ae5cc62,2023-06-16_05h28.09.685,phx_ver10,2022.2.5,Win32,59.08070424,,,,,,,,,,,,16,testing_2,zh2x,ai,zh2x_ai,zh2x_8_aixai.wav,zh2x_1_aizhai.wav,,FALSE,FALSE,,,,,,,,,,,,,,f,0.034,space,0.384,,,,,,,,0,132,132,15,1,,
5e363914b3f2835e3ae5cc62,2023-06-16_05h28.09.685,phx_ver10,2022.2.5,Win32,59.08070424,,,,,,,,,,,,30,testing_3,zh2sh,ai,zh2sh_ai,zh2sh_8_aishai.wav,zh2sh_8_aishai.wav,,TRUE,FALSE,,,,,,,,,,,,,,f,0.8838,space,1.2728,,,,,,,,0,133,133,29,1,,
5e363914b3f2835e3ae5cc62,2023-06-16_05h28.09.685,phx_ver10,2022.2.5,Win32,59.08070424,,,,,,,,,,,,105,testing_3,sh2x,au,sh2x_au,sh2x_1_aushau.wav,sh2x_1_aushau.wav,,TRUE,FALSE,,,,,,,,,,,,,,f,0.1341,space,0.5343,,,,,,,,0,134,134,104,1,,
5e363914b3f2835e3ae5cc62,2023-06-16_05h28.09.685,phx_ver10,2022.2.5,Win32,59.08070424,,,,,,,,,,,,31,testing_3,zh2sh,ai,zh2sh_ai,zh2sh_1_aizhai.wav,zh2sh_8_aishai.wav,,FALSE,FALSE,,,,,,,,,,,,,,j,0.6262,space,1.001,,,,,,,,0,135,135,30,1,,
5e363914b3f2835e3ae5cc62,2023-06-16_05h28.09.685,phx_ver10,2022.2.5,Win32,59.08070424,,,,,,,,,,,,13,testing_2,zh2x,ai,zh2x_ai,zh2x_1_aizhai.wav,zh2x_1_aizhai.wav,,TRUE,FALSE,,,,,,,,,,,,,,f,0.8554,space,1.218,,,,,,,,0,136,136,12,1,,
5e363914b3f2835e3ae5cc62,2023-06-16_05h28.09.685,phx_ver10,2022.2.5,Win32,59.08070424,,,,,,,,,,,,60,testing_3,zh2j,au,zh2j_au,zh2j_8_aujau.wav,zh2j_1_auzhau.wav,,FALSE,FALSE,,,,,,,,,,,,,,f,0.2672,space,0.6347,,,,,,,,0,137,137,59,1,,
5e363914b3f2835e3ae5cc62,2023-06-16_05h28.09.685,phx_ver10,2022.2.5,Win32,59.08070424,,,,,,,,,,,,48,testing_3,zh2sh,i,zh2sh_i,zh2sh_8_ishi.wav,zh2sh_1_izhi.wav,,FALSE,FALSE,,,,,,,,,,,,,,f,0.0225,space,0.5001,,,,,,,,0,138,138,47,1,,
5e363914b3f2835e3ae5cc62,2023-06-16_05h28.09.685,phx_ver10,2022.2.5,Win32,59.08070424,,,,,,,,,,,,137,testing_3,sh2j,ei,sh2j_ei,sh2j_1_eishei.wav,sh2j_1_eishei.wav,,TRUE,FALSE,,,,,,,,,,,,,,f,0.001,space,0.3677,,,,,,,,0,139,139,136,1,,
5e363914b3f2835e3ae5cc62,2023-06-16_05h28.09.685,phx_ver10,2022.2.5,Win32,59.08070424,,,,,,,,,,,,132,testing_3,sh2j,au,sh2j_au,sh2j_8_aujau.wav,sh2j_1_aushau.wav,,FALSE,FALSE,,,,,,,,,,,,,,j,0.1339,space,0.5174,,,,,,,,0,140,140,131,1,,
5e363914b3f2835e3ae5cc62,2023-06-16_05h28.09.685,phx_ver10,2022.2.5,Win32,59.08070424,,,,,,,,,,,,56,testing_3,zh2j,ai,zh2j_ai,zh2j_8_aijai.wav,zh2j_1_aizhai.wav,,FALSE,FALSE,,,,,,,,,,,,,,j,0.3849,space,0.6689,,,,,,,,0,141,141,55,1,,
5e363914b3f2835e3ae5cc62,2023-06-16_05h28.09.685,phx_ver10,2022.2.5,Win32,59.08070424,,,,,,,,,,,,127,testing_3,sh2j,ai,sh2j_ai,sh2j_1_aishai.wav,sh2j_8_aijai.wav,,FALSE,FALSE,,,,,,,,,,,,,,f,0.0339,space,0.4378,,,,,,,,0,142,142,126,1,,
5e363914b3f2835e3ae5cc62,2023-06-16_05h28.09.685,phx_ver10,2022.2.5,Win32,59.08070424,,,,,,,,,,,,52,testing_3,zh2j,a,zh2j_a,zh2j_8_aja.wav,zh2j_1_azha.wav,,FALSE,FALSE,,,,,,,,,,,,,,f,0.1739,space,0.4846,,,,,,,,0,143,143,51,1,,
5e363914b3f2835e3ae5cc62,2023-06-16_05h28.09.685,phx_ver10,2022.2.5,Win32,59.08070424,,,,,,,,,,,,,,,,,,,,,,,,,,,,,,,,,,,,,,,,,,,,,,,,,,,space,1.8249
