participant,date,expName,psychopyVersion,OS,frameRate,space_1.keys,space_1.rt,space_2.keys,space_2.rt,space_train.keys,space_train.rt,training.thisRepN,training.thisTrialN,training.thisN,training.thisIndex,training.ran,token_id,task,continuum,vowel,series,sound_1,sound_2,img,same,trained,FJ_attn.keys,FJ_attn.rt,space_attn.keys,space_attn.rt,if_attn_test.thisRepN,if_attn_test.thisTrialN,if_attn_test.thisN,if_attn_test.thisIndex,if_attn_test.ran,space_trans_1.keys,space_trans_1.rt,space_trans_11.keys,space_trans_11.rt,FJ_test.keys,FJ_test.rt,space_test.keys,space_test.rt,testing_pre.thisRepN,testing_pre.thisTrialN,testing_pre.thisN,testing_pre.thisIndex,testing_pre.ran,space_trans_2.keys,space_trans_2.rt,testing_all.thisRepN,testing_all.thisTrialN,testing_all.thisN,testing_all.thisIndex,testing_all.ran,space_ending.keys,space_ending.rt
5e37f48dfbcc9d75be926c70,2023-06-16_10h15.10.754,phx_ver10,2022.2.5,MacIntel,60.0024001,,,,,,,,,,,,,,,,,,,,,,,,,,,,,,,,,,,,,,,,,,,,,,,,,,,,
5e37f48dfbcc9d75be926c70,2023-06-16_10h15.10.754,phx_ver10,2022.2.5,MacIntel,60.0024001,space,8.6793,,,,,,,,,,,,,,,,,,,,,,,,,,,,,,,,,,,,,,,,,,,,,,,,,,
5e37f48dfbcc9d75be926c70,2023-06-16_10h15.10.754,phx_ver10,2022.2.5,MacIntel,60.0024001,,,space,1.435,,,,,,,,,,,,,,,,,,,,,,,,,,,,,,,,,,,,,,,,,,,,,,,,
5e37f48dfbcc9d75be926c70,2023-06-16_10h15.10.754,phx_ver10,2022.2.5,MacIntel,60.0024001,,,,,space,7.6321,0,0,0,21,1,22,training,zh2x,e,zh2x_e,zh2x_3_ezhe.wav,,ezhe.jpg,,,,,,,,,,,,,,,,,,,,,,,,,,,,,,,,,
5e37f48dfbcc9d75be926c70,2023-06-16_10h15.10.754,phx_ver10,2022.2.5,MacIntel,60.0024001,,,,,space,9.6388,0,1,1,35,1,36,training,zh2x,i,zh2x_i,zh2x_2_izhi.wav,,izhi.jpg,,,,,,,,,,,,,,,,,,,,,,,,,,,,,,,,,
5e37f48dfbcc9d75be926c70,2023-06-16_10h15.10.754,phx_ver10,2022.2.5,MacIntel,60.0024001,,,,,space,7.4541,0,2,2,25,1,26,training,zh2x,e,zh2x_e,zh2x_6_exe.wav,,exe.jpg,,,,,,,,,,,,,,,,,,,,,,,,,,,,,,,,,
5e37f48dfbcc9d75be926c70,2023-06-16_10h15.10.754,phx_ver10,2022.2.5,MacIntel,60.0024001,,,,,space,9.465,0,3,3,15,1,16,training,zh2x,a,zh2x_a,zh2x_8_axa.wav,,axa.jpg,,,,,,,,,,,,,,,,,,,,,,,,,,,,,,,,,
5e37f48dfbcc9d75be926c70,2023-06-16_10h15.10.754,phx_ver10,2022.2.5,MacIntel,60.0024001,,,,,space,1.8329,0,4,4,39,1,40,training,zh2x,i,zh2x_i,zh2x_4_izhi.wav,,izhi.jpg,,,,,,,,,,,,,,,,,,,,,,,,,,,,,,,,,
5e37f48dfbcc9d75be926c70,2023-06-16_10h15.10.754,phx_ver10,2022.2.5,MacIntel,60.0024001,,,,,space,7.3514,0,5,5,6,1,7,training,zh2x,a,zh2x_a,zh2x_3_azha.wav,,azha.jpg,,,,,,,,,,,,,,,,,,,,,,,,,,,,,,,,,
5e37f48dfbcc9d75be926c70,2023-06-16_10h15.10.754,phx_ver10,2022.2.5,MacIntel,60.0024001,,,,,,,,,,,,,attn_test,,,,zh2x_1_izhi.wav,zh2x_8_exe.wav,exe.jpg,RIGHT,,j,5.0528,space,6.8983,0,0,0,0,1,,,,,,,,,,,,,,,,,,,,,,
5e37f48dfbcc9d75be926c70,2023-06-16_10h15.10.754,phx_ver10,2022.2.5,MacIntel,60.0024001,,,,,space,2.2308,0,6,6,5,1,6,training,zh2x,a,zh2x_a,zh2x_3_azha.wav,,azha.jpg,,,,,,,,,,,,,,,,,,,,,,,,,,,,,,,,,
5e37f48dfbcc9d75be926c70,2023-06-16_10h15.10.754,phx_ver10,2022.2.5,MacIntel,60.0024001,,,,,space,1.0167,0,7,7,9,1,10,training,zh2x,a,zh2x_a,zh2x_6_axa.wav,,axa.jpg,,,,,,,,,,,,,,,,,,,,,,,,,,,,,,,,,
5e37f48dfbcc9d75be926c70,2023-06-16_10h15.10.754,phx_ver10,2022.2.5,MacIntel,60.0024001,,,,,space,1.148,0,8,8,12,1,13,training,zh2x,a,zh2x_a,zh2x_7_axa.wav,,axa.jpg,,,,,,,,,,,,,,,,,,,,,,,,,,,,,,,,,
5e37f48dfbcc9d75be926c70,2023-06-16_10h15.10.754,phx_ver10,2022.2.5,MacIntel,60.0024001,,,,,space,1.0871,0,9,9,22,1,23,training,zh2x,e,zh2x_e,zh2x_3_ezhe.wav,,ezhe.jpg,,,,,,,,,,,,,,,,,,,,,,,,,,,,,,,,,
5e37f48dfbcc9d75be926c70,2023-06-16_10h15.10.754,phx_ver10,2022.2.5,MacIntel,60.0024001,,,,,space,1.0509,0,10,10,16,1,17,training,zh2x,e,zh2x_e,zh2x_1_ezhe.wav,,ezhe.jpg,,,,,,,,,,,,,,,,,,,,,,,,,,,,,,,,,
5e37f48dfbcc9d75be926c70,2023-06-16_10h15.10.754,phx_ver10,2022.2.5,MacIntel,60.0024001,,,,,space,6.0838,0,11,11,42,1,43,training,zh2x,i,zh2x_i,zh2x_6_ixi.wav,,ixi.jpg,,,,,,,,,,,,,,,,,,,,,,,,,,,,,,,,,
5e37f48dfbcc9d75be926c70,2023-06-16_10h15.10.754,phx_ver10,2022.2.5,MacIntel,60.0024001,,,,,,,,,,,,,attn_test,,,,zh2x_8_ixi.wav,zh2x_1_azha.wav,ixi.jpg,LEFT,,f,0.9665,space,2.4327,0,0,0,0,1,,,,,,,,,,,,,,,,,,,,,,
5e37f48dfbcc9d75be926c70,2023-06-16_10h15.10.754,phx_ver10,2022.2.5,MacIntel,60.0024001,,,,,space,1.2004,0,12,12,28,1,29,training,zh2x,e,zh2x_e,zh2x_7_exe.wav,,exe.jpg,,,,,,,,,,,,,,,,,,,,,,,,,,,,,,,,,
5e37f48dfbcc9d75be926c70,2023-06-16_10h15.10.754,phx_ver10,2022.2.5,MacIntel,60.0024001,,,,,space,0.6389,0,13,13,24,1,25,training,zh2x,e,zh2x_e,zh2x_5_exe.wav,,exe.jpg,,,,,,,,,,,,,,,,,,,,,,,,,,,,,,,,,
5e37f48dfbcc9d75be926c70,2023-06-16_10h15.10.754,phx_ver10,2022.2.5,MacIntel,60.0024001,,,,,space,1.013,0,14,14,0,1,1,training,zh2x,a,zh2x_a,zh2x_1_azha.wav,,azha.jpg,,,,,,,,,,,,,,,,,,,,,,,,,,,,,,,,,
5e37f48dfbcc9d75be926c70,2023-06-16_10h15.10.754,phx_ver10,2022.2.5,MacIntel,60.0024001,,,,,space,2.9503,0,15,15,11,1,12,training,zh2x,a,zh2x_a,zh2x_7_axa.wav,,axa.jpg,,,,,,,,,,,,,,,,,,,,,,,,,,,,,,,,,
5e37f48dfbcc9d75be926c70,2023-06-16_10h15.10.754,phx_ver10,2022.2.5,MacIntel,60.0024001,,,,,space,0.7999,0,16,16,38,1,39,training,zh2x,i,zh2x_i,zh2x_3_izhi.wav,,izhi.jpg,,,,,,,,,,,,,,,,,,,,,,,,,,,,,,,,,
5e37f48dfbcc9d75be926c70,2023-06-16_10h15.10.754,phx_ver10,2022.2.5,MacIntel,60.0024001,,,,,space,0.4516,0,17,17,8,1,9,training,zh2x,a,zh2x_a,zh2x_5_axa.wav,,axa.jpg,,,,,,,,,,,,,,,,,,,,,,,,,,,,,,,,,
5e37f48dfbcc9d75be926c70,2023-06-16_10h15.10.754,phx_ver10,2022.2.5,MacIntel,60.0024001,,,,,,,,,,,,,attn_test,,,,zh2x_1_azha.wav,zh2x_1_izhi.wav,azha.jpg,LEFT,,f,1.1497,space,1.9155,0,0,0,0,1,,,,,,,,,,,,,,,,,,,,,,
5e37f48dfbcc9d75be926c70,2023-06-16_10h15.10.754,phx_ver10,2022.2.5,MacIntel,60.0024001,,,,,space,1.0974,0,18,18,7,1,8,training,zh2x,a,zh2x_a,zh2x_4_azha.wav,,azha.jpg,,,,,,,,,,,,,,,,,,,,,,,,,,,,,,,,,
5e37f48dfbcc9d75be926c70,2023-06-16_10h15.10.754,phx_ver10,2022.2.5,MacIntel,60.0024001,,,,,space,0.5652,0,19,19,29,1,30,training,zh2x,e,zh2x_e,zh2x_7_exe.wav,,exe.jpg,,,,,,,,,,,,,,,,,,,,,,,,,,,,,,,,,
5e37f48dfbcc9d75be926c70,2023-06-16_10h15.10.754,phx_ver10,2022.2.5,MacIntel,60.0024001,,,,,space,0.4477,0,20,20,2,1,3,training,zh2x,a,zh2x_a,zh2x_2_azha.wav,,azha.jpg,,,,,,,,,,,,,,,,,,,,,,,,,,,,,,,,,
5e37f48dfbcc9d75be926c70,2023-06-16_10h15.10.754,phx_ver10,2022.2.5,MacIntel,60.0024001,,,,,space,0.3644,0,21,21,34,1,35,training,zh2x,i,zh2x_i,zh2x_2_izhi.wav,,izhi.jpg,,,,,,,,,,,,,,,,,,,,,,,,,,,,,,,,,
5e37f48dfbcc9d75be926c70,2023-06-16_10h15.10.754,phx_ver10,2022.2.5,MacIntel,60.0024001,,,,,space,0.8161,0,22,22,14,1,15,training,zh2x,a,zh2x_a,zh2x_7_axa.wav,,axa.jpg,,,,,,,,,,,,,,,,,,,,,,,,,,,,,,,,,
5e37f48dfbcc9d75be926c70,2023-06-16_10h15.10.754,phx_ver10,2022.2.5,MacIntel,60.0024001,,,,,space,0.6195,0,23,23,27,1,28,training,zh2x,e,zh2x_e,zh2x_7_exe.wav,,exe.jpg,,,,,,,,,,,,,,,,,,,,,,,,,,,,,,,,,
5e37f48dfbcc9d75be926c70,2023-06-16_10h15.10.754,phx_ver10,2022.2.5,MacIntel,60.0024001,,,,,,,,,,,,,attn_test,,,,zh2x_8_axa.wav,zh2x_1_izhi.wav,izhi.jpg,RIGHT,,j,1.9329,space,2.8656,0,0,0,0,1,,,,,,,,,,,,,,,,,,,,,,
5e37f48dfbcc9d75be926c70,2023-06-16_10h15.10.754,phx_ver10,2022.2.5,MacIntel,60.0024001,,,,,space,1.1352,0,24,24,36,1,37,training,zh2x,i,zh2x_i,zh2x_2_izhi.wav,,izhi.jpg,,,,,,,,,,,,,,,,,,,,,,,,,,,,,,,,,
5e37f48dfbcc9d75be926c70,2023-06-16_10h15.10.754,phx_ver10,2022.2.5,MacIntel,60.0024001,,,,,space,0.4832,0,25,25,47,1,48,training,zh2x,i,zh2x_i,zh2x_8_ixi.wav,,ixi.jpg,,,,,,,,,,,,,,,,,,,,,,,,,,,,,,,,,
5e37f48dfbcc9d75be926c70,2023-06-16_10h15.10.754,phx_ver10,2022.2.5,MacIntel,60.0024001,,,,,space,0.8341,0,26,26,17,1,18,training,zh2x,e,zh2x_e,zh2x_2_ezhe.wav,,ezhe.jpg,,,,,,,,,,,,,,,,,,,,,,,,,,,,,,,,,
5e37f48dfbcc9d75be926c70,2023-06-16_10h15.10.754,phx_ver10,2022.2.5,MacIntel,60.0024001,,,,,space,1.1206,0,27,27,46,1,47,training,zh2x,i,zh2x_i,zh2x_7_ixi.wav,,ixi.jpg,,,,,,,,,,,,,,,,,,,,,,,,,,,,,,,,,
5e37f48dfbcc9d75be926c70,2023-06-16_10h15.10.754,phx_ver10,2022.2.5,MacIntel,60.0024001,,,,,space,0.5497,0,28,28,32,1,33,training,zh2x,i,zh2x_i,zh2x_1_izhi.wav,,izhi.jpg,,,,,,,,,,,,,,,,,,,,,,,,,,,,,,,,,
5e37f48dfbcc9d75be926c70,2023-06-16_10h15.10.754,phx_ver10,2022.2.5,MacIntel,60.0024001,,,,,space,0.466,0,29,29,44,1,45,training,zh2x,i,zh2x_i,zh2x_7_ixi.wav,,ixi.jpg,,,,,,,,,,,,,,,,,,,,,,,,,,,,,,,,,
5e37f48dfbcc9d75be926c70,2023-06-16_10h15.10.754,phx_ver10,2022.2.5,MacIntel,60.0024001,,,,,,,,,,,,,attn_test,,,,zh2x_1_izhi.wav,zh2x_8_axa.wav,izhi.jpg,LEFT,,f,0.6707,space,1.3516,0,0,0,0,1,,,,,,,,,,,,,,,,,,,,,,
5e37f48dfbcc9d75be926c70,2023-06-16_10h15.10.754,phx_ver10,2022.2.5,MacIntel,60.0024001,,,,,space,0.6546,0,30,30,37,1,38,training,zh2x,i,zh2x_i,zh2x_3_izhi.wav,,izhi.jpg,,,,,,,,,,,,,,,,,,,,,,,,,,,,,,,,,
5e37f48dfbcc9d75be926c70,2023-06-16_10h15.10.754,phx_ver10,2022.2.5,MacIntel,60.0024001,,,,,space,0.6306,0,31,31,43,1,44,training,zh2x,i,zh2x_i,zh2x_7_ixi.wav,,ixi.jpg,,,,,,,,,,,,,,,,,,,,,,,,,,,,,,,,,
5e37f48dfbcc9d75be926c70,2023-06-16_10h15.10.754,phx_ver10,2022.2.5,MacIntel,60.0024001,,,,,space,0.4173,0,32,32,13,1,14,training,zh2x,a,zh2x_a,zh2x_7_axa.wav,,axa.jpg,,,,,,,,,,,,,,,,,,,,,,,,,,,,,,,,,
5e37f48dfbcc9d75be926c70,2023-06-16_10h15.10.754,phx_ver10,2022.2.5,MacIntel,60.0024001,,,,,space,0.4311,0,33,33,45,1,46,training,zh2x,i,zh2x_i,zh2x_7_ixi.wav,,ixi.jpg,,,,,,,,,,,,,,,,,,,,,,,,,,,,,,,,,
5e37f48dfbcc9d75be926c70,2023-06-16_10h15.10.754,phx_ver10,2022.2.5,MacIntel,60.0024001,,,,,space,0.4331,0,34,34,20,1,21,training,zh2x,e,zh2x_e,zh2x_2_ezhe.wav,,ezhe.jpg,,,,,,,,,,,,,,,,,,,,,,,,,,,,,,,,,
5e37f48dfbcc9d75be926c70,2023-06-16_10h15.10.754,phx_ver10,2022.2.5,MacIntel,60.0024001,,,,,space,0.5033,0,35,35,19,1,20,training,zh2x,e,zh2x_e,zh2x_2_ezhe.wav,,ezhe.jpg,,,,,,,,,,,,,,,,,,,,,,,,,,,,,,,,,
5e37f48dfbcc9d75be926c70,2023-06-16_10h15.10.754,phx_ver10,2022.2.5,MacIntel,60.0024001,,,,,,,,,,,,,attn_test,,,,zh2x_8_axa.wav,zh2x_1_azha.wav,axa.jpg,LEFT,,f,2.6323,space,6.0188,0,0,0,0,1,,,,,,,,,,,,,,,,,,,,,,
5e37f48dfbcc9d75be926c70,2023-06-16_10h15.10.754,phx_ver10,2022.2.5,MacIntel,60.0024001,,,,,space,1.6168,0,36,36,33,1,34,training,zh2x,i,zh2x_i,zh2x_2_izhi.wav,,izhi.jpg,,,,,,,,,,,,,,,,,,,,,,,,,,,,,,,,,
5e37f48dfbcc9d75be926c70,2023-06-16_10h15.10.754,phx_ver10,2022.2.5,MacIntel,60.0024001,,,,,space,1.2826,0,37,37,41,1,42,training,zh2x,i,zh2x_i,zh2x_6_ixi.wav,,ixi.jpg,,,,,,,,,,,,,,,,,,,,,,,,,,,,,,,,,
5e37f48dfbcc9d75be926c70,2023-06-16_10h15.10.754,phx_ver10,2022.2.5,MacIntel,60.0024001,,,,,space,1.9702,0,38,38,1,1,2,training,zh2x,a,zh2x_a,zh2x_2_azha.wav,,azha.jpg,,,,,,,,,,,,,,,,,,,,,,,,,,,,,,,,,
5e37f48dfbcc9d75be926c70,2023-06-16_10h15.10.754,phx_ver10,2022.2.5,MacIntel,60.0024001,,,,,space,1.0802,0,39,39,3,1,4,training,zh2x,a,zh2x_a,zh2x_2_azha.wav,,azha.jpg,,,,,,,,,,,,,,,,,,,,,,,,,,,,,,,,,
5e37f48dfbcc9d75be926c70,2023-06-16_10h15.10.754,phx_ver10,2022.2.5,MacIntel,60.0024001,,,,,space,0.6848,0,40,40,31,1,32,training,zh2x,e,zh2x_e,zh2x_8_exe.wav,,exe.jpg,,,,,,,,,,,,,,,,,,,,,,,,,,,,,,,,,
5e37f48dfbcc9d75be926c70,2023-06-16_10h15.10.754,phx_ver10,2022.2.5,MacIntel,60.0024001,,,,,space,0.8673,0,41,41,23,1,24,training,zh2x,e,zh2x_e,zh2x_4_ezhe.wav,,ezhe.jpg,,,,,,,,,,,,,,,,,,,,,,,,,,,,,,,,,
5e37f48dfbcc9d75be926c70,2023-06-16_10h15.10.754,phx_ver10,2022.2.5,MacIntel,60.0024001,,,,,,,,,,,,,attn_test,,,,zh2x_1_ezhe.wav,zh2x_1_azha.wav,ezhe.jpg,LEFT,,f,0.3346,space,1.0343,0,0,0,0,1,,,,,,,,,,,,,,,,,,,,,,
5e37f48dfbcc9d75be926c70,2023-06-16_10h15.10.754,phx_ver10,2022.2.5,MacIntel,60.0024001,,,,,space,3.5358,0,42,42,10,1,11,training,zh2x,a,zh2x_a,zh2x_6_axa.wav,,axa.jpg,,,,,,,,,,,,,,,,,,,,,,,,,,,,,,,,,
5e37f48dfbcc9d75be926c70,2023-06-16_10h15.10.754,phx_ver10,2022.2.5,MacIntel,60.0024001,,,,,space,1.1057,0,43,43,26,1,27,training,zh2x,e,zh2x_e,zh2x_6_exe.wav,,exe.jpg,,,,,,,,,,,,,,,,,,,,,,,,,,,,,,,,,
5e37f48dfbcc9d75be926c70,2023-06-16_10h15.10.754,phx_ver10,2022.2.5,MacIntel,60.0024001,,,,,space,0.6666,0,44,44,18,1,19,training,zh2x,e,zh2x_e,zh2x_2_ezhe.wav,,ezhe.jpg,,,,,,,,,,,,,,,,,,,,,,,,,,,,,,,,,
5e37f48dfbcc9d75be926c70,2023-06-16_10h15.10.754,phx_ver10,2022.2.5,MacIntel,60.0024001,,,,,space,0.7365,0,45,45,40,1,41,training,zh2x,i,zh2x_i,zh2x_5_ixi.wav,,ixi.jpg,,,,,,,,,,,,,,,,,,,,,,,,,,,,,,,,,
5e37f48dfbcc9d75be926c70,2023-06-16_10h15.10.754,phx_ver10,2022.2.5,MacIntel,60.0024001,,,,,space,0.8377,0,46,46,4,1,5,training,zh2x,a,zh2x_a,zh2x_2_azha.wav,,azha.jpg,,,,,,,,,,,,,,,,,,,,,,,,,,,,,,,,,
5e37f48dfbcc9d75be926c70,2023-06-16_10h15.10.754,phx_ver10,2022.2.5,MacIntel,60.0024001,,,,,space,0.6196,0,47,47,30,1,31,training,zh2x,e,zh2x_e,zh2x_7_exe.wav,,exe.jpg,,,,,,,,,,,,,,,,,,,,,,,,,,,,,,,,,
5e37f48dfbcc9d75be926c70,2023-06-16_10h15.10.754,phx_ver10,2022.2.5,MacIntel,60.0024001,,,,,,,,,,,,,attn_test,,,,zh2x_8_axa.wav,zh2x_1_izhi.wav,axa.jpg,LEFT,,f,1.6324,space,2.0667,,,,,,,,,,,,,,,,,,,,,,,,,,,
5e37f48dfbcc9d75be926c70,2023-06-16_10h15.10.754,phx_ver10,2022.2.5,MacIntel,60.0024001,,,,,,,,,,,,,,,,,,,,,,,,,,,,,,,space,1.1495,,,,,,,,,,,,,,,,,,,,
5e37f48dfbcc9d75be926c70,2023-06-16_10h15.10.754,phx_ver10,2022.2.5,MacIntel,60.0024001,,,,,,,,,,,,,,,,,,,,,,,,,,,,,,,,,space,4.155,,,,,,,,,,,,,,,,,,
5e37f48dfbcc9d75be926c70,2023-06-16_10h15.10.754,phx_ver10,2022.2.5,MacIntel,60.0024001,,,,,,,,,,,,3,testing_pre,,,,afa.wav,aha.wav,,FALSE,,,,,,,,,,,,,,,j,1.6671,space,2.9483,0,0,0,2,1,,,,,,,,,
5e37f48dfbcc9d75be926c70,2023-06-16_10h15.10.754,phx_ver10,2022.2.5,MacIntel,60.0024001,,,,,,,,,,,,4,testing_pre,,,,eihei.wav,eihei.wav,,TRUE,,,,,,,,,,,,,,,f,1.0002,space,1.7671,0,1,1,3,1,,,,,,,,,
5e37f48dfbcc9d75be926c70,2023-06-16_10h15.10.754,phx_ver10,2022.2.5,MacIntel,60.0024001,,,,,,,,,,,,5,testing_pre,,,,ihi.wav,ifi.wav,,FALSE,,,,,,,,,,,,,,,j,0.8659,space,1.4834,0,2,2,4,1,,,,,,,,,
5e37f48dfbcc9d75be926c70,2023-06-16_10h15.10.754,phx_ver10,2022.2.5,MacIntel,60.0024001,,,,,,,,,,,,2,testing_pre,,,,auhau.wav,aufau.wav,,FALSE,,,,,,,,,,,,,,,j,0.7036,space,1.367,0,3,3,1,1,,,,,,,,,
5e37f48dfbcc9d75be926c70,2023-06-16_10h15.10.754,phx_ver10,2022.2.5,MacIntel,60.0024001,,,,,,,,,,,,1,testing_pre,,,,ifi.wav,ifi.wav,,TRUE,,,,,,,,,,,,,,,f,0.5152,space,1.122,0,4,4,0,1,,,,,,,,,
5e37f48dfbcc9d75be926c70,2023-06-16_10h15.10.754,phx_ver10,2022.2.5,MacIntel,60.0024001,,,,,,,,,,,,,,,,,,,,,,,,,,,,,,,,,,,,,,,,,,,,space,1.2028,,,,,,,
5e37f48dfbcc9d75be926c70,2023-06-16_10h15.10.754,phx_ver10,2022.2.5,MacIntel,60.0024001,,,,,,,,,,,,50,testing_3,zh2j,a,zh2j_a,zh2j_8_aja.wav,zh2j_8_aja.wav,,TRUE,FALSE,,,,,,,,,,,,,,f,1.3164,space,1.8653,,,,,,,,0,0,0,49,1,,
5e37f48dfbcc9d75be926c70,2023-06-16_10h15.10.754,phx_ver10,2022.2.5,MacIntel,60.0024001,,,,,,,,,,,,72,testing_3,zh2j,i,zh2j_i,zh2j_8_iji.wav,zh2j_1_izhi.wav,,FALSE,FALSE,,,,,,,,,,,,,,f,0.9875,space,1.5691,,,,,,,,0,1,1,71,1,,
5e37f48dfbcc9d75be926c70,2023-06-16_10h15.10.754,phx_ver10,2022.2.5,MacIntel,60.0024001,,,,,,,,,,,,33,testing_3,zh2sh,au,zh2sh_au,zh2sh_1_auzhau.wav,zh2sh_1_auzhau.wav,,TRUE,FALSE,,,,,,,,,,,,,,f,0.4666,space,1.0188,,,,,,,,0,2,2,32,1,,
5e37f48dfbcc9d75be926c70,2023-06-16_10h15.10.754,phx_ver10,2022.2.5,MacIntel,60.0024001,,,,,,,,,,,,124,testing_3,sh2j,a,sh2j_a,sh2j_8_aja.wav,sh2j_1_asha.wav,,FALSE,FALSE,,,,,,,,,,,,,,j,0.6558,space,1.1025,,,,,,,,0,3,3,123,1,,
5e37f48dfbcc9d75be926c70,2023-06-16_10h15.10.754,phx_ver10,2022.2.5,MacIntel,60.0024001,,,,,,,,,,,,48,testing_3,zh2sh,i,zh2sh_i,zh2sh_8_ishi.wav,zh2sh_1_izhi.wav,,FALSE,FALSE,,,,,,,,,,,,,,j,1.9165,space,2.2998,,,,,,,,0,4,4,47,1,,
5e37f48dfbcc9d75be926c70,2023-06-16_10h15.10.754,phx_ver10,2022.2.5,MacIntel,60.0024001,,,,,,,,,,,,135,testing_3,sh2j,e,sh2j_e,sh2j_1_eshe.wav,sh2j_8_eje.wav,,FALSE,FALSE,,,,,,,,,,,,,,j,1.449,space,1.8654,,,,,,,,0,5,5,134,1,,
5e37f48dfbcc9d75be926c70,2023-06-16_10h15.10.754,phx_ver10,2022.2.5,MacIntel,60.0024001,,,,,,,,,,,,92,testing_3,j2x,ei,j2x_ei,j2x_8_eixei.wav,j2x_1_eijei.wav,,FALSE,FALSE,,,,,,,,,,,,,,f,0.9511,space,1.2867,,,,,,,,0,6,6,91,1,,
5e37f48dfbcc9d75be926c70,2023-06-16_10h15.10.754,phx_ver10,2022.2.5,MacIntel,60.0024001,,,,,,,,,,,,129,testing_3,sh2j,au,sh2j_au,sh2j_1_aushau.wav,sh2j_1_aushau.wav,,TRUE,FALSE,,,,,,,,,,,,,,f,0.6848,space,1.5007,,,,,,,,0,7,7,128,1,,
5e37f48dfbcc9d75be926c70,2023-06-16_10h15.10.754,phx_ver10,2022.2.5,MacIntel,60.0024001,,,,,,,,,,,,37,testing_3,zh2sh,e,zh2sh_e,zh2sh_1_ezhe.wav,zh2sh_1_ezhe.wav,,TRUE,FALSE,,,,,,,,,,,,,,f,0.6538,space,1.2701,,,,,,,,0,8,8,36,1,,
5e37f48dfbcc9d75be926c70,2023-06-16_10h15.10.754,phx_ver10,2022.2.5,MacIntel,60.0024001,,,,,,,,,,,,51,testing_3,zh2j,a,zh2j_a,zh2j_1_azha.wav,zh2j_8_aja.wav,,FALSE,FALSE,,,,,,,,,,,,,,f,0.6663,space,1.0507,,,,,,,,0,9,9,50,1,,
5e37f48dfbcc9d75be926c70,2023-06-16_10h15.10.754,phx_ver10,2022.2.5,MacIntel,60.0024001,,,,,,,,,,,,110,testing_3,sh2x,e,sh2x_e,sh2x_8_exe.wav,sh2x_8_exe.wav,,TRUE,FALSE,,,,,,,,,,,,,,f,0.5693,space,1.1334,,,,,,,,0,10,10,109,1,,
5e37f48dfbcc9d75be926c70,2023-06-16_10h15.10.754,phx_ver10,2022.2.5,MacIntel,60.0024001,,,,,,,,,,,,132,testing_3,sh2j,au,sh2j_au,sh2j_8_aujau.wav,sh2j_1_aushau.wav,,FALSE,FALSE,,,,,,,,,,,,,,j,0.4348,space,0.8858,,,,,,,,0,11,11,131,1,,
5e37f48dfbcc9d75be926c70,2023-06-16_10h15.10.754,phx_ver10,2022.2.5,MacIntel,60.0024001,,,,,,,,,,,,69,testing_3,zh2j,i,zh2j_i,zh2j_1_izhi.wav,zh2j_1_izhi.wav,,TRUE,FALSE,,,,,,,,,,,,,,f,0.4369,space,0.8169,,,,,,,,0,12,12,68,1,,
5e37f48dfbcc9d75be926c70,2023-06-16_10h15.10.754,phx_ver10,2022.2.5,MacIntel,60.0024001,,,,,,,,,,,,17,testing_2,zh2x,au,zh2x_au,zh2x_1_auzhau.wav,zh2x_1_auzhau.wav,,TRUE,FALSE,,,,,,,,,,,,,,f,0.6655,space,1.2748,,,,,,,,0,13,13,16,1,,
5e37f48dfbcc9d75be926c70,2023-06-16_10h15.10.754,phx_ver10,2022.2.5,MacIntel,60.0024001,,,,,,,,,,,,5,testing_1,zh2x,e,zh2x_e,zh2x_1_ezhe.wav,zh2x_1_ezhe_copy.wav,,TRUE,TRUE,,,,,,,,,,,,,,f,1.1659,space,1.7997,,,,,,,,0,14,14,4,1,,
5e37f48dfbcc9d75be926c70,2023-06-16_10h15.10.754,phx_ver10,2022.2.5,MacIntel,60.0024001,,,,,,,,,,,,131,testing_3,sh2j,au,sh2j_au,sh2j_1_aushau.wav,sh2j_8_aujau.wav,,FALSE,FALSE,,,,,,,,,,,,,,j,0.2662,space,3.4841,,,,,,,,0,15,15,130,1,,
5e37f48dfbcc9d75be926c70,2023-06-16_10h15.10.754,phx_ver10,2022.2.5,MacIntel,60.0024001,,,,,,,,,,,,43,testing_3,zh2sh,ei,zh2sh_ei,zh2sh_1_eizhei.wav,zh2sh_8_eishei.wav,,FALSE,FALSE,,,,,,,,,,,,,,j,0.488,space,0.9019,,,,,,,,0,16,16,42,1,,
5e37f48dfbcc9d75be926c70,2023-06-16_10h15.10.754,phx_ver10,2022.2.5,MacIntel,60.0024001,,,,,,,,,,,,9,testing_1,zh2x,i,zh2x_i,zh2x_1_izhi.wav,zh2x_1_izhi_copy.wav,,TRUE,TRUE,,,,,,,,,,,,,,f,0.7168,space,1.0832,,,,,,,,0,17,17,8,1,,
5e37f48dfbcc9d75be926c70,2023-06-16_10h15.10.754,phx_ver10,2022.2.5,MacIntel,60.0024001,,,,,,,,,,,,119,testing_3,sh2x,i,sh2x_i,sh2x_1_ishi.wav,sh2x_8_ixi.wav,,FALSE,FALSE,,,,,,,,,,,,,,j,3.3172,space,4.0679,,,,,,,,0,18,18,118,1,,
5e37f48dfbcc9d75be926c70,2023-06-16_10h15.10.754,phx_ver10,2022.2.5,MacIntel,60.0024001,,,,,,,,,,,,85,testing_3,j2x,e,j2x_e,j2x_1_eje.wav,j2x_1_eje.wav,,TRUE,FALSE,,,,,,,,,,,,,,f,0.6988,space,1.0825,,,,,,,,0,19,19,84,1,,
5e37f48dfbcc9d75be926c70,2023-06-16_10h15.10.754,phx_ver10,2022.2.5,MacIntel,60.0024001,,,,,,,,,,,,137,testing_3,sh2j,ei,sh2j_ei,sh2j_1_eishei.wav,sh2j_1_eishei.wav,,TRUE,FALSE,,,,,,,,,,,,,,f,0.5837,space,0.9494,,,,,,,,0,20,20,136,1,,
5e37f48dfbcc9d75be926c70,2023-06-16_10h15.10.754,phx_ver10,2022.2.5,MacIntel,60.0024001,,,,,,,,,,,,133,testing_3,sh2j,e,sh2j_e,sh2j_1_eshe.wav,sh2j_1_eshe.wav,,TRUE,FALSE,,,,,,,,,,,,,,f,0.737,space,1.0713,,,,,,,,0,21,21,132,1,,
5e37f48dfbcc9d75be926c70,2023-06-16_10h15.10.754,phx_ver10,2022.2.5,MacIntel,60.0024001,,,,,,,,,,,,89,testing_3,j2x,ei,j2x_ei,j2x_1_eijei.wav,j2x_1_eijei.wav,,TRUE,FALSE,,,,,,,,,,,,,,f,0.316,space,0.6664,,,,,,,,0,22,22,88,1,,
5e37f48dfbcc9d75be926c70,2023-06-16_10h15.10.754,phx_ver10,2022.2.5,MacIntel,60.0024001,,,,,,,,,,,,25,testing_3,zh2sh,a,zh2sh_a,zh2sh_1_azha.wav,zh2sh_1_azha.wav,,TRUE,FALSE,,,,,,,,,,,,,,f,0.8548,space,1.2155,,,,,,,,0,23,23,24,1,,
5e37f48dfbcc9d75be926c70,2023-06-16_10h15.10.754,phx_ver10,2022.2.5,MacIntel,60.0024001,,,,,,,,,,,,108,testing_3,sh2x,au,sh2x_au,sh2x_8_auxau.wav,sh2x_1_aushau.wav,,FALSE,FALSE,,,,,,,,,,,,,,j,0.4328,space,1.1663,,,,,,,,0,24,24,107,1,,
5e37f48dfbcc9d75be926c70,2023-06-16_10h15.10.754,phx_ver10,2022.2.5,MacIntel,60.0024001,,,,,,,,,,,,27,testing_3,zh2sh,a,zh2sh_a,zh2sh_1_azha.wav,zh2sh_8_asha.wav,,FALSE,FALSE,,,,,,,,,,,,,,j,1.1168,space,1.549,,,,,,,,0,25,25,26,1,,
5e37f48dfbcc9d75be926c70,2023-06-16_10h15.10.754,phx_ver10,2022.2.5,MacIntel,60.0024001,,,,,,,,,,,,77,testing_3,j2x,ai,j2x_ai,j2x_1_aijai.wav,j2x_1_aijai.wav,,TRUE,FALSE,,,,,,,,,,,,,,f,0.538,space,0.9168,,,,,,,,0,26,26,76,1,,
5e37f48dfbcc9d75be926c70,2023-06-16_10h15.10.754,phx_ver10,2022.2.5,MacIntel,60.0024001,,,,,,,,,,,,40,testing_3,zh2sh,e,zh2sh_e,zh2sh_8_eshe.wav,zh2sh_1_ezhe.wav,,FALSE,FALSE,,,,,,,,,,,,,,j,0.4493,space,1.3332,,,,,,,,0,27,27,39,1,,
5e37f48dfbcc9d75be926c70,2023-06-16_10h15.10.754,phx_ver10,2022.2.5,MacIntel,60.0024001,,,,,,,,,,,,98,testing_3,sh2x,a,sh2x_a,sh2x_8_axa.wav,sh2x_8_axa.wav,,TRUE,FALSE,,,,,,,,,,,,,,f,2.7868,space,3.6001,,,,,,,,0,28,28,97,1,,
5e37f48dfbcc9d75be926c70,2023-06-16_10h15.10.754,phx_ver10,2022.2.5,MacIntel,60.0024001,,,,,,,,,,,,62,testing_3,zh2j,e,zh2j_e,zh2j_8_eje.wav,zh2j_8_eje.wav,,TRUE,FALSE,,,,,,,,,,,,,,f,0.8829,space,1.4331,,,,,,,,0,29,29,61,1,,
5e37f48dfbcc9d75be926c70,2023-06-16_10h15.10.754,phx_ver10,2022.2.5,MacIntel,60.0024001,,,,,,,,,,,,97,testing_3,sh2x,a,sh2x_a,sh2x_1_asha.wav,sh2x_1_asha.wav,,TRUE,FALSE,,,,,,,,,,,,,,f,1.6861,space,2.1158,,,,,,,,0,30,30,96,1,,
5e37f48dfbcc9d75be926c70,2023-06-16_10h15.10.754,phx_ver10,2022.2.5,MacIntel,60.0024001,,,,,,,,,,,,75,testing_3,j2x,a,j2x_a,j2x_1_aja.wav,j2x_8_axa.wav,,FALSE,FALSE,,,,,,,,,,,,,,j,0.5339,space,1.2997,,,,,,,,0,31,31,74,1,,
5e37f48dfbcc9d75be926c70,2023-06-16_10h15.10.754,phx_ver10,2022.2.5,MacIntel,60.0024001,,,,,,,,,,,,120,testing_3,sh2x,i,sh2x_i,sh2x_8_ixi.wav,sh2x_1_ishi.wav,,FALSE,FALSE,,,,,,,,,,,,,,f,0.7007,space,1.2821,,,,,,,,0,32,32,119,1,,
5e37f48dfbcc9d75be926c70,2023-06-16_10h15.10.754,phx_ver10,2022.2.5,MacIntel,60.0024001,,,,,,,,,,,,68,testing_3,zh2j,ei,zh2j_ei,zh2j_8_eijei.wav,zh2j_1_eizhei.wav,,FALSE,FALSE,,,,,,,,,,,,,,f,0.6667,space,2.1166,,,,,,,,0,33,33,67,1,,
5e37f48dfbcc9d75be926c70,2023-06-16_10h15.10.754,phx_ver10,2022.2.5,MacIntel,60.0024001,,,,,,,,,,,,82,testing_3,j2x,au,j2x_au,j2x_8_auxau.wav,j2x_8_auxau.wav,,TRUE,FALSE,,,,,,,,,,,,,,f,0.7164,space,1.0552,,,,,,,,0,34,34,81,1,,
5e37f48dfbcc9d75be926c70,2023-06-16_10h15.10.754,phx_ver10,2022.2.5,MacIntel,60.0024001,,,,,,,,,,,,15,testing_2,zh2x,ai,zh2x_ai,zh2x_1_aizhai.wav,zh2x_8_aixai.wav,,FALSE,FALSE,,,,,,,,,,,,,,j,0.3361,space,0.816,,,,,,,,0,35,35,14,1,,
5e37f48dfbcc9d75be926c70,2023-06-16_10h15.10.754,phx_ver10,2022.2.5,MacIntel,60.0024001,,,,,,,,,,,,88,testing_3,j2x,e,j2x_e,j2x_8_exe.wav,j2x_1_eje.wav,,FALSE,FALSE,,,,,,,,,,,,,,j,1.3662,space,1.7677,,,,,,,,0,36,36,87,1,,
5e37f48dfbcc9d75be926c70,2023-06-16_10h15.10.754,phx_ver10,2022.2.5,MacIntel,60.0024001,,,,,,,,,,,,121,testing_3,sh2j,a,sh2j_a,sh2j_1_asha.wav,sh2j_1_asha.wav,,TRUE,FALSE,,,,,,,,,,,,,,f,0.7333,space,1.0358,,,,,,,,0,37,37,120,1,,
5e37f48dfbcc9d75be926c70,2023-06-16_10h15.10.754,phx_ver10,2022.2.5,MacIntel,60.0024001,,,,,,,,,,,,90,testing_3,j2x,ei,j2x_ei,j2x_8_eixei.wav,j2x_8_eixei.wav,,TRUE,FALSE,,,,,,,,,,,,,,f,0.8158,space,1.1327,,,,,,,,0,38,38,89,1,,
5e37f48dfbcc9d75be926c70,2023-06-16_10h15.10.754,phx_ver10,2022.2.5,MacIntel,60.0024001,,,,,,,,,,,,126,testing_3,sh2j,ai,sh2j_ai,sh2j_8_aijai.wav,sh2j_8_aijai.wav,,TRUE,FALSE,,,,,,,,,,,,,,f,0.5494,space,0.9843,,,,,,,,0,39,39,125,1,,
5e37f48dfbcc9d75be926c70,2023-06-16_10h15.10.754,phx_ver10,2022.2.5,MacIntel,60.0024001,,,,,,,,,,,,23,testing_2,zh2x,ei,zh2x_ei,zh2x_1_eizhei.wav,zh2x_8_eixei.wav,,FALSE,FALSE,,,,,,,,,,,,,,j,0.2857,space,0.6681,,,,,,,,0,40,40,22,1,,
5e37f48dfbcc9d75be926c70,2023-06-16_10h15.10.754,phx_ver10,2022.2.5,MacIntel,60.0024001,,,,,,,,,,,,101,testing_3,sh2x,ai,sh2x_ai,sh2x_1_aishai.wav,sh2x_1_aishai.wav,,TRUE,FALSE,,,,,,,,,,,,,,f,0.7215,space,1.0341,,,,,,,,0,41,41,100,1,,
5e37f48dfbcc9d75be926c70,2023-06-16_10h15.10.754,phx_ver10,2022.2.5,MacIntel,60.0024001,,,,,,,,,,,,87,testing_3,j2x,e,j2x_e,j2x_1_eje.wav,j2x_8_exe.wav,,FALSE,FALSE,,,,,,,,,,,,,,j,0.2151,space,1.7019,,,,,,,,0,42,42,86,1,,
5e37f48dfbcc9d75be926c70,2023-06-16_10h15.10.754,phx_ver10,2022.2.5,MacIntel,60.0024001,,,,,,,,,,,,28,testing_3,zh2sh,a,zh2sh_a,zh2sh_8_asha.wav,zh2sh_1_azha.wav,,FALSE,FALSE,,,,,,,,,,,,,,j,0.267,space,0.6999,,,,,,,,0,43,43,27,1,,
5e37f48dfbcc9d75be926c70,2023-06-16_10h15.10.754,phx_ver10,2022.2.5,MacIntel,60.0024001,,,,,,,,,,,,46,testing_3,zh2sh,i,zh2sh_i,zh2sh_8_ishi.wav,zh2sh_8_ishi.wav,,TRUE,FALSE,,,,,,,,,,,,,,f,0.1995,space,0.7673,,,,,,,,0,44,44,45,1,,
5e37f48dfbcc9d75be926c70,2023-06-16_10h15.10.754,phx_ver10,2022.2.5,MacIntel,60.0024001,,,,,,,,,,,,49,testing_3,zh2j,a,zh2j_a,zh2j_1_azha.wav,zh2j_1_azha.wav,,TRUE,FALSE,,,,,,,,,,,,,,f,0.2843,space,0.8385,,,,,,,,0,45,45,48,1,,
5e37f48dfbcc9d75be926c70,2023-06-16_10h15.10.754,phx_ver10,2022.2.5,MacIntel,60.0024001,,,,,,,,,,,,63,testing_3,zh2j,e,zh2j_e,zh2j_1_ezhe.wav,zh2j_8_eje.wav,,FALSE,FALSE,,,,,,,,,,,,,,f,0.2164,space,0.5322,,,,,,,,0,46,46,62,1,,
5e37f48dfbcc9d75be926c70,2023-06-16_10h15.10.754,phx_ver10,2022.2.5,MacIntel,60.0024001,,,,,,,,,,,,19,testing_2,zh2x,au,zh2x_au,zh2x_1_auzhau.wav,zh2x_8_auxau.wav,,FALSE,FALSE,,,,,,,,,,,,,,j,0.1487,space,0.6007,,,,,,,,0,47,47,18,1,,
5e37f48dfbcc9d75be926c70,2023-06-16_10h15.10.754,phx_ver10,2022.2.5,MacIntel,60.0024001,,,,,,,,,,,,47,testing_3,zh2sh,i,zh2sh_i,zh2sh_1_izhi.wav,zh2sh_8_ishi.wav,,FALSE,FALSE,,,,,,,,,,,,,,j,0.2182,space,0.6201,,,,,,,,0,48,48,46,1,,
5e37f48dfbcc9d75be926c70,2023-06-16_10h15.10.754,phx_ver10,2022.2.5,MacIntel,60.0024001,,,,,,,,,,,,116,testing_3,sh2x,ei,sh2x_ei,sh2x_8_eixei.wav,sh2x_1_eishei.wav,,FALSE,FALSE,,,,,,,,,,,,,,f,0.6397,space,0.9513,,,,,,,,0,49,49,115,1,,
5e37f48dfbcc9d75be926c70,2023-06-16_10h15.10.754,phx_ver10,2022.2.5,MacIntel,60.0024001,,,,,,,,,,,,95,testing_3,j2x,i,j2x_i,j2x_1_iji.wav,j2x_8_ixi.wav,,FALSE,FALSE,,,,,,,,,,,,,,j,0.134,space,0.4987,,,,,,,,0,50,50,94,1,,
5e37f48dfbcc9d75be926c70,2023-06-16_10h15.10.754,phx_ver10,2022.2.5,MacIntel,60.0024001,,,,,,,,,,,,71,testing_3,zh2j,i,zh2j_i,zh2j_1_izhi.wav,zh2j_8_iji.wav,,FALSE,FALSE,,,,,,,,,,,,,,f,0.3897,space,0.7015,,,,,,,,0,51,51,70,1,,
5e37f48dfbcc9d75be926c70,2023-06-16_10h15.10.754,phx_ver10,2022.2.5,MacIntel,60.0024001,,,,,,,,,,,,81,testing_3,j2x,au,j2x_au,j2x_1_aujau.wav,j2x_1_aujau.wav,,TRUE,FALSE,,,,,,,,,,,,,,f,0.3506,space,0.6165,,,,,,,,0,52,52,80,1,,
5e37f48dfbcc9d75be926c70,2023-06-16_10h15.10.754,phx_ver10,2022.2.5,MacIntel,60.0024001,,,,,,,,,,,,52,testing_3,zh2j,a,zh2j_a,zh2j_8_aja.wav,zh2j_1_azha.wav,,FALSE,FALSE,,,,,,,,,,,,,,f,0.5016,space,1.0513,,,,,,,,0,53,53,51,1,,
5e37f48dfbcc9d75be926c70,2023-06-16_10h15.10.754,phx_ver10,2022.2.5,MacIntel,60.0024001,,,,,,,,,,,,134,testing_3,sh2j,e,sh2j_e,sh2j_8_eje.wav,sh2j_8_eje.wav,,TRUE,FALSE,,,,,,,,,,,,,,f,0.2504,space,0.6009,,,,,,,,0,54,54,133,1,,
5e37f48dfbcc9d75be926c70,2023-06-16_10h15.10.754,phx_ver10,2022.2.5,MacIntel,60.0024001,,,,,,,,,,,,123,testing_3,sh2j,a,sh2j_a,sh2j_1_asha.wav,sh2j_8_aja.wav,,FALSE,FALSE,,,,,,,,,,,,,,j,0.5214,space,1.0526,,,,,,,,0,55,55,122,1,,
5e37f48dfbcc9d75be926c70,2023-06-16_10h15.10.754,phx_ver10,2022.2.5,MacIntel,60.0024001,,,,,,,,,,,,65,testing_3,zh2j,ei,zh2j_ei,zh2j_1_eizhei.wav,zh2j_1_eizhei.wav,,TRUE,FALSE,,,,,,,,,,,,,,f,0.8341,space,1.3339,,,,,,,,0,56,56,64,1,,
5e37f48dfbcc9d75be926c70,2023-06-16_10h15.10.754,phx_ver10,2022.2.5,MacIntel,60.0024001,,,,,,,,,,,,78,testing_3,j2x,ai,j2x_ai,j2x_8_aixai.wav,j2x_8_aixai.wav,,TRUE,FALSE,,,,,,,,,,,,,,f,0.5329,space,1.0334,,,,,,,,0,57,57,77,1,,
5e37f48dfbcc9d75be926c70,2023-06-16_10h15.10.754,phx_ver10,2022.2.5,MacIntel,60.0024001,,,,,,,,,,,,76,testing_3,j2x,a,j2x_a,j2x_8_axa.wav,j2x_1_aja.wav,,FALSE,FALSE,,,,,,,,,,,,,,j,0.251,space,0.735,,,,,,,,0,58,58,75,1,,
5e37f48dfbcc9d75be926c70,2023-06-16_10h15.10.754,phx_ver10,2022.2.5,MacIntel,60.0024001,,,,,,,,,,,,42,testing_3,zh2sh,ei,zh2sh_ei,zh2sh_8_eishei.wav,zh2sh_8_eishei.wav,,TRUE,FALSE,,,,,,,,,,,,,,f,0.3677,space,1.067,,,,,,,,0,59,59,41,1,,
5e37f48dfbcc9d75be926c70,2023-06-16_10h15.10.754,phx_ver10,2022.2.5,MacIntel,60.0024001,,,,,,,,,,,,55,testing_3,zh2j,ai,zh2j_ai,zh2j_1_aizhai.wav,zh2j_8_aijai.wav,,FALSE,FALSE,,,,,,,,,,,,,,f,0.2671,space,0.6504,,,,,,,,0,60,60,54,1,,
5e37f48dfbcc9d75be926c70,2023-06-16_10h15.10.754,phx_ver10,2022.2.5,MacIntel,60.0024001,,,,,,,,,,,,130,testing_3,sh2j,au,sh2j_au,sh2j_8_aujau.wav,sh2j_8_aujau.wav,,TRUE,FALSE,,,,,,,,,,,,,,f,0.2672,space,0.821,,,,,,,,0,61,61,129,1,,
5e37f48dfbcc9d75be926c70,2023-06-16_10h15.10.754,phx_ver10,2022.2.5,MacIntel,60.0024001,,,,,,,,,,,,36,testing_3,zh2sh,au,zh2sh_au,zh2sh_8_aushau.wav,zh2sh_1_auzhau.wav,,FALSE,FALSE,,,,,,,,,,,,,,j,0.2176,space,1.0164,,,,,,,,0,62,62,35,1,,
5e37f48dfbcc9d75be926c70,2023-06-16_10h15.10.754,phx_ver10,2022.2.5,MacIntel,60.0024001,,,,,,,,,,,,54,testing_3,zh2j,ai,zh2j_ai,zh2j_8_aijai.wav,zh2j_8_aijai.wav,,TRUE,FALSE,,,,,,,,,,,,,,f,0.4693,space,1.0004,,,,,,,,0,63,63,53,1,,
5e37f48dfbcc9d75be926c70,2023-06-16_10h15.10.754,phx_ver10,2022.2.5,MacIntel,60.0024001,,,,,,,,,,,,107,testing_3,sh2x,au,sh2x_au,sh2x_1_aushau.wav,sh2x_8_auxau.wav,,FALSE,FALSE,,,,,,,,,,,,,,j,0.3722,space,1.1666,,,,,,,,0,64,64,106,1,,
5e37f48dfbcc9d75be926c70,2023-06-16_10h15.10.754,phx_ver10,2022.2.5,MacIntel,60.0024001,,,,,,,,,,,,103,testing_3,sh2x,ai,sh2x_ai,sh2x_1_aishai.wav,sh2x_8_aixai.wav,,FALSE,FALSE,,,,,,,,,,,,,,j,0.8694,space,1.6833,,,,,,,,0,65,65,102,1,,
5e37f48dfbcc9d75be926c70,2023-06-16_10h15.10.754,phx_ver10,2022.2.5,MacIntel,60.0024001,,,,,,,,,,,,20,testing_2,zh2x,au,zh2x_au,zh2x_8_auxau.wav,zh2x_1_auzhau.wav,,FALSE,FALSE,,,,,,,,,,,,,,j,0.2735,space,0.6671,,,,,,,,0,66,66,19,1,,
5e37f48dfbcc9d75be926c70,2023-06-16_10h15.10.754,phx_ver10,2022.2.5,MacIntel,60.0024001,,,,,,,,,,,,104,testing_3,sh2x,ai,sh2x_ai,sh2x_8_aixai.wav,sh2x_1_aishai.wav,,FALSE,FALSE,,,,,,,,,,,,,,j,0.9852,space,1.467,,,,,,,,0,67,67,103,1,,
5e37f48dfbcc9d75be926c70,2023-06-16_10h15.10.754,phx_ver10,2022.2.5,MacIntel,60.0024001,,,,,,,,,,,,7,testing_1,zh2x,e,zh2x_e,zh2x_1_ezhe.wav,zh2x_8_exe.wav,,FALSE,TRUE,,,,,,,,,,,,,,j,0.2656,space,0.752,,,,,,,,0,68,68,6,1,,
5e37f48dfbcc9d75be926c70,2023-06-16_10h15.10.754,phx_ver10,2022.2.5,MacIntel,60.0024001,,,,,,,,,,,,8,testing_1,zh2x,e,zh2x_e,zh2x_8_exe.wav,zh2x_1_ezhe.wav,,FALSE,TRUE,,,,,,,,,,,,,,j,0.2328,space,0.6881,,,,,,,,0,69,69,7,1,,
5e37f48dfbcc9d75be926c70,2023-06-16_10h15.10.754,phx_ver10,2022.2.5,MacIntel,60.0024001,,,,,,,,,,,,115,testing_3,sh2x,ei,sh2x_ei,sh2x_1_eishei.wav,sh2x_8_eixei.wav,,FALSE,FALSE,,,,,,,,,,,,,,j,0.372,space,0.8672,,,,,,,,0,70,70,114,1,,
5e37f48dfbcc9d75be926c70,2023-06-16_10h15.10.754,phx_ver10,2022.2.5,MacIntel,60.0024001,,,,,,,,,,,,122,testing_3,sh2j,a,sh2j_a,sh2j_8_aja.wav,sh2j_8_aja.wav,,TRUE,FALSE,,,,,,,,,,,,,,f,0.3202,space,0.6325,,,,,,,,0,71,71,121,1,,
5e37f48dfbcc9d75be926c70,2023-06-16_10h15.10.754,phx_ver10,2022.2.5,MacIntel,60.0024001,,,,,,,,,,,,141,testing_3,sh2j,i,sh2j_i,sh2j_1_ishi.wav,sh2j_1_ishi.wav,,TRUE,FALSE,,,,,,,,,,,,,,f,0.2505,space,0.6675,,,,,,,,0,72,72,140,1,,
5e37f48dfbcc9d75be926c70,2023-06-16_10h15.10.754,phx_ver10,2022.2.5,MacIntel,60.0024001,,,,,,,,,,,,96,testing_3,j2x,i,j2x_i,j2x_8_ixi.wav,j2x_1_iji.wav,,FALSE,FALSE,,,,,,,,,,,,,,j,0.2497,space,0.6023,,,,,,,,0,73,73,95,1,,
5e37f48dfbcc9d75be926c70,2023-06-16_10h15.10.754,phx_ver10,2022.2.5,MacIntel,60.0024001,,,,,,,,,,,,94,testing_3,j2x,i,j2x_i,j2x_8_ixi.wav,j2x_8_ixi.wav,,TRUE,FALSE,,,,,,,,,,,,,,f,0.2035,space,0.4509,,,,,,,,0,74,74,93,1,,
5e37f48dfbcc9d75be926c70,2023-06-16_10h15.10.754,phx_ver10,2022.2.5,MacIntel,60.0024001,,,,,,,,,,,,16,testing_2,zh2x,ai,zh2x_ai,zh2x_8_aixai.wav,zh2x_1_aizhai.wav,,FALSE,FALSE,,,,,,,,,,,,,,j,0.1019,space,0.4357,,,,,,,,0,75,75,15,1,,
5e37f48dfbcc9d75be926c70,2023-06-16_10h15.10.754,phx_ver10,2022.2.5,MacIntel,60.0024001,,,,,,,,,,,,35,testing_3,zh2sh,au,zh2sh_au,zh2sh_1_auzhau.wav,zh2sh_8_aushau.wav,,FALSE,FALSE,,,,,,,,,,,,,,j,0.0486,space,0.3882,,,,,,,,0,76,76,34,1,,
5e37f48dfbcc9d75be926c70,2023-06-16_10h15.10.754,phx_ver10,2022.2.5,MacIntel,60.0024001,,,,,,,,,,,,64,testing_3,zh2j,e,zh2j_e,zh2j_8_eje.wav,zh2j_1_ezhe.wav,,FALSE,FALSE,,,,,,,,,,,,,,j,0.0833,space,0.4037,,,,,,,,0,77,77,63,1,,
5e37f48dfbcc9d75be926c70,2023-06-16_10h15.10.754,phx_ver10,2022.2.5,MacIntel,60.0024001,,,,,,,,,,,,1,testing_1,zh2x,a,zh2x_a,zh2x_1_azha.wav,zh2x_1_azha_copy.wav,,TRUE,TRUE,,,,,,,,,,,,,,f,0.333,space,0.5648,,,,,,,,0,78,78,0,1,,
5e37f48dfbcc9d75be926c70,2023-06-16_10h15.10.754,phx_ver10,2022.2.5,MacIntel,60.0024001,,,,,,,,,,,,111,testing_3,sh2x,e,sh2x_e,sh2x_1_eshe.wav,sh2x_8_exe.wav,,FALSE,FALSE,,,,,,,,,,,,,,j,0.116,space,0.4165,,,,,,,,0,79,79,110,1,,
5e37f48dfbcc9d75be926c70,2023-06-16_10h15.10.754,phx_ver10,2022.2.5,MacIntel,60.0024001,,,,,,,,,,,,60,testing_3,zh2j,au,zh2j_au,zh2j_8_aujau.wav,zh2j_1_auzhau.wav,,FALSE,FALSE,,,,,,,,,,,,,,j,1.1677,space,1.5048,,,,,,,,0,80,80,59,1,,
5e37f48dfbcc9d75be926c70,2023-06-16_10h15.10.754,phx_ver10,2022.2.5,MacIntel,60.0024001,,,,,,,,,,,,117,testing_3,sh2x,i,sh2x_i,sh2x_1_ishi.wav,sh2x_1_ishi.wav,,TRUE,FALSE,,,,,,,,,,,,,,f,0.0826,space,0.3501,,,,,,,,0,81,81,116,1,,
5e37f48dfbcc9d75be926c70,2023-06-16_10h15.10.754,phx_ver10,2022.2.5,MacIntel,60.0024001,,,,,,,,,,,,21,testing_2,zh2x,ei,zh2x_ei,zh2x_1_eizhei.wav,zh2x_1_eizhei.wav,,TRUE,FALSE,,,,,,,,,,,,,,f,0.1508,space,0.5509,,,,,,,,0,82,82,20,1,,
5e37f48dfbcc9d75be926c70,2023-06-16_10h15.10.754,phx_ver10,2022.2.5,MacIntel,60.0024001,,,,,,,,,,,,13,testing_2,zh2x,ai,zh2x_ai,zh2x_1_aizhai.wav,zh2x_1_aizhai.wav,,TRUE,FALSE,,,,,,,,,,,,,,f,0.1978,space,0.4521,,,,,,,,0,83,83,12,1,,
5e37f48dfbcc9d75be926c70,2023-06-16_10h15.10.754,phx_ver10,2022.2.5,MacIntel,60.0024001,,,,,,,,,,,,100,testing_3,sh2x,a,sh2x_a,sh2x_8_axa.wav,sh2x_1_asha.wav,,FALSE,FALSE,,,,,,,,,,,,,,j,0.35,space,0.6498,,,,,,,,0,84,84,99,1,,
5e37f48dfbcc9d75be926c70,2023-06-16_10h15.10.754,phx_ver10,2022.2.5,MacIntel,60.0024001,,,,,,,,,,,,12,testing_1,zh2x,i,zh2x_i,zh2x_8_ixi.wav,zh2x_1_izhi.wav,,FALSE,TRUE,,,,,,,,,,,,,,j,0.4842,space,1.4171,,,,,,,,0,85,85,11,1,,
5e37f48dfbcc9d75be926c70,2023-06-16_10h15.10.754,phx_ver10,2022.2.5,MacIntel,60.0024001,,,,,,,,,,,,44,testing_3,zh2sh,ei,zh2sh_ei,zh2sh_8_eishei.wav,zh2sh_1_eizhei.wav,,FALSE,FALSE,,,,,,,,,,,,,,j,0.3164,space,0.6365,,,,,,,,0,86,86,43,1,,
5e37f48dfbcc9d75be926c70,2023-06-16_10h15.10.754,phx_ver10,2022.2.5,MacIntel,60.0024001,,,,,,,,,,,,74,testing_3,j2x,a,j2x_a,j2x_8_axa.wav,j2x_8_axa.wav,,TRUE,FALSE,,,,,,,,,,,,,,f,0.3329,space,0.5664,,,,,,,,0,87,87,73,1,,
5e37f48dfbcc9d75be926c70,2023-06-16_10h15.10.754,phx_ver10,2022.2.5,MacIntel,60.0024001,,,,,,,,,,,,70,testing_3,zh2j,i,zh2j_i,zh2j_8_iji.wav,zh2j_8_iji.wav,,TRUE,FALSE,,,,,,,,,,,,,,f,0.333,space,0.5554,,,,,,,,0,88,88,69,1,,
5e37f48dfbcc9d75be926c70,2023-06-16_10h15.10.754,phx_ver10,2022.2.5,MacIntel,60.0024001,,,,,,,,,,,,32,testing_3,zh2sh,ai,zh2sh_ai,zh2sh_8_aishai.wav,zh2sh_1_aizhai.wav,,FALSE,FALSE,,,,,,,,,,,,,,j,0.0162,space,0.3165,,,,,,,,0,89,89,31,1,,
5e37f48dfbcc9d75be926c70,2023-06-16_10h15.10.754,phx_ver10,2022.2.5,MacIntel,60.0024001,,,,,,,,,,,,105,testing_3,sh2x,au,sh2x_au,sh2x_1_aushau.wav,sh2x_1_aushau.wav,,TRUE,FALSE,,,,,,,,,,,,,,f,0.1874,space,0.435,,,,,,,,0,90,90,104,1,,
5e37f48dfbcc9d75be926c70,2023-06-16_10h15.10.754,phx_ver10,2022.2.5,MacIntel,60.0024001,,,,,,,,,,,,6,testing_1,zh2x,e,zh2x_e,zh2x_8_exe.wav,zh2x_8_exe_copy.wav,,TRUE,TRUE,,,,,,,,,,,,,,f,0.2218,space,0.4997,,,,,,,,0,91,91,5,1,,
5e37f48dfbcc9d75be926c70,2023-06-16_10h15.10.754,phx_ver10,2022.2.5,MacIntel,60.0024001,,,,,,,,,,,,144,testing_3,sh2j,i,sh2j_i,sh2j_8_iji.wav,sh2j_1_ishi.wav,,FALSE,FALSE,,,,,,,,,,,,,,j,0.1334,space,0.4834,,,,,,,,0,92,92,143,1,,
5e37f48dfbcc9d75be926c70,2023-06-16_10h15.10.754,phx_ver10,2022.2.5,MacIntel,60.0024001,,,,,,,,,,,,31,testing_3,zh2sh,ai,zh2sh_ai,zh2sh_1_aizhai.wav,zh2sh_8_aishai.wav,,FALSE,FALSE,,,,,,,,,,,,,,j,0.1506,space,0.5181,,,,,,,,0,93,93,30,1,,
5e37f48dfbcc9d75be926c70,2023-06-16_10h15.10.754,phx_ver10,2022.2.5,MacIntel,60.0024001,,,,,,,,,,,,22,testing_2,zh2x,ei,zh2x_ei,zh2x_8_eixei.wav,zh2x_8_eixei.wav,,TRUE,FALSE,,,,,,,,,,,,,,f,0.3994,space,0.6846,,,,,,,,0,94,94,21,1,,
5e37f48dfbcc9d75be926c70,2023-06-16_10h15.10.754,phx_ver10,2022.2.5,MacIntel,60.0024001,,,,,,,,,,,,3,testing_1,zh2x,a,zh2x_a,zh2x_1_azha.wav,zh2x_8_axa.wav,,FALSE,TRUE,,,,,,,,,,,,,,j,0.4323,space,0.8154,,,,,,,,0,95,95,2,1,,
5e37f48dfbcc9d75be926c70,2023-06-16_10h15.10.754,phx_ver10,2022.2.5,MacIntel,60.0024001,,,,,,,,,,,,138,testing_3,sh2j,ei,sh2j_ei,sh2j_8_eijei.wav,sh2j_8_eijei.wav,,TRUE,FALSE,,,,,,,,,,,,,,f,0.7862,space,1.0512,,,,,,,,0,96,96,137,1,,
5e37f48dfbcc9d75be926c70,2023-06-16_10h15.10.754,phx_ver10,2022.2.5,MacIntel,60.0024001,,,,,,,,,,,,91,testing_3,j2x,ei,j2x_ei,j2x_1_eijei.wav,j2x_8_eixei.wav,,FALSE,FALSE,,,,,,,,,,,,,,j,0.0866,space,0.3833,,,,,,,,0,97,97,90,1,,
5e37f48dfbcc9d75be926c70,2023-06-16_10h15.10.754,phx_ver10,2022.2.5,MacIntel,60.0024001,,,,,,,,,,,,83,testing_3,j2x,au,j2x_au,j2x_1_aujau.wav,j2x_8_auxau.wav,,FALSE,FALSE,,,,,,,,,,,,,,j,0.1841,space,0.5176,,,,,,,,0,98,98,82,1,,
5e37f48dfbcc9d75be926c70,2023-06-16_10h15.10.754,phx_ver10,2022.2.5,MacIntel,60.0024001,,,,,,,,,,,,59,testing_3,zh2j,au,zh2j_au,zh2j_1_auzhau.wav,zh2j_8_aujau.wav,,FALSE,FALSE,,,,,,,,,,,,,,j,4.401,space,4.4557,,,,,,,,0,99,99,58,1,,
5e37f48dfbcc9d75be926c70,2023-06-16_10h15.10.754,phx_ver10,2022.2.5,MacIntel,60.0024001,,,,,,,,,,,,14,testing_2,zh2x,ai,zh2x_ai,zh2x_8_aixai.wav,zh2x_8_aixai.wav,,TRUE,FALSE,,,,,,,,,,,,,,f,0.4003,space,0.6838,,,,,,,,0,100,100,13,1,,
5e37f48dfbcc9d75be926c70,2023-06-16_10h15.10.754,phx_ver10,2022.2.5,MacIntel,60.0024001,,,,,,,,,,,,86,testing_3,j2x,e,j2x_e,j2x_8_exe.wav,j2x_8_exe.wav,,TRUE,FALSE,,,,,,,,,,,,,,f,0.0007,space,0.2658,,,,,,,,0,101,101,85,1,,
5e37f48dfbcc9d75be926c70,2023-06-16_10h15.10.754,phx_ver10,2022.2.5,MacIntel,60.0024001,,,,,,,,,,,,61,testing_3,zh2j,e,zh2j_e,zh2j_1_ezhe.wav,zh2j_1_ezhe.wav,,TRUE,FALSE,,,,,,,,,,,,,,f,0.0004,space,0.2869,,,,,,,,0,102,102,60,1,,
5e37f48dfbcc9d75be926c70,2023-06-16_10h15.10.754,phx_ver10,2022.2.5,MacIntel,60.0024001,,,,,,,,,,,,41,testing_3,zh2sh,ei,zh2sh_ei,zh2sh_1_eizhei.wav,zh2sh_1_eizhei.wav,,TRUE,FALSE,,,,,,,,,,,,,,f,0.2838,space,0.5365,,,,,,,,0,103,103,40,1,,
5e37f48dfbcc9d75be926c70,2023-06-16_10h15.10.754,phx_ver10,2022.2.5,MacIntel,60.0024001,,,,,,,,,,,,79,testing_3,j2x,ai,j2x_ai,j2x_1_aijai.wav,j2x_8_aixai.wav,,FALSE,FALSE,,,,,,,,,,,,,,j,0.0164,space,0.3663,,,,,,,,0,104,104,78,1,,
5e37f48dfbcc9d75be926c70,2023-06-16_10h15.10.754,phx_ver10,2022.2.5,MacIntel,60.0024001,,,,,,,,,,,,125,testing_3,sh2j,ai,sh2j_ai,sh2j_1_aishai.wav,sh2j_1_aishai.wav,,TRUE,FALSE,,,,,,,,,,,,,,f,0.0668,space,0.304,,,,,,,,0,105,105,124,1,,
5e37f48dfbcc9d75be926c70,2023-06-16_10h15.10.754,phx_ver10,2022.2.5,MacIntel,60.0024001,,,,,,,,,,,,11,testing_1,zh2x,i,zh2x_i,zh2x_1_izhi.wav,zh2x_8_ixi.wav,,FALSE,TRUE,,,,,,,,,,,,,,j,0.0499,space,0.3328,,,,,,,,0,106,106,10,1,,
5e37f48dfbcc9d75be926c70,2023-06-16_10h15.10.754,phx_ver10,2022.2.5,MacIntel,60.0024001,,,,,,,,,,,,45,testing_3,zh2sh,i,zh2sh_i,zh2sh_1_izhi.wav,zh2sh_1_izhi.wav,,TRUE,FALSE,,,,,,,,,,,,,,f,0.2673,space,0.5498,,,,,,,,0,107,107,44,1,,
5e37f48dfbcc9d75be926c70,2023-06-16_10h15.10.754,phx_ver10,2022.2.5,MacIntel,60.0024001,,,,,,,,,,,,142,testing_3,sh2j,i,sh2j_i,sh2j_8_iji.wav,sh2j_8_iji.wav,,TRUE,FALSE,,,,,,,,,,,,,,f,0.2696,space,0.5354,,,,,,,,0,108,108,141,1,,
5e37f48dfbcc9d75be926c70,2023-06-16_10h15.10.754,phx_ver10,2022.2.5,MacIntel,60.0024001,,,,,,,,,,,,140,testing_3,sh2j,ei,sh2j_ei,sh2j_8_eijei.wav,sh2j_1_eishei.wav,,FALSE,FALSE,,,,,,,,,,,,,,j,0.0552,space,0.3839,,,,,,,,0,109,109,139,1,,
5e37f48dfbcc9d75be926c70,2023-06-16_10h15.10.754,phx_ver10,2022.2.5,MacIntel,60.0024001,,,,,,,,,,,,4,testing_1,zh2x,a,zh2x_a,zh2x_8_axa.wav,zh2x_1_azha.wav,,FALSE,TRUE,,,,,,,,,,,,,,j,0.4817,space,0.7324,,,,,,,,0,110,110,3,1,,
5e37f48dfbcc9d75be926c70,2023-06-16_10h15.10.754,phx_ver10,2022.2.5,MacIntel,60.0024001,,,,,,,,,,,,53,testing_3,zh2j,ai,zh2j_ai,zh2j_1_aizhai.wav,zh2j_1_aizhai.wav,,TRUE,FALSE,,,,,,,,,,,,,,f,0.3831,space,0.6206,,,,,,,,0,111,111,52,1,,
5e37f48dfbcc9d75be926c70,2023-06-16_10h15.10.754,phx_ver10,2022.2.5,MacIntel,60.0024001,,,,,,,,,,,,67,testing_3,zh2j,ei,zh2j_ei,zh2j_1_eizhei.wav,zh2j_8_eijei.wav,,FALSE,FALSE,,,,,,,,,,,,,,j,0.1659,space,0.4483,,,,,,,,0,112,112,66,1,,
5e37f48dfbcc9d75be926c70,2023-06-16_10h15.10.754,phx_ver10,2022.2.5,MacIntel,60.0024001,,,,,,,,,,,,73,testing_3,j2x,a,j2x_a,j2x_1_aja.wav,j2x_1_aja.wav,,TRUE,FALSE,,,,,,,,,,,,,,f,0.2007,space,0.4336,,,,,,,,0,113,113,72,1,,
5e37f48dfbcc9d75be926c70,2023-06-16_10h15.10.754,phx_ver10,2022.2.5,MacIntel,60.0024001,,,,,,,,,,,,127,testing_3,sh2j,ai,sh2j_ai,sh2j_1_aishai.wav,sh2j_8_aijai.wav,,FALSE,FALSE,,,,,,,,,,,,,,j,0.2155,space,0.4652,,,,,,,,0,114,114,126,1,,
5e37f48dfbcc9d75be926c70,2023-06-16_10h15.10.754,phx_ver10,2022.2.5,MacIntel,60.0024001,,,,,,,,,,,,128,testing_3,sh2j,ai,sh2j_ai,sh2j_8_aijai.wav,sh2j_1_aishai.wav,,FALSE,FALSE,,,,,,,,,,,,,,j,0.4867,space,0.7366,,,,,,,,0,115,115,127,1,,
5e37f48dfbcc9d75be926c70,2023-06-16_10h15.10.754,phx_ver10,2022.2.5,MacIntel,60.0024001,,,,,,,,,,,,114,testing_3,sh2x,ei,sh2x_ei,sh2x_8_eixei.wav,sh2x_8_eixei.wav,,TRUE,FALSE,,,,,,,,,,,,,,f,0.2867,space,0.5336,,,,,,,,0,116,116,113,1,,
5e37f48dfbcc9d75be926c70,2023-06-16_10h15.10.754,phx_ver10,2022.2.5,MacIntel,60.0024001,,,,,,,,,,,,112,testing_3,sh2x,e,sh2x_e,sh2x_8_exe.wav,sh2x_1_eshe.wav,,FALSE,FALSE,,,,,,,,,,,,,,j,0.1675,space,0.4036,,,,,,,,0,117,117,111,1,,
5e37f48dfbcc9d75be926c70,2023-06-16_10h15.10.754,phx_ver10,2022.2.5,MacIntel,60.0024001,,,,,,,,,,,,56,testing_3,zh2j,ai,zh2j_ai,zh2j_8_aijai.wav,zh2j_1_aizhai.wav,,FALSE,FALSE,,,,,,,,,,,,,,j,0.1663,space,0.4329,,,,,,,,0,118,118,55,1,,
5e37f48dfbcc9d75be926c70,2023-06-16_10h15.10.754,phx_ver10,2022.2.5,MacIntel,60.0024001,,,,,,,,,,,,109,testing_3,sh2x,e,sh2x_e,sh2x_1_eshe.wav,sh2x_1_eshe.wav,,TRUE,FALSE,,,,,,,,,,,,,,f,0.0004,space,0.2502,,,,,,,,0,119,119,108,1,,
5e37f48dfbcc9d75be926c70,2023-06-16_10h15.10.754,phx_ver10,2022.2.5,MacIntel,60.0024001,,,,,,,,,,,,118,testing_3,sh2x,i,sh2x_i,sh2x_8_ixi.wav,sh2x_8_ixi.wav,,TRUE,FALSE,,,,,,,,,,,,,,f,0.0181,space,0.352,,,,,,,,0,120,120,117,1,,
5e37f48dfbcc9d75be926c70,2023-06-16_10h15.10.754,phx_ver10,2022.2.5,MacIntel,60.0024001,,,,,,,,,,,,57,testing_3,zh2j,au,zh2j_au,zh2j_1_auzhau.wav,zh2j_1_auzhau.wav,,TRUE,FALSE,,,,,,,,,,,,,,f,0.3827,space,0.6502,,,,,,,,0,121,121,56,1,,
5e37f48dfbcc9d75be926c70,2023-06-16_10h15.10.754,phx_ver10,2022.2.5,MacIntel,60.0024001,,,,,,,,,,,,39,testing_3,zh2sh,e,zh2sh_e,zh2sh_1_ezhe.wav,zh2sh_8_eshe.wav,,FALSE,FALSE,,,,,,,,,,,,,,j,0.0206,space,0.2341,,,,,,,,0,122,122,38,1,,
5e37f48dfbcc9d75be926c70,2023-06-16_10h15.10.754,phx_ver10,2022.2.5,MacIntel,60.0024001,,,,,,,,,,,,2,testing_1,zh2x,a,zh2x_a,zh2x_8_axa.wav,zh2x_8_axa_copy.wav,,TRUE,TRUE,,,,,,,,,,,,,,f,0.0491,space,0.2335,,,,,,,,0,123,123,1,1,,
5e37f48dfbcc9d75be926c70,2023-06-16_10h15.10.754,phx_ver10,2022.2.5,MacIntel,60.0024001,,,,,,,,,,,,99,testing_3,sh2x,a,sh2x_a,sh2x_1_asha.wav,sh2x_8_axa.wav,,FALSE,FALSE,,,,,,,,,,,,,,j,0.1172,space,0.35,,,,,,,,0,124,124,98,1,,
5e37f48dfbcc9d75be926c70,2023-06-16_10h15.10.754,phx_ver10,2022.2.5,MacIntel,60.0024001,,,,,,,,,,,,66,testing_3,zh2j,ei,zh2j_ei,zh2j_8_eijei.wav,zh2j_8_eijei.wav,,TRUE,FALSE,,,,,,,,,,,,,,f,0.7988,space,0.9993,,,,,,,,0,125,125,65,1,,
5e37f48dfbcc9d75be926c70,2023-06-16_10h15.10.754,phx_ver10,2022.2.5,MacIntel,60.0024001,,,,,,,,,,,,30,testing_3,zh2sh,ai,zh2sh_ai,zh2sh_8_aishai.wav,zh2sh_8_aishai.wav,,TRUE,FALSE,,,,,,,,,,,,,,f,0.3671,space,0.586,,,,,,,,0,126,126,29,1,,
5e37f48dfbcc9d75be926c70,2023-06-16_10h15.10.754,phx_ver10,2022.2.5,MacIntel,60.0024001,,,,,,,,,,,,26,testing_3,zh2sh,a,zh2sh_a,zh2sh_8_asha.wav,zh2sh_8_asha.wav,,TRUE,FALSE,,,,,,,,,,,,,,f,0.2049,space,0.4837,,,,,,,,0,127,127,25,1,,
5e37f48dfbcc9d75be926c70,2023-06-16_10h15.10.754,phx_ver10,2022.2.5,MacIntel,60.0024001,,,,,,,,,,,,139,testing_3,sh2j,ei,sh2j_ei,sh2j_1_eishei.wav,sh2j_8_eijei.wav,,FALSE,FALSE,,,,,,,,,,,,,,j,0.0671,space,0.2693,,,,,,,,0,128,128,138,1,,
5e37f48dfbcc9d75be926c70,2023-06-16_10h15.10.754,phx_ver10,2022.2.5,MacIntel,60.0024001,,,,,,,,,,,,113,testing_3,sh2x,ei,sh2x_ei,sh2x_1_eishei.wav,sh2x_1_eishei.wav,,TRUE,FALSE,,,,,,,,,,,,,,f,0.2164,space,0.4499,,,,,,,,0,129,129,112,1,,
5e37f48dfbcc9d75be926c70,2023-06-16_10h15.10.754,phx_ver10,2022.2.5,MacIntel,60.0024001,,,,,,,,,,,,38,testing_3,zh2sh,e,zh2sh_e,zh2sh_8_eshe.wav,zh2sh_8_eshe.wav,,TRUE,FALSE,,,,,,,,,,,,,,f,0.1336,space,0.4167,,,,,,,,0,130,130,37,1,,
5e37f48dfbcc9d75be926c70,2023-06-16_10h15.10.754,phx_ver10,2022.2.5,MacIntel,60.0024001,,,,,,,,,,,,84,testing_3,j2x,au,j2x_au,j2x_8_auxau.wav,j2x_1_aujau.wav,,FALSE,FALSE,,,,,,,,,,,,,,j,0.4505,space,0.6835,,,,,,,,0,131,131,83,1,,
5e37f48dfbcc9d75be926c70,2023-06-16_10h15.10.754,phx_ver10,2022.2.5,MacIntel,60.0024001,,,,,,,,,,,,106,testing_3,sh2x,au,sh2x_au,sh2x_8_auxau.wav,sh2x_8_auxau.wav,,TRUE,FALSE,,,,,,,,,,,,,,f,0.5163,space,0.7666,,,,,,,,0,132,132,105,1,,
5e37f48dfbcc9d75be926c70,2023-06-16_10h15.10.754,phx_ver10,2022.2.5,MacIntel,60.0024001,,,,,,,,,,,,18,testing_2,zh2x,au,zh2x_au,zh2x_8_auxau.wav,zh2x_8_auxau.wav,,TRUE,FALSE,,,,,,,,,,,,,,f,0.1682,space,0.6825,,,,,,,,0,133,133,17,1,,
5e37f48dfbcc9d75be926c70,2023-06-16_10h15.10.754,phx_ver10,2022.2.5,MacIntel,60.0024001,,,,,,,,,,,,102,testing_3,sh2x,ai,sh2x_ai,sh2x_8_aixai.wav,sh2x_8_aixai.wav,,TRUE,FALSE,,,,,,,,,,,,,,f,0.1671,space,0.4834,,,,,,,,0,134,134,101,1,,
5e37f48dfbcc9d75be926c70,2023-06-16_10h15.10.754,phx_ver10,2022.2.5,MacIntel,60.0024001,,,,,,,,,,,,80,testing_3,j2x,ai,j2x_ai,j2x_8_aixai.wav,j2x_1_aijai.wav,,FALSE,FALSE,,,,,,,,,,,,,,j,0.1993,space,0.4194,,,,,,,,0,135,135,79,1,,
5e37f48dfbcc9d75be926c70,2023-06-16_10h15.10.754,phx_ver10,2022.2.5,MacIntel,60.0024001,,,,,,,,,,,,10,testing_1,zh2x,i,zh2x_i,zh2x_8_ixi.wav,zh2x_8_ixi_copy.wav,,TRUE,TRUE,,,,,,,,,,,,,,f,0.1845,space,0.4676,,,,,,,,0,136,136,9,1,,
5e37f48dfbcc9d75be926c70,2023-06-16_10h15.10.754,phx_ver10,2022.2.5,MacIntel,60.0024001,,,,,,,,,,,,143,testing_3,sh2j,i,sh2j_i,sh2j_1_ishi.wav,sh2j_8_iji.wav,,FALSE,FALSE,,,,,,,,,,,,,,j,0.2,space,0.4363,,,,,,,,0,137,137,142,1,,
5e37f48dfbcc9d75be926c70,2023-06-16_10h15.10.754,phx_ver10,2022.2.5,MacIntel,60.0024001,,,,,,,,,,,,93,testing_3,j2x,i,j2x_i,j2x_1_iji.wav,j2x_1_iji.wav,,TRUE,FALSE,,,,,,,,,,,,,,f,0.516,space,0.7669,,,,,,,,0,138,138,92,1,,
5e37f48dfbcc9d75be926c70,2023-06-16_10h15.10.754,phx_ver10,2022.2.5,MacIntel,60.0024001,,,,,,,,,,,,34,testing_3,zh2sh,au,zh2sh_au,zh2sh_8_aushau.wav,zh2sh_8_aushau.wav,,TRUE,FALSE,,,,,,,,,,,,,,f,1.7327,space,1.9355,,,,,,,,0,139,139,33,1,,
5e37f48dfbcc9d75be926c70,2023-06-16_10h15.10.754,phx_ver10,2022.2.5,MacIntel,60.0024001,,,,,,,,,,,,136,testing_3,sh2j,e,sh2j_e,sh2j_8_eje.wav,sh2j_1_eshe.wav,,FALSE,FALSE,,,,,,,,,,,,,,j,0.3339,space,0.9353,,,,,,,,0,140,140,135,1,,
5e37f48dfbcc9d75be926c70,2023-06-16_10h15.10.754,phx_ver10,2022.2.5,MacIntel,60.0024001,,,,,,,,,,,,58,testing_3,zh2j,au,zh2j_au,zh2j_8_aujau.wav,zh2j_8_aujau.wav,,TRUE,FALSE,,,,,,,,,,,,,,f,0.3202,space,0.5678,,,,,,,,0,141,141,57,1,,
5e37f48dfbcc9d75be926c70,2023-06-16_10h15.10.754,phx_ver10,2022.2.5,MacIntel,60.0024001,,,,,,,,,,,,24,testing_2,zh2x,ei,zh2x_ei,zh2x_8_eixei.wav,zh2x_1_eizhei.wav,,FALSE,FALSE,,,,,,,,,,,,,,j,0.1188,space,0.3662,,,,,,,,0,142,142,23,1,,
5e37f48dfbcc9d75be926c70,2023-06-16_10h15.10.754,phx_ver10,2022.2.5,MacIntel,60.0024001,,,,,,,,,,,,29,testing_3,zh2sh,ai,zh2sh_ai,zh2sh_1_aizhai.wav,zh2sh_1_aizhai.wav,,TRUE,FALSE,,,,,,,,,,,,,,f,0.6987,space,0.904,,,,,,,,0,143,143,28,1,,
5e37f48dfbcc9d75be926c70,2023-06-16_10h15.10.754,phx_ver10,2022.2.5,MacIntel,60.0024001,,,,,,,,,,,,,,,,,,,,,,,,,,,,,,,,,,,,,,,,,,,,,,,,,,,space,3.2004
