participant,date,expName,psychopyVersion,OS,frameRate,space_1.keys,space_1.rt,space_2.keys,space_2.rt,space_train.keys,space_train.rt,training.thisRepN,training.thisTrialN,training.thisN,training.thisIndex,training.ran,token_id,task,continuum,vowel,series,sound_1,sound_2,img,same,trained,FJ_attn.keys,FJ_attn.rt,space_attn.keys,space_attn.rt,if_attn_test.thisRepN,if_attn_test.thisTrialN,if_attn_test.thisN,if_attn_test.thisIndex,if_attn_test.ran,space_trans_1.keys,space_trans_1.rt,space_trans_11.keys,space_trans_11.rt,FJ_test.keys,FJ_test.rt,space_test.keys,space_test.rt,testing_pre.thisRepN,testing_pre.thisTrialN,testing_pre.thisN,testing_pre.thisIndex,testing_pre.ran,space_trans_2.keys,space_trans_2.rt,testing_all.thisRepN,testing_all.thisTrialN,testing_all.thisN,testing_all.thisIndex,testing_all.ran,space_ending.keys,space_ending.rt
5e3a9e0dfbce8a296258c297,2023-06-16_10h45.06.179,phx_ver10,2022.2.5,Linux x86_64,59.97361161,,,,,,,,,,,,,,,,,,,,,,,,,,,,,,,,,,,,,,,,,,,,,,,,,,,,
5e3a9e0dfbce8a296258c297,2023-06-16_10h45.06.179,phx_ver10,2022.2.5,Linux x86_64,59.97361161,space,5.752,,,,,,,,,,,,,,,,,,,,,,,,,,,,,,,,,,,,,,,,,,,,,,,,,,
5e3a9e0dfbce8a296258c297,2023-06-16_10h45.06.179,phx_ver10,2022.2.5,Linux x86_64,59.97361161,,,space,1.4051,,,,,,,,,,,,,,,,,,,,,,,,,,,,,,,,,,,,,,,,,,,,,,,,
5e3a9e0dfbce8a296258c297,2023-06-16_10h45.06.179,phx_ver10,2022.2.5,Linux x86_64,59.97361161,,,,,space,2.8001,0,0,0,8,1,9,training,zh2x,a,zh2x_a,zh2x_5_axa.wav,,axa.jpg,,,,,,,,,,,,,,,,,,,,,,,,,,,,,,,,,
5e3a9e0dfbce8a296258c297,2023-06-16_10h45.06.179,phx_ver10,2022.2.5,Linux x86_64,59.97361161,,,,,space,1.6699,0,1,1,11,1,12,training,zh2x,a,zh2x_a,zh2x_7_axa.wav,,axa.jpg,,,,,,,,,,,,,,,,,,,,,,,,,,,,,,,,,
5e3a9e0dfbce8a296258c297,2023-06-16_10h45.06.179,phx_ver10,2022.2.5,Linux x86_64,59.97361161,,,,,space,1.7246,0,2,2,10,1,11,training,zh2x,a,zh2x_a,zh2x_6_axa.wav,,axa.jpg,,,,,,,,,,,,,,,,,,,,,,,,,,,,,,,,,
5e3a9e0dfbce8a296258c297,2023-06-16_10h45.06.179,phx_ver10,2022.2.5,Linux x86_64,59.97361161,,,,,space,2.5099,0,3,3,36,1,37,training,zh2x,i,zh2x_i,zh2x_2_izhi.wav,,izhi.jpg,,,,,,,,,,,,,,,,,,,,,,,,,,,,,,,,,
5e3a9e0dfbce8a296258c297,2023-06-16_10h45.06.179,phx_ver10,2022.2.5,Linux x86_64,59.97361161,,,,,space,0.9391,0,4,4,37,1,38,training,zh2x,i,zh2x_i,zh2x_3_izhi.wav,,izhi.jpg,,,,,,,,,,,,,,,,,,,,,,,,,,,,,,,,,
5e3a9e0dfbce8a296258c297,2023-06-16_10h45.06.179,phx_ver10,2022.2.5,Linux x86_64,59.97361161,,,,,space,1.1032,0,5,5,33,1,34,training,zh2x,i,zh2x_i,zh2x_2_izhi.wav,,izhi.jpg,,,,,,,,,,,,,,,,,,,,,,,,,,,,,,,,,
5e3a9e0dfbce8a296258c297,2023-06-16_10h45.06.179,phx_ver10,2022.2.5,Linux x86_64,59.97361161,,,,,,,,,,,,,attn_test,,,,zh2x_8_ixi.wav,zh2x_8_axa.wav,axa.jpg,RIGHT,,j,2.082,space,3.1207,0,0,0,0,1,,,,,,,,,,,,,,,,,,,,,,
5e3a9e0dfbce8a296258c297,2023-06-16_10h45.06.179,phx_ver10,2022.2.5,Linux x86_64,59.97361161,,,,,space,1.1088,0,6,6,34,1,35,training,zh2x,i,zh2x_i,zh2x_2_izhi.wav,,izhi.jpg,,,,,,,,,,,,,,,,,,,,,,,,,,,,,,,,,
5e3a9e0dfbce8a296258c297,2023-06-16_10h45.06.179,phx_ver10,2022.2.5,Linux x86_64,59.97361161,,,,,space,1.4882,0,7,7,7,1,8,training,zh2x,a,zh2x_a,zh2x_4_azha.wav,,azha.jpg,,,,,,,,,,,,,,,,,,,,,,,,,,,,,,,,,
5e3a9e0dfbce8a296258c297,2023-06-16_10h45.06.179,phx_ver10,2022.2.5,Linux x86_64,59.97361161,,,,,space,0.694,0,8,8,35,1,36,training,zh2x,i,zh2x_i,zh2x_2_izhi.wav,,izhi.jpg,,,,,,,,,,,,,,,,,,,,,,,,,,,,,,,,,
5e3a9e0dfbce8a296258c297,2023-06-16_10h45.06.179,phx_ver10,2022.2.5,Linux x86_64,59.97361161,,,,,space,2.0029,0,9,9,22,1,23,training,zh2x,e,zh2x_e,zh2x_3_ezhe.wav,,ezhe.jpg,,,,,,,,,,,,,,,,,,,,,,,,,,,,,,,,,
5e3a9e0dfbce8a296258c297,2023-06-16_10h45.06.179,phx_ver10,2022.2.5,Linux x86_64,59.97361161,,,,,space,0.7063,0,10,10,38,1,39,training,zh2x,i,zh2x_i,zh2x_3_izhi.wav,,izhi.jpg,,,,,,,,,,,,,,,,,,,,,,,,,,,,,,,,,
5e3a9e0dfbce8a296258c297,2023-06-16_10h45.06.179,phx_ver10,2022.2.5,Linux x86_64,59.97361161,,,,,space,0.8525,0,11,11,12,1,13,training,zh2x,a,zh2x_a,zh2x_7_axa.wav,,axa.jpg,,,,,,,,,,,,,,,,,,,,,,,,,,,,,,,,,
5e3a9e0dfbce8a296258c297,2023-06-16_10h45.06.179,phx_ver10,2022.2.5,Linux x86_64,59.97361161,,,,,,,,,,,,,attn_test,,,,zh2x_1_ezhe.wav,zh2x_8_axa.wav,ezhe.jpg,LEFT,,f,1.1855,space,2.2409,0,0,0,0,1,,,,,,,,,,,,,,,,,,,,,,
5e3a9e0dfbce8a296258c297,2023-06-16_10h45.06.179,phx_ver10,2022.2.5,Linux x86_64,59.97361161,,,,,space,0.9215,0,12,12,32,1,33,training,zh2x,i,zh2x_i,zh2x_1_izhi.wav,,izhi.jpg,,,,,,,,,,,,,,,,,,,,,,,,,,,,,,,,,
5e3a9e0dfbce8a296258c297,2023-06-16_10h45.06.179,phx_ver10,2022.2.5,Linux x86_64,59.97361161,,,,,space,0.7289,0,13,13,2,1,3,training,zh2x,a,zh2x_a,zh2x_2_azha.wav,,azha.jpg,,,,,,,,,,,,,,,,,,,,,,,,,,,,,,,,,
5e3a9e0dfbce8a296258c297,2023-06-16_10h45.06.179,phx_ver10,2022.2.5,Linux x86_64,59.97361161,,,,,space,0.5684,0,14,14,3,1,4,training,zh2x,a,zh2x_a,zh2x_2_azha.wav,,azha.jpg,,,,,,,,,,,,,,,,,,,,,,,,,,,,,,,,,
5e3a9e0dfbce8a296258c297,2023-06-16_10h45.06.179,phx_ver10,2022.2.5,Linux x86_64,59.97361161,,,,,space,1.723,0,15,15,43,1,44,training,zh2x,i,zh2x_i,zh2x_7_ixi.wav,,ixi.jpg,,,,,,,,,,,,,,,,,,,,,,,,,,,,,,,,,
5e3a9e0dfbce8a296258c297,2023-06-16_10h45.06.179,phx_ver10,2022.2.5,Linux x86_64,59.97361161,,,,,space,1.3182,0,16,16,5,1,6,training,zh2x,a,zh2x_a,zh2x_3_azha.wav,,azha.jpg,,,,,,,,,,,,,,,,,,,,,,,,,,,,,,,,,
5e3a9e0dfbce8a296258c297,2023-06-16_10h45.06.179,phx_ver10,2022.2.5,Linux x86_64,59.97361161,,,,,space,1.0386,0,17,17,19,1,20,training,zh2x,e,zh2x_e,zh2x_2_ezhe.wav,,ezhe.jpg,,,,,,,,,,,,,,,,,,,,,,,,,,,,,,,,,
5e3a9e0dfbce8a296258c297,2023-06-16_10h45.06.179,phx_ver10,2022.2.5,Linux x86_64,59.97361161,,,,,,,,,,,,,attn_test,,,,zh2x_1_izhi.wav,zh2x_1_azha.wav,azha.jpg,RIGHT,,j,0.7194,space,1.7029,0,0,0,0,1,,,,,,,,,,,,,,,,,,,,,,
5e3a9e0dfbce8a296258c297,2023-06-16_10h45.06.179,phx_ver10,2022.2.5,Linux x86_64,59.97361161,,,,,space,2.8902,0,18,18,14,1,15,training,zh2x,a,zh2x_a,zh2x_7_axa.wav,,axa.jpg,,,,,,,,,,,,,,,,,,,,,,,,,,,,,,,,,
5e3a9e0dfbce8a296258c297,2023-06-16_10h45.06.179,phx_ver10,2022.2.5,Linux x86_64,59.97361161,,,,,space,0.8916,0,19,19,23,1,24,training,zh2x,e,zh2x_e,zh2x_4_ezhe.wav,,ezhe.jpg,,,,,,,,,,,,,,,,,,,,,,,,,,,,,,,,,
5e3a9e0dfbce8a296258c297,2023-06-16_10h45.06.179,phx_ver10,2022.2.5,Linux x86_64,59.97361161,,,,,space,1.6707,0,20,20,24,1,25,training,zh2x,e,zh2x_e,zh2x_5_exe.wav,,exe.jpg,,,,,,,,,,,,,,,,,,,,,,,,,,,,,,,,,
5e3a9e0dfbce8a296258c297,2023-06-16_10h45.06.179,phx_ver10,2022.2.5,Linux x86_64,59.97361161,,,,,space,1.168,0,21,21,30,1,31,training,zh2x,e,zh2x_e,zh2x_7_exe.wav,,exe.jpg,,,,,,,,,,,,,,,,,,,,,,,,,,,,,,,,,
5e3a9e0dfbce8a296258c297,2023-06-16_10h45.06.179,phx_ver10,2022.2.5,Linux x86_64,59.97361161,,,,,space,0.969,0,22,22,47,1,48,training,zh2x,i,zh2x_i,zh2x_8_ixi.wav,,ixi.jpg,,,,,,,,,,,,,,,,,,,,,,,,,,,,,,,,,
5e3a9e0dfbce8a296258c297,2023-06-16_10h45.06.179,phx_ver10,2022.2.5,Linux x86_64,59.97361161,,,,,space,0.2351,0,23,23,44,1,45,training,zh2x,i,zh2x_i,zh2x_7_ixi.wav,,ixi.jpg,,,,,,,,,,,,,,,,,,,,,,,,,,,,,,,,,
5e3a9e0dfbce8a296258c297,2023-06-16_10h45.06.179,phx_ver10,2022.2.5,Linux x86_64,59.97361161,,,,,,,,,,,,,attn_test,,,,zh2x_1_azha.wav,zh2x_1_ezhe.wav,ezhe.jpg,RIGHT,,j,0.2024,space,0.8684,0,0,0,0,1,,,,,,,,,,,,,,,,,,,,,,
5e3a9e0dfbce8a296258c297,2023-06-16_10h45.06.179,phx_ver10,2022.2.5,Linux x86_64,59.97361161,,,,,space,1.2781,0,24,24,29,1,30,training,zh2x,e,zh2x_e,zh2x_7_exe.wav,,exe.jpg,,,,,,,,,,,,,,,,,,,,,,,,,,,,,,,,,
5e3a9e0dfbce8a296258c297,2023-06-16_10h45.06.179,phx_ver10,2022.2.5,Linux x86_64,59.97361161,,,,,space,0.8683,0,25,25,20,1,21,training,zh2x,e,zh2x_e,zh2x_2_ezhe.wav,,ezhe.jpg,,,,,,,,,,,,,,,,,,,,,,,,,,,,,,,,,
5e3a9e0dfbce8a296258c297,2023-06-16_10h45.06.179,phx_ver10,2022.2.5,Linux x86_64,59.97361161,,,,,space,0.3858,0,26,26,17,1,18,training,zh2x,e,zh2x_e,zh2x_2_ezhe.wav,,ezhe.jpg,,,,,,,,,,,,,,,,,,,,,,,,,,,,,,,,,
5e3a9e0dfbce8a296258c297,2023-06-16_10h45.06.179,phx_ver10,2022.2.5,Linux x86_64,59.97361161,,,,,space,0.6682,0,27,27,13,1,14,training,zh2x,a,zh2x_a,zh2x_7_axa.wav,,axa.jpg,,,,,,,,,,,,,,,,,,,,,,,,,,,,,,,,,
5e3a9e0dfbce8a296258c297,2023-06-16_10h45.06.179,phx_ver10,2022.2.5,Linux x86_64,59.97361161,,,,,space,0.4522,0,28,28,16,1,17,training,zh2x,e,zh2x_e,zh2x_1_ezhe.wav,,ezhe.jpg,,,,,,,,,,,,,,,,,,,,,,,,,,,,,,,,,
5e3a9e0dfbce8a296258c297,2023-06-16_10h45.06.179,phx_ver10,2022.2.5,Linux x86_64,59.97361161,,,,,space,0.5886,0,29,29,0,1,1,training,zh2x,a,zh2x_a,zh2x_1_azha.wav,,azha.jpg,,,,,,,,,,,,,,,,,,,,,,,,,,,,,,,,,
5e3a9e0dfbce8a296258c297,2023-06-16_10h45.06.179,phx_ver10,2022.2.5,Linux x86_64,59.97361161,,,,,,,,,,,,,attn_test,,,,zh2x_8_axa.wav,zh2x_1_ezhe.wav,ezhe.jpg,RIGHT,,j,0.2243,space,1.1085,0,0,0,0,1,,,,,,,,,,,,,,,,,,,,,,
5e3a9e0dfbce8a296258c297,2023-06-16_10h45.06.179,phx_ver10,2022.2.5,Linux x86_64,59.97361161,,,,,space,0.8362,0,30,30,28,1,29,training,zh2x,e,zh2x_e,zh2x_7_exe.wav,,exe.jpg,,,,,,,,,,,,,,,,,,,,,,,,,,,,,,,,,
5e3a9e0dfbce8a296258c297,2023-06-16_10h45.06.179,phx_ver10,2022.2.5,Linux x86_64,59.97361161,,,,,space,0.5536,0,31,31,45,1,46,training,zh2x,i,zh2x_i,zh2x_7_ixi.wav,,ixi.jpg,,,,,,,,,,,,,,,,,,,,,,,,,,,,,,,,,
5e3a9e0dfbce8a296258c297,2023-06-16_10h45.06.179,phx_ver10,2022.2.5,Linux x86_64,59.97361161,,,,,space,0.7814,0,32,32,1,1,2,training,zh2x,a,zh2x_a,zh2x_2_azha.wav,,azha.jpg,,,,,,,,,,,,,,,,,,,,,,,,,,,,,,,,,
5e3a9e0dfbce8a296258c297,2023-06-16_10h45.06.179,phx_ver10,2022.2.5,Linux x86_64,59.97361161,,,,,space,0.2863,0,33,33,6,1,7,training,zh2x,a,zh2x_a,zh2x_3_azha.wav,,azha.jpg,,,,,,,,,,,,,,,,,,,,,,,,,,,,,,,,,
5e3a9e0dfbce8a296258c297,2023-06-16_10h45.06.179,phx_ver10,2022.2.5,Linux x86_64,59.97361161,,,,,space,0.504,0,34,34,21,1,22,training,zh2x,e,zh2x_e,zh2x_3_ezhe.wav,,ezhe.jpg,,,,,,,,,,,,,,,,,,,,,,,,,,,,,,,,,
5e3a9e0dfbce8a296258c297,2023-06-16_10h45.06.179,phx_ver10,2022.2.5,Linux x86_64,59.97361161,,,,,space,0.1042,0,35,35,40,1,41,training,zh2x,i,zh2x_i,zh2x_5_ixi.wav,,ixi.jpg,,,,,,,,,,,,,,,,,,,,,,,,,,,,,,,,,
5e3a9e0dfbce8a296258c297,2023-06-16_10h45.06.179,phx_ver10,2022.2.5,Linux x86_64,59.97361161,,,,,,,,,,,,,attn_test,,,,zh2x_8_ixi.wav,zh2x_8_axa.wav,ixi.jpg,LEFT,,f,0.802,space,1.6527,0,0,0,0,1,,,,,,,,,,,,,,,,,,,,,,
5e3a9e0dfbce8a296258c297,2023-06-16_10h45.06.179,phx_ver10,2022.2.5,Linux x86_64,59.97361161,,,,,space,0.6476,0,36,36,42,1,43,training,zh2x,i,zh2x_i,zh2x_6_ixi.wav,,ixi.jpg,,,,,,,,,,,,,,,,,,,,,,,,,,,,,,,,,
5e3a9e0dfbce8a296258c297,2023-06-16_10h45.06.179,phx_ver10,2022.2.5,Linux x86_64,59.97361161,,,,,space,0.5056,0,37,37,39,1,40,training,zh2x,i,zh2x_i,zh2x_4_izhi.wav,,izhi.jpg,,,,,,,,,,,,,,,,,,,,,,,,,,,,,,,,,
5e3a9e0dfbce8a296258c297,2023-06-16_10h45.06.179,phx_ver10,2022.2.5,Linux x86_64,59.97361161,,,,,space,0.9725,0,38,38,31,1,32,training,zh2x,e,zh2x_e,zh2x_8_exe.wav,,exe.jpg,,,,,,,,,,,,,,,,,,,,,,,,,,,,,,,,,
5e3a9e0dfbce8a296258c297,2023-06-16_10h45.06.179,phx_ver10,2022.2.5,Linux x86_64,59.97361161,,,,,space,0.2012,0,39,39,41,1,42,training,zh2x,i,zh2x_i,zh2x_6_ixi.wav,,ixi.jpg,,,,,,,,,,,,,,,,,,,,,,,,,,,,,,,,,
5e3a9e0dfbce8a296258c297,2023-06-16_10h45.06.179,phx_ver10,2022.2.5,Linux x86_64,59.97361161,,,,,space,0.5535,0,40,40,25,1,26,training,zh2x,e,zh2x_e,zh2x_6_exe.wav,,exe.jpg,,,,,,,,,,,,,,,,,,,,,,,,,,,,,,,,,
5e3a9e0dfbce8a296258c297,2023-06-16_10h45.06.179,phx_ver10,2022.2.5,Linux x86_64,59.97361161,,,,,space,0.0972,0,41,41,27,1,28,training,zh2x,e,zh2x_e,zh2x_7_exe.wav,,exe.jpg,,,,,,,,,,,,,,,,,,,,,,,,,,,,,,,,,
5e3a9e0dfbce8a296258c297,2023-06-16_10h45.06.179,phx_ver10,2022.2.5,Linux x86_64,59.97361161,,,,,,,,,,,,,attn_test,,,,zh2x_8_ixi.wav,zh2x_1_izhi.wav,ixi.jpg,LEFT,,f,0.469,space,0.9728,0,0,0,0,1,,,,,,,,,,,,,,,,,,,,,,
5e3a9e0dfbce8a296258c297,2023-06-16_10h45.06.179,phx_ver10,2022.2.5,Linux x86_64,59.97361161,,,,,space,1.308,0,42,42,15,1,16,training,zh2x,a,zh2x_a,zh2x_8_axa.wav,,axa.jpg,,,,,,,,,,,,,,,,,,,,,,,,,,,,,,,,,
5e3a9e0dfbce8a296258c297,2023-06-16_10h45.06.179,phx_ver10,2022.2.5,Linux x86_64,59.97361161,,,,,space,0.7392,0,43,43,26,1,27,training,zh2x,e,zh2x_e,zh2x_6_exe.wav,,exe.jpg,,,,,,,,,,,,,,,,,,,,,,,,,,,,,,,,,
5e3a9e0dfbce8a296258c297,2023-06-16_10h45.06.179,phx_ver10,2022.2.5,Linux x86_64,59.97361161,,,,,space,0.8112,0,44,44,18,1,19,training,zh2x,e,zh2x_e,zh2x_2_ezhe.wav,,ezhe.jpg,,,,,,,,,,,,,,,,,,,,,,,,,,,,,,,,,
5e3a9e0dfbce8a296258c297,2023-06-16_10h45.06.179,phx_ver10,2022.2.5,Linux x86_64,59.97361161,,,,,space,0.3362,0,45,45,46,1,47,training,zh2x,i,zh2x_i,zh2x_7_ixi.wav,,ixi.jpg,,,,,,,,,,,,,,,,,,,,,,,,,,,,,,,,,
5e3a9e0dfbce8a296258c297,2023-06-16_10h45.06.179,phx_ver10,2022.2.5,Linux x86_64,59.97361161,,,,,space,0.5369,0,46,46,4,1,5,training,zh2x,a,zh2x_a,zh2x_2_azha.wav,,azha.jpg,,,,,,,,,,,,,,,,,,,,,,,,,,,,,,,,,
5e3a9e0dfbce8a296258c297,2023-06-16_10h45.06.179,phx_ver10,2022.2.5,Linux x86_64,59.97361161,,,,,space,0.5528,0,47,47,9,1,10,training,zh2x,a,zh2x_a,zh2x_6_axa.wav,,axa.jpg,,,,,,,,,,,,,,,,,,,,,,,,,,,,,,,,,
5e3a9e0dfbce8a296258c297,2023-06-16_10h45.06.179,phx_ver10,2022.2.5,Linux x86_64,59.97361161,,,,,,,,,,,,,attn_test,,,,zh2x_8_axa.wav,zh2x_1_azha.wav,axa.jpg,LEFT,,f,1.2219,space,1.7715,,,,,,,,,,,,,,,,,,,,,,,,,,,
5e3a9e0dfbce8a296258c297,2023-06-16_10h45.06.179,phx_ver10,2022.2.5,Linux x86_64,59.97361161,,,,,,,,,,,,,,,,,,,,,,,,,,,,,,,space,8.6422,,,,,,,,,,,,,,,,,,,,
5e3a9e0dfbce8a296258c297,2023-06-16_10h45.06.179,phx_ver10,2022.2.5,Linux x86_64,59.97361161,,,,,,,,,,,,,,,,,,,,,,,,,,,,,,,,,space,5.537,,,,,,,,,,,,,,,,,,
5e3a9e0dfbce8a296258c297,2023-06-16_10h45.06.179,phx_ver10,2022.2.5,Linux x86_64,59.97361161,,,,,,,,,,,,2,testing_pre,,,,auhau.wav,aufau.wav,,FALSE,,,,,,,,,,,,,,,j,0.5621,space,1.5411,0,0,0,1,1,,,,,,,,,
5e3a9e0dfbce8a296258c297,2023-06-16_10h45.06.179,phx_ver10,2022.2.5,Linux x86_64,59.97361161,,,,,,,,,,,,1,testing_pre,,,,ifi.wav,ifi.wav,,TRUE,,,,,,,,,,,,,,,f,0.3545,space,1.12,0,1,1,0,1,,,,,,,,,
5e3a9e0dfbce8a296258c297,2023-06-16_10h45.06.179,phx_ver10,2022.2.5,Linux x86_64,59.97361161,,,,,,,,,,,,5,testing_pre,,,,ihi.wav,ifi.wav,,FALSE,,,,,,,,,,,,,,,j,0.5025,space,1.1452,0,2,2,4,1,,,,,,,,,
5e3a9e0dfbce8a296258c297,2023-06-16_10h45.06.179,phx_ver10,2022.2.5,Linux x86_64,59.97361161,,,,,,,,,,,,4,testing_pre,,,,eihei.wav,eihei.wav,,TRUE,,,,,,,,,,,,,,,f,0.2245,space,0.745,0,3,3,3,1,,,,,,,,,
5e3a9e0dfbce8a296258c297,2023-06-16_10h45.06.179,phx_ver10,2022.2.5,Linux x86_64,59.97361161,,,,,,,,,,,,3,testing_pre,,,,afa.wav,aha.wav,,FALSE,,,,,,,,,,,,,,,j,0.3262,space,0.9527,0,4,4,2,1,,,,,,,,,
5e3a9e0dfbce8a296258c297,2023-06-16_10h45.06.179,phx_ver10,2022.2.5,Linux x86_64,59.97361161,,,,,,,,,,,,,,,,,,,,,,,,,,,,,,,,,,,,,,,,,,,,space,1.5007,,,,,,,
5e3a9e0dfbce8a296258c297,2023-06-16_10h45.06.179,phx_ver10,2022.2.5,Linux x86_64,59.97361161,,,,,,,,,,,,90,testing_3,j2x,ei,j2x_ei,j2x_8_eixei.wav,j2x_8_eixei.wav,,TRUE,FALSE,,,,,,,,,,,,,,f,0.2193,space,0.6686,,,,,,,,0,0,0,89,1,,
5e3a9e0dfbce8a296258c297,2023-06-16_10h45.06.179,phx_ver10,2022.2.5,Linux x86_64,59.97361161,,,,,,,,,,,,50,testing_3,zh2j,a,zh2j_a,zh2j_8_aja.wav,zh2j_8_aja.wav,,TRUE,FALSE,,,,,,,,,,,,,,f,0.3954,space,0.7345,,,,,,,,0,1,1,49,1,,
5e3a9e0dfbce8a296258c297,2023-06-16_10h45.06.179,phx_ver10,2022.2.5,Linux x86_64,59.97361161,,,,,,,,,,,,80,testing_3,j2x,ai,j2x_ai,j2x_8_aixai.wav,j2x_1_aijai.wav,,FALSE,FALSE,,,,,,,,,,,,,,j,0.587,space,1.0025,,,,,,,,0,2,2,79,1,,
5e3a9e0dfbce8a296258c297,2023-06-16_10h45.06.179,phx_ver10,2022.2.5,Linux x86_64,59.97361161,,,,,,,,,,,,102,testing_3,sh2x,ai,sh2x_ai,sh2x_8_aixai.wav,sh2x_8_aixai.wav,,TRUE,FALSE,,,,,,,,,,,,,,f,0.3439,space,0.6564,,,,,,,,0,3,3,101,1,,
5e3a9e0dfbce8a296258c297,2023-06-16_10h45.06.179,phx_ver10,2022.2.5,Linux x86_64,59.97361161,,,,,,,,,,,,21,testing_2,zh2x,ei,zh2x_ei,zh2x_1_eizhei.wav,zh2x_1_eizhei.wav,,TRUE,FALSE,,,,,,,,,,,,,,f,0.9678,space,1.3571,,,,,,,,0,4,4,20,1,,
5e3a9e0dfbce8a296258c297,2023-06-16_10h45.06.179,phx_ver10,2022.2.5,Linux x86_64,59.97361161,,,,,,,,,,,,78,testing_3,j2x,ai,j2x_ai,j2x_8_aixai.wav,j2x_8_aixai.wav,,TRUE,FALSE,,,,,,,,,,,,,,f,0.1038,space,0.4687,,,,,,,,0,5,5,77,1,,
5e3a9e0dfbce8a296258c297,2023-06-16_10h45.06.179,phx_ver10,2022.2.5,Linux x86_64,59.97361161,,,,,,,,,,,,132,testing_3,sh2j,au,sh2j_au,sh2j_8_aujau.wav,sh2j_1_aushau.wav,,FALSE,FALSE,,,,,,,,,,,,,,j,0.3006,space,0.5925,,,,,,,,0,6,6,131,1,,
5e3a9e0dfbce8a296258c297,2023-06-16_10h45.06.179,phx_ver10,2022.2.5,Linux x86_64,59.97361161,,,,,,,,,,,,5,testing_1,zh2x,e,zh2x_e,zh2x_1_ezhe.wav,zh2x_1_ezhe_copy.wav,,TRUE,TRUE,,,,,,,,,,,,,,f,0.0352,space,0.4004,,,,,,,,0,7,7,4,1,,
5e3a9e0dfbce8a296258c297,2023-06-16_10h45.06.179,phx_ver10,2022.2.5,Linux x86_64,59.97361161,,,,,,,,,,,,104,testing_3,sh2x,ai,sh2x_ai,sh2x_8_aixai.wav,sh2x_1_aishai.wav,,FALSE,FALSE,,,,,,,,,,,,,,j,0.6023,space,0.9689,,,,,,,,0,8,8,103,1,,
5e3a9e0dfbce8a296258c297,2023-06-16_10h45.06.179,phx_ver10,2022.2.5,Linux x86_64,59.97361161,,,,,,,,,,,,64,testing_3,zh2j,e,zh2j_e,zh2j_8_eje.wav,zh2j_1_ezhe.wav,,FALSE,FALSE,,,,,,,,,,,,,,f,0.3035,space,0.6348,,,,,,,,0,9,9,63,1,,
5e3a9e0dfbce8a296258c297,2023-06-16_10h45.06.179,phx_ver10,2022.2.5,Linux x86_64,59.97361161,,,,,,,,,,,,106,testing_3,sh2x,au,sh2x_au,sh2x_8_auxau.wav,sh2x_8_auxau.wav,,TRUE,FALSE,,,,,,,,,,,,,,f,0.9802,space,1.4071,,,,,,,,0,10,10,105,1,,
5e3a9e0dfbce8a296258c297,2023-06-16_10h45.06.179,phx_ver10,2022.2.5,Linux x86_64,59.97361161,,,,,,,,,,,,143,testing_3,sh2j,i,sh2j_i,sh2j_1_ishi.wav,sh2j_8_iji.wav,,FALSE,FALSE,,,,,,,,,,,,,,j,0.3863,space,0.6213,,,,,,,,0,11,11,142,1,,
5e3a9e0dfbce8a296258c297,2023-06-16_10h45.06.179,phx_ver10,2022.2.5,Linux x86_64,59.97361161,,,,,,,,,,,,140,testing_3,sh2j,ei,sh2j_ei,sh2j_8_eijei.wav,sh2j_1_eishei.wav,,FALSE,FALSE,,,,,,,,,,,,,,j,0.3619,space,0.5735,,,,,,,,0,12,12,139,1,,
5e3a9e0dfbce8a296258c297,2023-06-16_10h45.06.179,phx_ver10,2022.2.5,Linux x86_64,59.97361161,,,,,,,,,,,,105,testing_3,sh2x,au,sh2x_au,sh2x_1_aushau.wav,sh2x_1_aushau.wav,,TRUE,FALSE,,,,,,,,,,,,,,f,0.154,space,0.6505,,,,,,,,0,13,13,104,1,,
5e3a9e0dfbce8a296258c297,2023-06-16_10h45.06.179,phx_ver10,2022.2.5,Linux x86_64,59.97361161,,,,,,,,,,,,76,testing_3,j2x,a,j2x_a,j2x_8_axa.wav,j2x_1_aja.wav,,FALSE,FALSE,,,,,,,,,,,,,,j,0.7227,space,1.059,,,,,,,,0,14,14,75,1,,
5e3a9e0dfbce8a296258c297,2023-06-16_10h45.06.179,phx_ver10,2022.2.5,Linux x86_64,59.97361161,,,,,,,,,,,,95,testing_3,j2x,i,j2x_i,j2x_1_iji.wav,j2x_8_ixi.wav,,FALSE,FALSE,,,,,,,,,,,,,,j,0.2698,space,0.6024,,,,,,,,0,15,15,94,1,,
5e3a9e0dfbce8a296258c297,2023-06-16_10h45.06.179,phx_ver10,2022.2.5,Linux x86_64,59.97361161,,,,,,,,,,,,94,testing_3,j2x,i,j2x_i,j2x_8_ixi.wav,j2x_8_ixi.wav,,TRUE,FALSE,,,,,,,,,,,,,,f,0.1764,space,0.4237,,,,,,,,0,16,16,93,1,,
5e3a9e0dfbce8a296258c297,2023-06-16_10h45.06.179,phx_ver10,2022.2.5,Linux x86_64,59.97361161,,,,,,,,,,,,103,testing_3,sh2x,ai,sh2x_ai,sh2x_1_aishai.wav,sh2x_8_aixai.wav,,FALSE,FALSE,,,,,,,,,,,,,,f,1.3592,space,1.7188,,,,,,,,0,17,17,102,1,,
5e3a9e0dfbce8a296258c297,2023-06-16_10h45.06.179,phx_ver10,2022.2.5,Linux x86_64,59.97361161,,,,,,,,,,,,22,testing_2,zh2x,ei,zh2x_ei,zh2x_8_eixei.wav,zh2x_8_eixei.wav,,TRUE,FALSE,,,,,,,,,,,,,,f,0.2353,space,0.4365,,,,,,,,0,18,18,21,1,,
5e3a9e0dfbce8a296258c297,2023-06-16_10h45.06.179,phx_ver10,2022.2.5,Linux x86_64,59.97361161,,,,,,,,,,,,65,testing_3,zh2j,ei,zh2j_ei,zh2j_1_eizhei.wav,zh2j_1_eizhei.wav,,TRUE,FALSE,,,,,,,,,,,,,,j,0.1611,space,0.4897,,,,,,,,0,19,19,64,1,,
5e3a9e0dfbce8a296258c297,2023-06-16_10h45.06.179,phx_ver10,2022.2.5,Linux x86_64,59.97361161,,,,,,,,,,,,11,testing_1,zh2x,i,zh2x_i,zh2x_1_izhi.wav,zh2x_8_ixi.wav,,FALSE,TRUE,,,,,,,,,,,,,,j,0.2345,space,0.469,,,,,,,,0,20,20,10,1,,
5e3a9e0dfbce8a296258c297,2023-06-16_10h45.06.179,phx_ver10,2022.2.5,Linux x86_64,59.97361161,,,,,,,,,,,,121,testing_3,sh2j,a,sh2j_a,sh2j_1_asha.wav,sh2j_1_asha.wav,,TRUE,FALSE,,,,,,,,,,,,,,f,0.2024,space,0.4716,,,,,,,,0,21,21,120,1,,
5e3a9e0dfbce8a296258c297,2023-06-16_10h45.06.179,phx_ver10,2022.2.5,Linux x86_64,59.97361161,,,,,,,,,,,,68,testing_3,zh2j,ei,zh2j_ei,zh2j_8_eijei.wav,zh2j_1_eizhei.wav,,FALSE,FALSE,,,,,,,,,,,,,,f,1.2847,space,1.7685,,,,,,,,0,22,22,67,1,,
5e3a9e0dfbce8a296258c297,2023-06-16_10h45.06.179,phx_ver10,2022.2.5,Linux x86_64,59.97361161,,,,,,,,,,,,113,testing_3,sh2x,ei,sh2x_ei,sh2x_1_eishei.wav,sh2x_1_eishei.wav,,TRUE,FALSE,,,,,,,,,,,,,,f,0.1323,space,0.4007,,,,,,,,0,23,23,112,1,,
5e3a9e0dfbce8a296258c297,2023-06-16_10h45.06.179,phx_ver10,2022.2.5,Linux x86_64,59.97361161,,,,,,,,,,,,66,testing_3,zh2j,ei,zh2j_ei,zh2j_8_eijei.wav,zh2j_8_eijei.wav,,TRUE,FALSE,,,,,,,,,,,,,,f,0.305,space,0.5532,,,,,,,,0,24,24,65,1,,
5e3a9e0dfbce8a296258c297,2023-06-16_10h45.06.179,phx_ver10,2022.2.5,Linux x86_64,59.97361161,,,,,,,,,,,,72,testing_3,zh2j,i,zh2j_i,zh2j_8_iji.wav,zh2j_1_izhi.wav,,FALSE,FALSE,,,,,,,,,,,,,,j,0.8344,space,1.1997,,,,,,,,0,25,25,71,1,,
5e3a9e0dfbce8a296258c297,2023-06-16_10h45.06.179,phx_ver10,2022.2.5,Linux x86_64,59.97361161,,,,,,,,,,,,37,testing_3,zh2sh,e,zh2sh_e,zh2sh_1_ezhe.wav,zh2sh_1_ezhe.wav,,TRUE,FALSE,,,,,,,,,,,,,,f,0.7001,space,1.1018,,,,,,,,0,26,26,36,1,,
5e3a9e0dfbce8a296258c297,2023-06-16_10h45.06.179,phx_ver10,2022.2.5,Linux x86_64,59.97361161,,,,,,,,,,,,67,testing_3,zh2j,ei,zh2j_ei,zh2j_1_eizhei.wav,zh2j_8_eijei.wav,,FALSE,FALSE,,,,,,,,,,,,,,f,1.2436,space,1.5523,,,,,,,,0,27,27,66,1,,
5e3a9e0dfbce8a296258c297,2023-06-16_10h45.06.179,phx_ver10,2022.2.5,Linux x86_64,59.97361161,,,,,,,,,,,,74,testing_3,j2x,a,j2x_a,j2x_8_axa.wav,j2x_8_axa.wav,,TRUE,FALSE,,,,,,,,,,,,,,f,0.2616,space,0.5285,,,,,,,,0,28,28,73,1,,
5e3a9e0dfbce8a296258c297,2023-06-16_10h45.06.179,phx_ver10,2022.2.5,Linux x86_64,59.97361161,,,,,,,,,,,,58,testing_3,zh2j,au,zh2j_au,zh2j_8_aujau.wav,zh2j_8_aujau.wav,,TRUE,FALSE,,,,,,,,,,,,,,f,0.3847,space,0.7529,,,,,,,,0,29,29,57,1,,
5e3a9e0dfbce8a296258c297,2023-06-16_10h45.06.179,phx_ver10,2022.2.5,Linux x86_64,59.97361161,,,,,,,,,,,,86,testing_3,j2x,e,j2x_e,j2x_8_exe.wav,j2x_8_exe.wav,,TRUE,FALSE,,,,,,,,,,,,,,f,0.0681,space,0.2889,,,,,,,,0,30,30,85,1,,
5e3a9e0dfbce8a296258c297,2023-06-16_10h45.06.179,phx_ver10,2022.2.5,Linux x86_64,59.97361161,,,,,,,,,,,,57,testing_3,zh2j,au,zh2j_au,zh2j_1_auzhau.wav,zh2j_1_auzhau.wav,,TRUE,FALSE,,,,,,,,,,,,,,f,0.3707,space,1.1029,,,,,,,,0,31,31,56,1,,
5e3a9e0dfbce8a296258c297,2023-06-16_10h45.06.179,phx_ver10,2022.2.5,Linux x86_64,59.97361161,,,,,,,,,,,,33,testing_3,zh2sh,au,zh2sh_au,zh2sh_1_auzhau.wav,zh2sh_1_auzhau.wav,,TRUE,FALSE,,,,,,,,,,,,,,f,0.5525,space,1.1364,,,,,,,,0,32,32,32,1,,
5e3a9e0dfbce8a296258c297,2023-06-16_10h45.06.179,phx_ver10,2022.2.5,Linux x86_64,59.97361161,,,,,,,,,,,,63,testing_3,zh2j,e,zh2j_e,zh2j_1_ezhe.wav,zh2j_8_eje.wav,,FALSE,FALSE,,,,,,,,,,,,,,j,1.2045,space,1.5858,,,,,,,,0,33,33,62,1,,
5e3a9e0dfbce8a296258c297,2023-06-16_10h45.06.179,phx_ver10,2022.2.5,Linux x86_64,59.97361161,,,,,,,,,,,,114,testing_3,sh2x,ei,sh2x_ei,sh2x_8_eixei.wav,sh2x_8_eixei.wav,,TRUE,FALSE,,,,,,,,,,,,,,f,0.9704,space,1.2571,,,,,,,,0,34,34,113,1,,
5e3a9e0dfbce8a296258c297,2023-06-16_10h45.06.179,phx_ver10,2022.2.5,Linux x86_64,59.97361161,,,,,,,,,,,,131,testing_3,sh2j,au,sh2j_au,sh2j_1_aushau.wav,sh2j_8_aujau.wav,,FALSE,FALSE,,,,,,,,,,,,,,j,0.6897,space,0.9279,,,,,,,,0,35,35,130,1,,
5e3a9e0dfbce8a296258c297,2023-06-16_10h45.06.179,phx_ver10,2022.2.5,Linux x86_64,59.97361161,,,,,,,,,,,,135,testing_3,sh2j,e,sh2j_e,sh2j_1_eshe.wav,sh2j_8_eje.wav,,FALSE,FALSE,,,,,,,,,,,,,,j,0.4204,space,0.6515,,,,,,,,0,36,36,134,1,,
5e3a9e0dfbce8a296258c297,2023-06-16_10h45.06.179,phx_ver10,2022.2.5,Linux x86_64,59.97361161,,,,,,,,,,,,23,testing_2,zh2x,ei,zh2x_ei,zh2x_1_eizhei.wav,zh2x_8_eixei.wav,,FALSE,FALSE,,,,,,,,,,,,,,j,0.4866,space,0.7033,,,,,,,,0,37,37,22,1,,
5e3a9e0dfbce8a296258c297,2023-06-16_10h45.06.179,phx_ver10,2022.2.5,Linux x86_64,59.97361161,,,,,,,,,,,,119,testing_3,sh2x,i,sh2x_i,sh2x_1_ishi.wav,sh2x_8_ixi.wav,,FALSE,FALSE,,,,,,,,,,,,,,f,0.2855,space,0.774,,,,,,,,0,38,38,118,1,,
5e3a9e0dfbce8a296258c297,2023-06-16_10h45.06.179,phx_ver10,2022.2.5,Linux x86_64,59.97361161,,,,,,,,,,,,92,testing_3,j2x,ei,j2x_ei,j2x_8_eixei.wav,j2x_1_eijei.wav,,FALSE,FALSE,,,,,,,,,,,,,,j,0.9242,space,1.253,,,,,,,,0,39,39,91,1,,
5e3a9e0dfbce8a296258c297,2023-06-16_10h45.06.179,phx_ver10,2022.2.5,Linux x86_64,59.97361161,,,,,,,,,,,,10,testing_1,zh2x,i,zh2x_i,zh2x_8_ixi.wav,zh2x_8_ixi_copy.wav,,TRUE,TRUE,,,,,,,,,,,,,,f,0.2525,space,0.4241,,,,,,,,0,40,40,9,1,,
5e3a9e0dfbce8a296258c297,2023-06-16_10h45.06.179,phx_ver10,2022.2.5,Linux x86_64,59.97361161,,,,,,,,,,,,46,testing_3,zh2sh,i,zh2sh_i,zh2sh_8_ishi.wav,zh2sh_8_ishi.wav,,TRUE,FALSE,,,,,,,,,,,,,,f,0.2381,space,0.3714,,,,,,,,0,41,41,45,1,,
5e3a9e0dfbce8a296258c297,2023-06-16_10h45.06.179,phx_ver10,2022.2.5,Linux x86_64,59.97361161,,,,,,,,,,,,127,testing_3,sh2j,ai,sh2j_ai,sh2j_1_aishai.wav,sh2j_8_aijai.wav,,FALSE,FALSE,,,,,,,,,,,,,,j,0.8515,space,1.1187,,,,,,,,0,42,42,126,1,,
5e3a9e0dfbce8a296258c297,2023-06-16_10h45.06.179,phx_ver10,2022.2.5,Linux x86_64,59.97361161,,,,,,,,,,,,3,testing_1,zh2x,a,zh2x_a,zh2x_1_azha.wav,zh2x_8_axa.wav,,FALSE,TRUE,,,,,,,,,,,,,,j,0.7365,space,0.9463,,,,,,,,0,43,43,2,1,,
5e3a9e0dfbce8a296258c297,2023-06-16_10h45.06.179,phx_ver10,2022.2.5,Linux x86_64,59.97361161,,,,,,,,,,,,81,testing_3,j2x,au,j2x_au,j2x_1_aujau.wav,j2x_1_aujau.wav,,TRUE,FALSE,,,,,,,,,,,,,,f,1.1688,space,1.4405,,,,,,,,0,44,44,80,1,,
5e3a9e0dfbce8a296258c297,2023-06-16_10h45.06.179,phx_ver10,2022.2.5,Linux x86_64,59.97361161,,,,,,,,,,,,31,testing_3,zh2sh,ai,zh2sh_ai,zh2sh_1_aizhai.wav,zh2sh_8_aishai.wav,,FALSE,FALSE,,,,,,,,,,,,,,j,0.4222,space,0.6523,,,,,,,,0,45,45,30,1,,
5e3a9e0dfbce8a296258c297,2023-06-16_10h45.06.179,phx_ver10,2022.2.5,Linux x86_64,59.97361161,,,,,,,,,,,,77,testing_3,j2x,ai,j2x_ai,j2x_1_aijai.wav,j2x_1_aijai.wav,,TRUE,FALSE,,,,,,,,,,,,,,f,0.8514,space,1.0846,,,,,,,,0,46,46,76,1,,
5e3a9e0dfbce8a296258c297,2023-06-16_10h45.06.179,phx_ver10,2022.2.5,Linux x86_64,59.97361161,,,,,,,,,,,,87,testing_3,j2x,e,j2x_e,j2x_1_eje.wav,j2x_8_exe.wav,,FALSE,FALSE,,,,,,,,,,,,,,j,0.2543,space,0.4702,,,,,,,,0,47,47,86,1,,
5e3a9e0dfbce8a296258c297,2023-06-16_10h45.06.179,phx_ver10,2022.2.5,Linux x86_64,59.97361161,,,,,,,,,,,,137,testing_3,sh2j,ei,sh2j_ei,sh2j_1_eishei.wav,sh2j_1_eishei.wav,,TRUE,FALSE,,,,,,,,,,,,,,f,0.1565,space,0.6281,,,,,,,,0,48,48,136,1,,
5e3a9e0dfbce8a296258c297,2023-06-16_10h45.06.179,phx_ver10,2022.2.5,Linux x86_64,59.97361161,,,,,,,,,,,,139,testing_3,sh2j,ei,sh2j_ei,sh2j_1_eishei.wav,sh2j_8_eijei.wav,,FALSE,FALSE,,,,,,,,,,,,,,j,0.3423,space,0.9855,,,,,,,,0,49,49,138,1,,
5e3a9e0dfbce8a296258c297,2023-06-16_10h45.06.179,phx_ver10,2022.2.5,Linux x86_64,59.97361161,,,,,,,,,,,,84,testing_3,j2x,au,j2x_au,j2x_8_auxau.wav,j2x_1_aujau.wav,,FALSE,FALSE,,,,,,,,,,,,,,j,0.2536,space,0.4711,,,,,,,,0,50,50,83,1,,
5e3a9e0dfbce8a296258c297,2023-06-16_10h45.06.179,phx_ver10,2022.2.5,Linux x86_64,59.97361161,,,,,,,,,,,,129,testing_3,sh2j,au,sh2j_au,sh2j_1_aushau.wav,sh2j_1_aushau.wav,,TRUE,FALSE,,,,,,,,,,,,,,f,1.3188,space,1.6752,,,,,,,,0,51,51,128,1,,
5e3a9e0dfbce8a296258c297,2023-06-16_10h45.06.179,phx_ver10,2022.2.5,Linux x86_64,59.97361161,,,,,,,,,,,,13,testing_2,zh2x,ai,zh2x_ai,zh2x_1_aizhai.wav,zh2x_1_aizhai.wav,,TRUE,FALSE,,,,,,,,,,,,,,f,0.9529,space,1.2703,,,,,,,,0,52,52,12,1,,
5e3a9e0dfbce8a296258c297,2023-06-16_10h45.06.179,phx_ver10,2022.2.5,Linux x86_64,59.97361161,,,,,,,,,,,,125,testing_3,sh2j,ai,sh2j_ai,sh2j_1_aishai.wav,sh2j_1_aishai.wav,,TRUE,FALSE,,,,,,,,,,,,,,f,0.3857,space,0.7249,,,,,,,,0,53,53,124,1,,
5e3a9e0dfbce8a296258c297,2023-06-16_10h45.06.179,phx_ver10,2022.2.5,Linux x86_64,59.97361161,,,,,,,,,,,,89,testing_3,j2x,ei,j2x_ei,j2x_1_eijei.wav,j2x_1_eijei.wav,,TRUE,FALSE,,,,,,,,,,,,,,f,0.3549,space,0.5534,,,,,,,,0,54,54,88,1,,
5e3a9e0dfbce8a296258c297,2023-06-16_10h45.06.179,phx_ver10,2022.2.5,Linux x86_64,59.97361161,,,,,,,,,,,,2,testing_1,zh2x,a,zh2x_a,zh2x_8_axa.wav,zh2x_8_axa_copy.wav,,TRUE,TRUE,,,,,,,,,,,,,,f,1.0024,space,1.2695,,,,,,,,0,55,55,1,1,,
5e3a9e0dfbce8a296258c297,2023-06-16_10h45.06.179,phx_ver10,2022.2.5,Linux x86_64,59.97361161,,,,,,,,,,,,41,testing_3,zh2sh,ei,zh2sh_ei,zh2sh_1_eizhei.wav,zh2sh_1_eizhei.wav,,TRUE,FALSE,,,,,,,,,,,,,,j,2.2899,space,2.5742,,,,,,,,0,56,56,40,1,,
5e3a9e0dfbce8a296258c297,2023-06-16_10h45.06.179,phx_ver10,2022.2.5,Linux x86_64,59.97361161,,,,,,,,,,,,71,testing_3,zh2j,i,zh2j_i,zh2j_1_izhi.wav,zh2j_8_iji.wav,,FALSE,FALSE,,,,,,,,,,,,,,j,0.5207,space,0.7527,,,,,,,,0,57,57,70,1,,
5e3a9e0dfbce8a296258c297,2023-06-16_10h45.06.179,phx_ver10,2022.2.5,Linux x86_64,59.97361161,,,,,,,,,,,,15,testing_2,zh2x,ai,zh2x_ai,zh2x_1_aizhai.wav,zh2x_8_aixai.wav,,FALSE,FALSE,,,,,,,,,,,,,,j,0.6005,space,0.8066,,,,,,,,0,58,58,14,1,,
5e3a9e0dfbce8a296258c297,2023-06-16_10h45.06.179,phx_ver10,2022.2.5,Linux x86_64,59.97361161,,,,,,,,,,,,123,testing_3,sh2j,a,sh2j_a,sh2j_1_asha.wav,sh2j_8_aja.wav,,FALSE,FALSE,,,,,,,,,,,,,,j,1.639,space,1.936,,,,,,,,0,59,59,122,1,,
5e3a9e0dfbce8a296258c297,2023-06-16_10h45.06.179,phx_ver10,2022.2.5,Linux x86_64,59.97361161,,,,,,,,,,,,70,testing_3,zh2j,i,zh2j_i,zh2j_8_iji.wav,zh2j_8_iji.wav,,TRUE,FALSE,,,,,,,,,,,,,,f,1.5797,space,1.987,,,,,,,,0,60,60,69,1,,
5e3a9e0dfbce8a296258c297,2023-06-16_10h45.06.179,phx_ver10,2022.2.5,Linux x86_64,59.97361161,,,,,,,,,,,,34,testing_3,zh2sh,au,zh2sh_au,zh2sh_8_aushau.wav,zh2sh_8_aushau.wav,,TRUE,FALSE,,,,,,,,,,,,,,f,0.9529,space,1.1547,,,,,,,,0,61,61,33,1,,
5e3a9e0dfbce8a296258c297,2023-06-16_10h45.06.179,phx_ver10,2022.2.5,Linux x86_64,59.97361161,,,,,,,,,,,,49,testing_3,zh2j,a,zh2j_a,zh2j_1_azha.wav,zh2j_1_azha.wav,,TRUE,FALSE,,,,,,,,,,,,,,f,0.552,space,0.7183,,,,,,,,0,62,62,48,1,,
5e3a9e0dfbce8a296258c297,2023-06-16_10h45.06.179,phx_ver10,2022.2.5,Linux x86_64,59.97361161,,,,,,,,,,,,110,testing_3,sh2x,e,sh2x_e,sh2x_8_exe.wav,sh2x_8_exe.wav,,TRUE,FALSE,,,,,,,,,,,,,,f,0.2346,space,0.4017,,,,,,,,0,63,63,109,1,,
5e3a9e0dfbce8a296258c297,2023-06-16_10h45.06.179,phx_ver10,2022.2.5,Linux x86_64,59.97361161,,,,,,,,,,,,24,testing_2,zh2x,ei,zh2x_ei,zh2x_8_eixei.wav,zh2x_1_eizhei.wav,,FALSE,FALSE,,,,,,,,,,,,,,j,0.4031,space,0.7013,,,,,,,,0,64,64,23,1,,
5e3a9e0dfbce8a296258c297,2023-06-16_10h45.06.179,phx_ver10,2022.2.5,Linux x86_64,59.97361161,,,,,,,,,,,,59,testing_3,zh2j,au,zh2j_au,zh2j_1_auzhau.wav,zh2j_8_aujau.wav,,FALSE,FALSE,,,,,,,,,,,,,,j,0.3194,space,0.5071,,,,,,,,0,65,65,58,1,,
5e3a9e0dfbce8a296258c297,2023-06-16_10h45.06.179,phx_ver10,2022.2.5,Linux x86_64,59.97361161,,,,,,,,,,,,52,testing_3,zh2j,a,zh2j_a,zh2j_8_aja.wav,zh2j_1_azha.wav,,FALSE,FALSE,,,,,,,,,,,,,,j,0.4042,space,0.6364,,,,,,,,0,66,66,51,1,,
5e3a9e0dfbce8a296258c297,2023-06-16_10h45.06.179,phx_ver10,2022.2.5,Linux x86_64,59.97361161,,,,,,,,,,,,38,testing_3,zh2sh,e,zh2sh_e,zh2sh_8_eshe.wav,zh2sh_8_eshe.wav,,TRUE,FALSE,,,,,,,,,,,,,,f,0.3773,space,0.7367,,,,,,,,0,67,67,37,1,,
5e3a9e0dfbce8a296258c297,2023-06-16_10h45.06.179,phx_ver10,2022.2.5,Linux x86_64,59.97361161,,,,,,,,,,,,75,testing_3,j2x,a,j2x_a,j2x_1_aja.wav,j2x_8_axa.wav,,FALSE,FALSE,,,,,,,,,,,,,,j,0.2887,space,0.5301,,,,,,,,0,68,68,74,1,,
5e3a9e0dfbce8a296258c297,2023-06-16_10h45.06.179,phx_ver10,2022.2.5,Linux x86_64,59.97361161,,,,,,,,,,,,101,testing_3,sh2x,ai,sh2x_ai,sh2x_1_aishai.wav,sh2x_1_aishai.wav,,TRUE,FALSE,,,,,,,,,,,,,,f,0.2246,space,0.4176,,,,,,,,0,69,69,100,1,,
5e3a9e0dfbce8a296258c297,2023-06-16_10h45.06.179,phx_ver10,2022.2.5,Linux x86_64,59.97361161,,,,,,,,,,,,8,testing_1,zh2x,e,zh2x_e,zh2x_8_exe.wav,zh2x_1_ezhe.wav,,FALSE,TRUE,,,,,,,,,,,,,,j,0.8405,space,1.1599,,,,,,,,0,70,70,7,1,,
5e3a9e0dfbce8a296258c297,2023-06-16_10h45.06.179,phx_ver10,2022.2.5,Linux x86_64,59.97361161,,,,,,,,,,,,112,testing_3,sh2x,e,sh2x_e,sh2x_8_exe.wav,sh2x_1_eshe.wav,,FALSE,FALSE,,,,,,,,,,,,,,j,0.9512,space,1.2057,,,,,,,,0,71,71,111,1,,
5e3a9e0dfbce8a296258c297,2023-06-16_10h45.06.179,phx_ver10,2022.2.5,Linux x86_64,59.97361161,,,,,,,,,,,,12,testing_1,zh2x,i,zh2x_i,zh2x_8_ixi.wav,zh2x_1_izhi.wav,,FALSE,TRUE,,,,,,,,,,,,,,j,0.3329,space,0.5315,,,,,,,,0,72,72,11,1,,
5e3a9e0dfbce8a296258c297,2023-06-16_10h45.06.179,phx_ver10,2022.2.5,Linux x86_64,59.97361161,,,,,,,,,,,,69,testing_3,zh2j,i,zh2j_i,zh2j_1_izhi.wav,zh2j_1_izhi.wav,,TRUE,FALSE,,,,,,,,,,,,,,f,0.4111,space,0.6075,,,,,,,,0,73,73,68,1,,
5e3a9e0dfbce8a296258c297,2023-06-16_10h45.06.179,phx_ver10,2022.2.5,Linux x86_64,59.97361161,,,,,,,,,,,,51,testing_3,zh2j,a,zh2j_a,zh2j_1_azha.wav,zh2j_8_aja.wav,,FALSE,FALSE,,,,,,,,,,,,,,j,0.4128,space,0.6784,,,,,,,,0,74,74,50,1,,
5e3a9e0dfbce8a296258c297,2023-06-16_10h45.06.179,phx_ver10,2022.2.5,Linux x86_64,59.97361161,,,,,,,,,,,,138,testing_3,sh2j,ei,sh2j_ei,sh2j_8_eijei.wav,sh2j_8_eijei.wav,,TRUE,FALSE,,,,,,,,,,,,,,f,0.2356,space,0.3865,,,,,,,,0,75,75,137,1,,
5e3a9e0dfbce8a296258c297,2023-06-16_10h45.06.179,phx_ver10,2022.2.5,Linux x86_64,59.97361161,,,,,,,,,,,,19,testing_2,zh2x,au,zh2x_au,zh2x_1_auzhau.wav,zh2x_8_auxau.wav,,FALSE,FALSE,,,,,,,,,,,,,,j,0.777,space,0.989,,,,,,,,0,76,76,18,1,,
5e3a9e0dfbce8a296258c297,2023-06-16_10h45.06.179,phx_ver10,2022.2.5,Linux x86_64,59.97361161,,,,,,,,,,,,142,testing_3,sh2j,i,sh2j_i,sh2j_8_iji.wav,sh2j_8_iji.wav,,TRUE,FALSE,,,,,,,,,,,,,,f,0.2503,space,0.7432,,,,,,,,0,77,77,141,1,,
5e3a9e0dfbce8a296258c297,2023-06-16_10h45.06.179,phx_ver10,2022.2.5,Linux x86_64,59.97361161,,,,,,,,,,,,126,testing_3,sh2j,ai,sh2j_ai,sh2j_8_aijai.wav,sh2j_8_aijai.wav,,TRUE,FALSE,,,,,,,,,,,,,,f,0.608,space,0.9363,,,,,,,,0,78,78,125,1,,
5e3a9e0dfbce8a296258c297,2023-06-16_10h45.06.179,phx_ver10,2022.2.5,Linux x86_64,59.97361161,,,,,,,,,,,,42,testing_3,zh2sh,ei,zh2sh_ei,zh2sh_8_eishei.wav,zh2sh_8_eishei.wav,,TRUE,FALSE,,,,,,,,,,,,,,f,0.1365,space,0.2616,,,,,,,,0,79,79,41,1,,
5e3a9e0dfbce8a296258c297,2023-06-16_10h45.06.179,phx_ver10,2022.2.5,Linux x86_64,59.97361161,,,,,,,,,,,,136,testing_3,sh2j,e,sh2j_e,sh2j_8_eje.wav,sh2j_1_eshe.wav,,FALSE,FALSE,,,,,,,,,,,,,,j,0.2682,space,0.4683,,,,,,,,0,80,80,135,1,,
5e3a9e0dfbce8a296258c297,2023-06-16_10h45.06.179,phx_ver10,2022.2.5,Linux x86_64,59.97361161,,,,,,,,,,,,43,testing_3,zh2sh,ei,zh2sh_ei,zh2sh_1_eizhei.wav,zh2sh_8_eishei.wav,,FALSE,FALSE,,,,,,,,,,,,,,j,0.2403,space,0.4355,,,,,,,,0,81,81,42,1,,
5e3a9e0dfbce8a296258c297,2023-06-16_10h45.06.179,phx_ver10,2022.2.5,Linux x86_64,59.97361161,,,,,,,,,,,,28,testing_3,zh2sh,a,zh2sh_a,zh2sh_8_asha.wav,zh2sh_1_azha.wav,,FALSE,FALSE,,,,,,,,,,,,,,j,0.4056,space,0.605,,,,,,,,0,82,82,27,1,,
5e3a9e0dfbce8a296258c297,2023-06-16_10h45.06.179,phx_ver10,2022.2.5,Linux x86_64,59.97361161,,,,,,,,,,,,124,testing_3,sh2j,a,sh2j_a,sh2j_8_aja.wav,sh2j_1_asha.wav,,FALSE,FALSE,,,,,,,,,,,,,,j,0.1538,space,0.3288,,,,,,,,0,83,83,123,1,,
5e3a9e0dfbce8a296258c297,2023-06-16_10h45.06.179,phx_ver10,2022.2.5,Linux x86_64,59.97361161,,,,,,,,,,,,29,testing_3,zh2sh,ai,zh2sh_ai,zh2sh_1_aizhai.wav,zh2sh_1_aizhai.wav,,TRUE,FALSE,,,,,,,,,,,,,,f,1.2722,space,1.5369,,,,,,,,0,84,84,28,1,,
5e3a9e0dfbce8a296258c297,2023-06-16_10h45.06.179,phx_ver10,2022.2.5,Linux x86_64,59.97361161,,,,,,,,,,,,115,testing_3,sh2x,ei,sh2x_ei,sh2x_1_eishei.wav,sh2x_8_eixei.wav,,FALSE,FALSE,,,,,,,,,,,,,,j,0.4263,space,0.6388,,,,,,,,0,85,85,114,1,,
5e3a9e0dfbce8a296258c297,2023-06-16_10h45.06.179,phx_ver10,2022.2.5,Linux x86_64,59.97361161,,,,,,,,,,,,25,testing_3,zh2sh,a,zh2sh_a,zh2sh_1_azha.wav,zh2sh_1_azha.wav,,TRUE,FALSE,,,,,,,,,,,,,,f,0.3533,space,0.5208,,,,,,,,0,86,86,24,1,,
5e3a9e0dfbce8a296258c297,2023-06-16_10h45.06.179,phx_ver10,2022.2.5,Linux x86_64,59.97361161,,,,,,,,,,,,48,testing_3,zh2sh,i,zh2sh_i,zh2sh_8_ishi.wav,zh2sh_1_izhi.wav,,FALSE,FALSE,,,,,,,,,,,,,,j,0.1746,space,0.3685,,,,,,,,0,87,87,47,1,,
5e3a9e0dfbce8a296258c297,2023-06-16_10h45.06.179,phx_ver10,2022.2.5,Linux x86_64,59.97361161,,,,,,,,,,,,108,testing_3,sh2x,au,sh2x_au,sh2x_8_auxau.wav,sh2x_1_aushau.wav,,FALSE,FALSE,,,,,,,,,,,,,,j,0.4534,space,0.6188,,,,,,,,0,88,88,107,1,,
5e3a9e0dfbce8a296258c297,2023-06-16_10h45.06.179,phx_ver10,2022.2.5,Linux x86_64,59.97361161,,,,,,,,,,,,1,testing_1,zh2x,a,zh2x_a,zh2x_1_azha.wav,zh2x_1_azha_copy.wav,,TRUE,TRUE,,,,,,,,,,,,,,f,0.138,space,0.3021,,,,,,,,0,89,89,0,1,,
5e3a9e0dfbce8a296258c297,2023-06-16_10h45.06.179,phx_ver10,2022.2.5,Linux x86_64,59.97361161,,,,,,,,,,,,120,testing_3,sh2x,i,sh2x_i,sh2x_8_ixi.wav,sh2x_1_ishi.wav,,FALSE,FALSE,,,,,,,,,,,,,,j,0.9694,space,1.2679,,,,,,,,0,90,90,119,1,,
5e3a9e0dfbce8a296258c297,2023-06-16_10h45.06.179,phx_ver10,2022.2.5,Linux x86_64,59.97361161,,,,,,,,,,,,16,testing_2,zh2x,ai,zh2x_ai,zh2x_8_aixai.wav,zh2x_1_aizhai.wav,,FALSE,FALSE,,,,,,,,,,,,,,j,0.2958,space,0.4938,,,,,,,,0,91,91,15,1,,
5e3a9e0dfbce8a296258c297,2023-06-16_10h45.06.179,phx_ver10,2022.2.5,Linux x86_64,59.97361161,,,,,,,,,,,,14,testing_2,zh2x,ai,zh2x_ai,zh2x_8_aixai.wav,zh2x_8_aixai.wav,,TRUE,FALSE,,,,,,,,,,,,,,f,0.3855,space,0.5849,,,,,,,,0,92,92,13,1,,
5e3a9e0dfbce8a296258c297,2023-06-16_10h45.06.179,phx_ver10,2022.2.5,Linux x86_64,59.97361161,,,,,,,,,,,,85,testing_3,j2x,e,j2x_e,j2x_1_eje.wav,j2x_1_eje.wav,,TRUE,FALSE,,,,,,,,,,,,,,j,1.1518,space,1.5585,,,,,,,,0,93,93,84,1,,
5e3a9e0dfbce8a296258c297,2023-06-16_10h45.06.179,phx_ver10,2022.2.5,Linux x86_64,59.97361161,,,,,,,,,,,,117,testing_3,sh2x,i,sh2x_i,sh2x_1_ishi.wav,sh2x_1_ishi.wav,,TRUE,FALSE,,,,,,,,,,,,,,f,0.0009,space,0.1895,,,,,,,,0,94,94,116,1,,
5e3a9e0dfbce8a296258c297,2023-06-16_10h45.06.179,phx_ver10,2022.2.5,Linux x86_64,59.97361161,,,,,,,,,,,,4,testing_1,zh2x,a,zh2x_a,zh2x_8_axa.wav,zh2x_1_azha.wav,,FALSE,TRUE,,,,,,,,,,,,,,j,0.2939,space,0.6204,,,,,,,,0,95,95,3,1,,
5e3a9e0dfbce8a296258c297,2023-06-16_10h45.06.179,phx_ver10,2022.2.5,Linux x86_64,59.97361161,,,,,,,,,,,,109,testing_3,sh2x,e,sh2x_e,sh2x_1_eshe.wav,sh2x_1_eshe.wav,,TRUE,FALSE,,,,,,,,,,,,,,f,0.2204,space,0.4222,,,,,,,,0,96,96,108,1,,
5e3a9e0dfbce8a296258c297,2023-06-16_10h45.06.179,phx_ver10,2022.2.5,Linux x86_64,59.97361161,,,,,,,,,,,,44,testing_3,zh2sh,ei,zh2sh_ei,zh2sh_8_eishei.wav,zh2sh_1_eizhei.wav,,FALSE,FALSE,,,,,,,,,,,,,,j,0.2518,space,0.4782,,,,,,,,0,97,97,43,1,,
5e3a9e0dfbce8a296258c297,2023-06-16_10h45.06.179,phx_ver10,2022.2.5,Linux x86_64,59.97361161,,,,,,,,,,,,47,testing_3,zh2sh,i,zh2sh_i,zh2sh_1_izhi.wav,zh2sh_8_ishi.wav,,FALSE,FALSE,,,,,,,,,,,,,,j,0.093,space,0.2762,,,,,,,,0,98,98,46,1,,
5e3a9e0dfbce8a296258c297,2023-06-16_10h45.06.179,phx_ver10,2022.2.5,Linux x86_64,59.97361161,,,,,,,,,,,,17,testing_2,zh2x,au,zh2x_au,zh2x_1_auzhau.wav,zh2x_1_auzhau.wav,,TRUE,FALSE,,,,,,,,,,,,,,f,0.8018,space,0.9928,,,,,,,,0,99,99,16,1,,
5e3a9e0dfbce8a296258c297,2023-06-16_10h45.06.179,phx_ver10,2022.2.5,Linux x86_64,59.97361161,,,,,,,,,,,,111,testing_3,sh2x,e,sh2x_e,sh2x_1_eshe.wav,sh2x_8_exe.wav,,FALSE,FALSE,,,,,,,,,,,,,,j,1.0021,space,1.2406,,,,,,,,0,100,100,110,1,,
5e3a9e0dfbce8a296258c297,2023-06-16_10h45.06.179,phx_ver10,2022.2.5,Linux x86_64,59.97361161,,,,,,,,,,,,27,testing_3,zh2sh,a,zh2sh_a,zh2sh_1_azha.wav,zh2sh_8_asha.wav,,FALSE,FALSE,,,,,,,,,,,,,,j,0.2921,space,0.685,,,,,,,,0,101,101,26,1,,
5e3a9e0dfbce8a296258c297,2023-06-16_10h45.06.179,phx_ver10,2022.2.5,Linux x86_64,59.97361161,,,,,,,,,,,,73,testing_3,j2x,a,j2x_a,j2x_1_aja.wav,j2x_1_aja.wav,,TRUE,FALSE,,,,,,,,,,,,,,f,0.2927,space,0.57,,,,,,,,0,102,102,72,1,,
5e3a9e0dfbce8a296258c297,2023-06-16_10h45.06.179,phx_ver10,2022.2.5,Linux x86_64,59.97361161,,,,,,,,,,,,61,testing_3,zh2j,e,zh2j_e,zh2j_1_ezhe.wav,zh2j_1_ezhe.wav,,TRUE,FALSE,,,,,,,,,,,,,,f,0.2841,space,0.5346,,,,,,,,0,103,103,60,1,,
5e3a9e0dfbce8a296258c297,2023-06-16_10h45.06.179,phx_ver10,2022.2.5,Linux x86_64,59.97361161,,,,,,,,,,,,30,testing_3,zh2sh,ai,zh2sh_ai,zh2sh_8_aishai.wav,zh2sh_8_aishai.wav,,TRUE,FALSE,,,,,,,,,,,,,,f,0.1539,space,0.3418,,,,,,,,0,104,104,29,1,,
5e3a9e0dfbce8a296258c297,2023-06-16_10h45.06.179,phx_ver10,2022.2.5,Linux x86_64,59.97361161,,,,,,,,,,,,53,testing_3,zh2j,ai,zh2j_ai,zh2j_1_aizhai.wav,zh2j_1_aizhai.wav,,TRUE,FALSE,,,,,,,,,,,,,,f,0.036,space,0.2674,,,,,,,,0,105,105,52,1,,
5e3a9e0dfbce8a296258c297,2023-06-16_10h45.06.179,phx_ver10,2022.2.5,Linux x86_64,59.97361161,,,,,,,,,,,,128,testing_3,sh2j,ai,sh2j_ai,sh2j_8_aijai.wav,sh2j_1_aishai.wav,,FALSE,FALSE,,,,,,,,,,,,,,j,0.7203,space,0.9442,,,,,,,,0,106,106,127,1,,
5e3a9e0dfbce8a296258c297,2023-06-16_10h45.06.179,phx_ver10,2022.2.5,Linux x86_64,59.97361161,,,,,,,,,,,,7,testing_1,zh2x,e,zh2x_e,zh2x_1_ezhe.wav,zh2x_8_exe.wav,,FALSE,TRUE,,,,,,,,,,,,,,j,0.3529,space,0.5288,,,,,,,,0,107,107,6,1,,
5e3a9e0dfbce8a296258c297,2023-06-16_10h45.06.179,phx_ver10,2022.2.5,Linux x86_64,59.97361161,,,,,,,,,,,,45,testing_3,zh2sh,i,zh2sh_i,zh2sh_1_izhi.wav,zh2sh_1_izhi.wav,,TRUE,FALSE,,,,,,,,,,,,,,f,0.1905,space,0.4242,,,,,,,,0,108,108,44,1,,
5e3a9e0dfbce8a296258c297,2023-06-16_10h45.06.179,phx_ver10,2022.2.5,Linux x86_64,59.97361161,,,,,,,,,,,,93,testing_3,j2x,i,j2x_i,j2x_1_iji.wav,j2x_1_iji.wav,,TRUE,FALSE,,,,,,,,,,,,,,f,0.0377,space,0.2199,,,,,,,,0,109,109,92,1,,
5e3a9e0dfbce8a296258c297,2023-06-16_10h45.06.179,phx_ver10,2022.2.5,Linux x86_64,59.97361161,,,,,,,,,,,,55,testing_3,zh2j,ai,zh2j_ai,zh2j_1_aizhai.wav,zh2j_8_aijai.wav,,FALSE,FALSE,,,,,,,,,,,,,,f,0.2048,space,0.4172,,,,,,,,0,110,110,54,1,,
5e3a9e0dfbce8a296258c297,2023-06-16_10h45.06.179,phx_ver10,2022.2.5,Linux x86_64,59.97361161,,,,,,,,,,,,107,testing_3,sh2x,au,sh2x_au,sh2x_1_aushau.wav,sh2x_8_auxau.wav,,FALSE,FALSE,,,,,,,,,,,,,,j,0.5032,space,0.8172,,,,,,,,0,111,111,106,1,,
5e3a9e0dfbce8a296258c297,2023-06-16_10h45.06.179,phx_ver10,2022.2.5,Linux x86_64,59.97361161,,,,,,,,,,,,122,testing_3,sh2j,a,sh2j_a,sh2j_8_aja.wav,sh2j_8_aja.wav,,TRUE,FALSE,,,,,,,,,,,,,,f,0.6867,space,1.0851,,,,,,,,0,112,112,121,1,,
5e3a9e0dfbce8a296258c297,2023-06-16_10h45.06.179,phx_ver10,2022.2.5,Linux x86_64,59.97361161,,,,,,,,,,,,54,testing_3,zh2j,ai,zh2j_ai,zh2j_8_aijai.wav,zh2j_8_aijai.wav,,TRUE,FALSE,,,,,,,,,,,,,,f,0.273,space,0.4362,,,,,,,,0,113,113,53,1,,
5e3a9e0dfbce8a296258c297,2023-06-16_10h45.06.179,phx_ver10,2022.2.5,Linux x86_64,59.97361161,,,,,,,,,,,,141,testing_3,sh2j,i,sh2j_i,sh2j_1_ishi.wav,sh2j_1_ishi.wav,,TRUE,FALSE,,,,,,,,,,,,,,f,0.1013,space,0.2624,,,,,,,,0,114,114,140,1,,
5e3a9e0dfbce8a296258c297,2023-06-16_10h45.06.179,phx_ver10,2022.2.5,Linux x86_64,59.97361161,,,,,,,,,,,,18,testing_2,zh2x,au,zh2x_au,zh2x_8_auxau.wav,zh2x_8_auxau.wav,,TRUE,FALSE,,,,,,,,,,,,,,f,0.2575,space,0.5411,,,,,,,,0,115,115,17,1,,
5e3a9e0dfbce8a296258c297,2023-06-16_10h45.06.179,phx_ver10,2022.2.5,Linux x86_64,59.97361161,,,,,,,,,,,,88,testing_3,j2x,e,j2x_e,j2x_8_exe.wav,j2x_1_eje.wav,,FALSE,FALSE,,,,,,,,,,,,,,j,0.2865,space,0.5344,,,,,,,,0,116,116,87,1,,
5e3a9e0dfbce8a296258c297,2023-06-16_10h45.06.179,phx_ver10,2022.2.5,Linux x86_64,59.97361161,,,,,,,,,,,,130,testing_3,sh2j,au,sh2j_au,sh2j_8_aujau.wav,sh2j_8_aujau.wav,,TRUE,FALSE,,,,,,,,,,,,,,f,0.4854,space,0.7605,,,,,,,,0,117,117,129,1,,
5e3a9e0dfbce8a296258c297,2023-06-16_10h45.06.179,phx_ver10,2022.2.5,Linux x86_64,59.97361161,,,,,,,,,,,,40,testing_3,zh2sh,e,zh2sh_e,zh2sh_8_eshe.wav,zh2sh_1_ezhe.wav,,FALSE,FALSE,,,,,,,,,,,,,,j,0.2602,space,0.5687,,,,,,,,0,118,118,39,1,,
5e3a9e0dfbce8a296258c297,2023-06-16_10h45.06.179,phx_ver10,2022.2.5,Linux x86_64,59.97361161,,,,,,,,,,,,100,testing_3,sh2x,a,sh2x_a,sh2x_8_axa.wav,sh2x_1_asha.wav,,FALSE,FALSE,,,,,,,,,,,,,,j,0.4854,space,0.6859,,,,,,,,0,119,119,99,1,,
5e3a9e0dfbce8a296258c297,2023-06-16_10h45.06.179,phx_ver10,2022.2.5,Linux x86_64,59.97361161,,,,,,,,,,,,99,testing_3,sh2x,a,sh2x_a,sh2x_1_asha.wav,sh2x_8_axa.wav,,FALSE,FALSE,,,,,,,,,,,,,,j,0.3026,space,0.517,,,,,,,,0,120,120,98,1,,
5e3a9e0dfbce8a296258c297,2023-06-16_10h45.06.179,phx_ver10,2022.2.5,Linux x86_64,59.97361161,,,,,,,,,,,,56,testing_3,zh2j,ai,zh2j_ai,zh2j_8_aijai.wav,zh2j_1_aizhai.wav,,FALSE,FALSE,,,,,,,,,,,,,,f,0.1685,space,0.3265,,,,,,,,0,121,121,55,1,,
5e3a9e0dfbce8a296258c297,2023-06-16_10h45.06.179,phx_ver10,2022.2.5,Linux x86_64,59.97361161,,,,,,,,,,,,116,testing_3,sh2x,ei,sh2x_ei,sh2x_8_eixei.wav,sh2x_1_eishei.wav,,FALSE,FALSE,,,,,,,,,,,,,,f,0.9863,space,1.4171,,,,,,,,0,122,122,115,1,,
5e3a9e0dfbce8a296258c297,2023-06-16_10h45.06.179,phx_ver10,2022.2.5,Linux x86_64,59.97361161,,,,,,,,,,,,96,testing_3,j2x,i,j2x_i,j2x_8_ixi.wav,j2x_1_iji.wav,,FALSE,FALSE,,,,,,,,,,,,,,j,0.1901,space,0.4349,,,,,,,,0,123,123,95,1,,
5e3a9e0dfbce8a296258c297,2023-06-16_10h45.06.179,phx_ver10,2022.2.5,Linux x86_64,59.97361161,,,,,,,,,,,,82,testing_3,j2x,au,j2x_au,j2x_8_auxau.wav,j2x_8_auxau.wav,,TRUE,FALSE,,,,,,,,,,,,,,f,0.3796,space,0.5528,,,,,,,,0,124,124,81,1,,
5e3a9e0dfbce8a296258c297,2023-06-16_10h45.06.179,phx_ver10,2022.2.5,Linux x86_64,59.97361161,,,,,,,,,,,,39,testing_3,zh2sh,e,zh2sh_e,zh2sh_1_ezhe.wav,zh2sh_8_eshe.wav,,FALSE,FALSE,,,,,,,,,,,,,,j,0.1692,space,0.4183,,,,,,,,0,125,125,38,1,,
5e3a9e0dfbce8a296258c297,2023-06-16_10h45.06.179,phx_ver10,2022.2.5,Linux x86_64,59.97361161,,,,,,,,,,,,83,testing_3,j2x,au,j2x_au,j2x_1_aujau.wav,j2x_8_auxau.wav,,FALSE,FALSE,,,,,,,,,,,,,,j,0.4526,space,0.7505,,,,,,,,0,126,126,82,1,,
5e3a9e0dfbce8a296258c297,2023-06-16_10h45.06.179,phx_ver10,2022.2.5,Linux x86_64,59.97361161,,,,,,,,,,,,134,testing_3,sh2j,e,sh2j_e,sh2j_8_eje.wav,sh2j_8_eje.wav,,TRUE,FALSE,,,,,,,,,,,,,,f,0.2268,space,0.4351,,,,,,,,0,127,127,133,1,,
5e3a9e0dfbce8a296258c297,2023-06-16_10h45.06.179,phx_ver10,2022.2.5,Linux x86_64,59.97361161,,,,,,,,,,,,98,testing_3,sh2x,a,sh2x_a,sh2x_8_axa.wav,sh2x_8_axa.wav,,TRUE,FALSE,,,,,,,,,,,,,,f,0.1189,space,0.4417,,,,,,,,0,128,128,97,1,,
5e3a9e0dfbce8a296258c297,2023-06-16_10h45.06.179,phx_ver10,2022.2.5,Linux x86_64,59.97361161,,,,,,,,,,,,36,testing_3,zh2sh,au,zh2sh_au,zh2sh_8_aushau.wav,zh2sh_1_auzhau.wav,,FALSE,FALSE,,,,,,,,,,,,,,j,0.3369,space,0.5775,,,,,,,,0,129,129,35,1,,
5e3a9e0dfbce8a296258c297,2023-06-16_10h45.06.179,phx_ver10,2022.2.5,Linux x86_64,59.97361161,,,,,,,,,,,,60,testing_3,zh2j,au,zh2j_au,zh2j_8_aujau.wav,zh2j_1_auzhau.wav,,FALSE,FALSE,,,,,,,,,,,,,,f,0.9011,space,1.2079,,,,,,,,0,130,130,59,1,,
5e3a9e0dfbce8a296258c297,2023-06-16_10h45.06.179,phx_ver10,2022.2.5,Linux x86_64,59.97361161,,,,,,,,,,,,6,testing_1,zh2x,e,zh2x_e,zh2x_8_exe.wav,zh2x_8_exe_copy.wav,,TRUE,TRUE,,,,,,,,,,,,,,f,0.104,space,0.3735,,,,,,,,0,131,131,5,1,,
5e3a9e0dfbce8a296258c297,2023-06-16_10h45.06.179,phx_ver10,2022.2.5,Linux x86_64,59.97361161,,,,,,,,,,,,32,testing_3,zh2sh,ai,zh2sh_ai,zh2sh_8_aishai.wav,zh2sh_1_aizhai.wav,,FALSE,FALSE,,,,,,,,,,,,,,j,0.4228,space,0.7865,,,,,,,,0,132,132,31,1,,
5e3a9e0dfbce8a296258c297,2023-06-16_10h45.06.179,phx_ver10,2022.2.5,Linux x86_64,59.97361161,,,,,,,,,,,,97,testing_3,sh2x,a,sh2x_a,sh2x_1_asha.wav,sh2x_1_asha.wav,,TRUE,FALSE,,,,,,,,,,,,,,f,0.2361,space,0.8869,,,,,,,,0,133,133,96,1,,
5e3a9e0dfbce8a296258c297,2023-06-16_10h45.06.179,phx_ver10,2022.2.5,Linux x86_64,59.97361161,,,,,,,,,,,,79,testing_3,j2x,ai,j2x_ai,j2x_1_aijai.wav,j2x_8_aixai.wav,,FALSE,FALSE,,,,,,,,,,,,,,j,0.5777,space,0.9455,,,,,,,,0,134,134,78,1,,
5e3a9e0dfbce8a296258c297,2023-06-16_10h45.06.179,phx_ver10,2022.2.5,Linux x86_64,59.97361161,,,,,,,,,,,,62,testing_3,zh2j,e,zh2j_e,zh2j_8_eje.wav,zh2j_8_eje.wav,,TRUE,FALSE,,,,,,,,,,,,,,f,0.3567,space,0.8687,,,,,,,,0,135,135,61,1,,
5e3a9e0dfbce8a296258c297,2023-06-16_10h45.06.179,phx_ver10,2022.2.5,Linux x86_64,59.97361161,,,,,,,,,,,,118,testing_3,sh2x,i,sh2x_i,sh2x_8_ixi.wav,sh2x_8_ixi.wav,,TRUE,FALSE,,,,,,,,,,,,,,f,0.2061,space,0.4379,,,,,,,,0,136,136,117,1,,
5e3a9e0dfbce8a296258c297,2023-06-16_10h45.06.179,phx_ver10,2022.2.5,Linux x86_64,59.97361161,,,,,,,,,,,,133,testing_3,sh2j,e,sh2j_e,sh2j_1_eshe.wav,sh2j_1_eshe.wav,,TRUE,FALSE,,,,,,,,,,,,,,f,0.0235,space,0.1518,,,,,,,,0,137,137,132,1,,
5e3a9e0dfbce8a296258c297,2023-06-16_10h45.06.179,phx_ver10,2022.2.5,Linux x86_64,59.97361161,,,,,,,,,,,,20,testing_2,zh2x,au,zh2x_au,zh2x_8_auxau.wav,zh2x_1_auzhau.wav,,FALSE,FALSE,,,,,,,,,,,,,,j,0.1302,space,0.3457,,,,,,,,0,138,138,19,1,,
5e3a9e0dfbce8a296258c297,2023-06-16_10h45.06.179,phx_ver10,2022.2.5,Linux x86_64,59.97361161,,,,,,,,,,,,26,testing_3,zh2sh,a,zh2sh_a,zh2sh_8_asha.wav,zh2sh_8_asha.wav,,TRUE,FALSE,,,,,,,,,,,,,,f,0.4524,space,0.6691,,,,,,,,0,139,139,25,1,,
5e3a9e0dfbce8a296258c297,2023-06-16_10h45.06.179,phx_ver10,2022.2.5,Linux x86_64,59.97361161,,,,,,,,,,,,91,testing_3,j2x,ei,j2x_ei,j2x_1_eijei.wav,j2x_8_eixei.wav,,FALSE,FALSE,,,,,,,,,,,,,,j,0.8703,space,1.1739,,,,,,,,0,140,140,90,1,,
5e3a9e0dfbce8a296258c297,2023-06-16_10h45.06.179,phx_ver10,2022.2.5,Linux x86_64,59.97361161,,,,,,,,,,,,35,testing_3,zh2sh,au,zh2sh_au,zh2sh_1_auzhau.wav,zh2sh_8_aushau.wav,,FALSE,FALSE,,,,,,,,,,,,,,j,0.3936,space,0.7684,,,,,,,,0,141,141,34,1,,
5e3a9e0dfbce8a296258c297,2023-06-16_10h45.06.179,phx_ver10,2022.2.5,Linux x86_64,59.97361161,,,,,,,,,,,,144,testing_3,sh2j,i,sh2j_i,sh2j_8_iji.wav,sh2j_1_ishi.wav,,FALSE,FALSE,,,,,,,,,,,,,,j,0.236,space,0.4351,,,,,,,,0,142,142,143,1,,
5e3a9e0dfbce8a296258c297,2023-06-16_10h45.06.179,phx_ver10,2022.2.5,Linux x86_64,59.97361161,,,,,,,,,,,,9,testing_1,zh2x,i,zh2x_i,zh2x_1_izhi.wav,zh2x_1_izhi_copy.wav,,TRUE,TRUE,,,,,,,,,,,,,,f,0.3361,space,0.6359,,,,,,,,0,143,143,8,1,,
5e3a9e0dfbce8a296258c297,2023-06-16_10h45.06.179,phx_ver10,2022.2.5,Linux x86_64,59.97361161,,,,,,,,,,,,,,,,,,,,,,,,,,,,,,,,,,,,,,,,,,,,,,,,,,,space,2.9831
