participant,date,expName,psychopyVersion,OS,frameRate,space_1.keys,space_1.rt,space_2.keys,space_2.rt,space_train.keys,space_train.rt,training.thisRepN,training.thisTrialN,training.thisN,training.thisIndex,training.ran,token_id,task,continuum,vowel,series,sound_1,sound_2,img,same,trained,FJ_attn.keys,FJ_attn.rt,space_attn.keys,space_attn.rt,if_attn_test.thisRepN,if_attn_test.thisTrialN,if_attn_test.thisN,if_attn_test.thisIndex,if_attn_test.ran,space_trans_1.keys,space_trans_1.rt,space_trans_11.keys,space_trans_11.rt,FJ_test.keys,FJ_test.rt,space_test.keys,space_test.rt,testing_pre.thisRepN,testing_pre.thisTrialN,testing_pre.thisN,testing_pre.thisIndex,testing_pre.ran,space_trans_2.keys,space_trans_2.rt,testing_all.thisRepN,testing_all.thisTrialN,testing_all.thisN,testing_all.thisIndex,testing_all.ran,space_ending.keys,space_ending.rt
5e3d2ab94aebac111b5f6cd2,2023-06-16_10h30.38.492,phx_ver10,2022.2.5,Win32,60.00960154,,,,,,,,,,,,,,,,,,,,,,,,,,,,,,,,,,,,,,,,,,,,,,,,,,,,
5e3d2ab94aebac111b5f6cd2,2023-06-16_10h30.38.492,phx_ver10,2022.2.5,Win32,60.00960154,space,18.4888,,,,,,,,,,,,,,,,,,,,,,,,,,,,,,,,,,,,,,,,,,,,,,,,,,
5e3d2ab94aebac111b5f6cd2,2023-06-16_10h30.38.492,phx_ver10,2022.2.5,Win32,60.00960154,,,space,5.9684,,,,,,,,,,,,,,,,,,,,,,,,,,,,,,,,,,,,,,,,,,,,,,,,
5e3d2ab94aebac111b5f6cd2,2023-06-16_10h30.38.492,phx_ver10,2022.2.5,Win32,60.00960154,,,,,space,1.8628,0,0,0,33,1,34,training,zh2x,i,zh2x_i,zh2x_2_izhi.wav,,izhi.jpg,,,,,,,,,,,,,,,,,,,,,,,,,,,,,,,,,
5e3d2ab94aebac111b5f6cd2,2023-06-16_10h30.38.492,phx_ver10,2022.2.5,Win32,60.00960154,,,,,space,1.0149,0,1,1,13,1,14,training,zh2x,a,zh2x_a,zh2x_7_axa.wav,,axa.jpg,,,,,,,,,,,,,,,,,,,,,,,,,,,,,,,,,
5e3d2ab94aebac111b5f6cd2,2023-06-16_10h30.38.492,phx_ver10,2022.2.5,Win32,60.00960154,,,,,space,0.9495,0,2,2,29,1,30,training,zh2x,e,zh2x_e,zh2x_7_exe.wav,,exe.jpg,,,,,,,,,,,,,,,,,,,,,,,,,,,,,,,,,
5e3d2ab94aebac111b5f6cd2,2023-06-16_10h30.38.492,phx_ver10,2022.2.5,Win32,60.00960154,,,,,space,0.8325,0,3,3,20,1,21,training,zh2x,e,zh2x_e,zh2x_2_ezhe.wav,,ezhe.jpg,,,,,,,,,,,,,,,,,,,,,,,,,,,,,,,,,
5e3d2ab94aebac111b5f6cd2,2023-06-16_10h30.38.492,phx_ver10,2022.2.5,Win32,60.00960154,,,,,space,0.7497,0,4,4,40,1,41,training,zh2x,i,zh2x_i,zh2x_5_ixi.wav,,ixi.jpg,,,,,,,,,,,,,,,,,,,,,,,,,,,,,,,,,
5e3d2ab94aebac111b5f6cd2,2023-06-16_10h30.38.492,phx_ver10,2022.2.5,Win32,60.00960154,,,,,space,0.9032,0,5,5,0,1,1,training,zh2x,a,zh2x_a,zh2x_1_azha.wav,,azha.jpg,,,,,,,,,,,,,,,,,,,,,,,,,,,,,,,,,
5e3d2ab94aebac111b5f6cd2,2023-06-16_10h30.38.492,phx_ver10,2022.2.5,Win32,60.00960154,,,,,,,,,,,,,attn_test,,,,zh2x_8_axa.wav,zh2x_8_ixi.wav,ixi.jpg,RIGHT,,j,3.8873,space,5.3712,0,0,0,0,1,,,,,,,,,,,,,,,,,,,,,,
5e3d2ab94aebac111b5f6cd2,2023-06-16_10h30.38.492,phx_ver10,2022.2.5,Win32,60.00960154,,,,,space,1.9149,0,6,6,38,1,39,training,zh2x,i,zh2x_i,zh2x_3_izhi.wav,,izhi.jpg,,,,,,,,,,,,,,,,,,,,,,,,,,,,,,,,,
5e3d2ab94aebac111b5f6cd2,2023-06-16_10h30.38.492,phx_ver10,2022.2.5,Win32,60.00960154,,,,,space,0.8082,0,7,7,14,1,15,training,zh2x,a,zh2x_a,zh2x_7_axa.wav,,axa.jpg,,,,,,,,,,,,,,,,,,,,,,,,,,,,,,,,,
5e3d2ab94aebac111b5f6cd2,2023-06-16_10h30.38.492,phx_ver10,2022.2.5,Win32,60.00960154,,,,,space,1.0413,0,8,8,31,1,32,training,zh2x,e,zh2x_e,zh2x_8_exe.wav,,exe.jpg,,,,,,,,,,,,,,,,,,,,,,,,,,,,,,,,,
5e3d2ab94aebac111b5f6cd2,2023-06-16_10h30.38.492,phx_ver10,2022.2.5,Win32,60.00960154,,,,,space,0.4344,0,9,9,45,1,46,training,zh2x,i,zh2x_i,zh2x_7_ixi.wav,,ixi.jpg,,,,,,,,,,,,,,,,,,,,,,,,,,,,,,,,,
5e3d2ab94aebac111b5f6cd2,2023-06-16_10h30.38.492,phx_ver10,2022.2.5,Win32,60.00960154,,,,,space,0.7984,0,10,10,7,1,8,training,zh2x,a,zh2x_a,zh2x_4_azha.wav,,azha.jpg,,,,,,,,,,,,,,,,,,,,,,,,,,,,,,,,,
5e3d2ab94aebac111b5f6cd2,2023-06-16_10h30.38.492,phx_ver10,2022.2.5,Win32,60.00960154,,,,,space,2.3123,0,11,11,6,1,7,training,zh2x,a,zh2x_a,zh2x_3_azha.wav,,azha.jpg,,,,,,,,,,,,,,,,,,,,,,,,,,,,,,,,,
5e3d2ab94aebac111b5f6cd2,2023-06-16_10h30.38.492,phx_ver10,2022.2.5,Win32,60.00960154,,,,,,,,,,,,,attn_test,,,,zh2x_1_ezhe.wav,zh2x_1_azha.wav,azha.jpg,RIGHT,,j,0.8156,space,2.1115,0,0,0,0,1,,,,,,,,,,,,,,,,,,,,,,
5e3d2ab94aebac111b5f6cd2,2023-06-16_10h30.38.492,phx_ver10,2022.2.5,Win32,60.00960154,,,,,space,0.5437,0,12,12,22,1,23,training,zh2x,e,zh2x_e,zh2x_3_ezhe.wav,,ezhe.jpg,,,,,,,,,,,,,,,,,,,,,,,,,,,,,,,,,
5e3d2ab94aebac111b5f6cd2,2023-06-16_10h30.38.492,phx_ver10,2022.2.5,Win32,60.00960154,,,,,space,0.7241,0,13,13,34,1,35,training,zh2x,i,zh2x_i,zh2x_2_izhi.wav,,izhi.jpg,,,,,,,,,,,,,,,,,,,,,,,,,,,,,,,,,
5e3d2ab94aebac111b5f6cd2,2023-06-16_10h30.38.492,phx_ver10,2022.2.5,Win32,60.00960154,,,,,space,0.3846,0,14,14,4,1,5,training,zh2x,a,zh2x_a,zh2x_2_azha.wav,,azha.jpg,,,,,,,,,,,,,,,,,,,,,,,,,,,,,,,,,
5e3d2ab94aebac111b5f6cd2,2023-06-16_10h30.38.492,phx_ver10,2022.2.5,Win32,60.00960154,,,,,space,0.4437,0,15,15,18,1,19,training,zh2x,e,zh2x_e,zh2x_2_ezhe.wav,,ezhe.jpg,,,,,,,,,,,,,,,,,,,,,,,,,,,,,,,,,
5e3d2ab94aebac111b5f6cd2,2023-06-16_10h30.38.492,phx_ver10,2022.2.5,Win32,60.00960154,,,,,space,0.745,0,16,16,12,1,13,training,zh2x,a,zh2x_a,zh2x_7_axa.wav,,axa.jpg,,,,,,,,,,,,,,,,,,,,,,,,,,,,,,,,,
5e3d2ab94aebac111b5f6cd2,2023-06-16_10h30.38.492,phx_ver10,2022.2.5,Win32,60.00960154,,,,,space,0.5825,0,17,17,42,1,43,training,zh2x,i,zh2x_i,zh2x_6_ixi.wav,,ixi.jpg,,,,,,,,,,,,,,,,,,,,,,,,,,,,,,,,,
5e3d2ab94aebac111b5f6cd2,2023-06-16_10h30.38.492,phx_ver10,2022.2.5,Win32,60.00960154,,,,,,,,,,,,,attn_test,,,,zh2x_1_izhi.wav,zh2x_8_axa.wav,axa.jpg,RIGHT,,j,3.1424,space,4.2071,0,0,0,0,1,,,,,,,,,,,,,,,,,,,,,,
5e3d2ab94aebac111b5f6cd2,2023-06-16_10h30.38.492,phx_ver10,2022.2.5,Win32,60.00960154,,,,,space,0.5177,0,18,18,25,1,26,training,zh2x,e,zh2x_e,zh2x_6_exe.wav,,exe.jpg,,,,,,,,,,,,,,,,,,,,,,,,,,,,,,,,,
5e3d2ab94aebac111b5f6cd2,2023-06-16_10h30.38.492,phx_ver10,2022.2.5,Win32,60.00960154,,,,,space,1.2017,0,19,19,46,1,47,training,zh2x,i,zh2x_i,zh2x_7_ixi.wav,,ixi.jpg,,,,,,,,,,,,,,,,,,,,,,,,,,,,,,,,,
5e3d2ab94aebac111b5f6cd2,2023-06-16_10h30.38.492,phx_ver10,2022.2.5,Win32,60.00960154,,,,,space,0.8248,0,20,20,19,1,20,training,zh2x,e,zh2x_e,zh2x_2_ezhe.wav,,ezhe.jpg,,,,,,,,,,,,,,,,,,,,,,,,,,,,,,,,,
5e3d2ab94aebac111b5f6cd2,2023-06-16_10h30.38.492,phx_ver10,2022.2.5,Win32,60.00960154,,,,,space,0.639,0,21,21,47,1,48,training,zh2x,i,zh2x_i,zh2x_8_ixi.wav,,ixi.jpg,,,,,,,,,,,,,,,,,,,,,,,,,,,,,,,,,
5e3d2ab94aebac111b5f6cd2,2023-06-16_10h30.38.492,phx_ver10,2022.2.5,Win32,60.00960154,,,,,space,0.3668,0,22,22,17,1,18,training,zh2x,e,zh2x_e,zh2x_2_ezhe.wav,,ezhe.jpg,,,,,,,,,,,,,,,,,,,,,,,,,,,,,,,,,
5e3d2ab94aebac111b5f6cd2,2023-06-16_10h30.38.492,phx_ver10,2022.2.5,Win32,60.00960154,,,,,space,0.7716,0,23,23,26,1,27,training,zh2x,e,zh2x_e,zh2x_6_exe.wav,,exe.jpg,,,,,,,,,,,,,,,,,,,,,,,,,,,,,,,,,
5e3d2ab94aebac111b5f6cd2,2023-06-16_10h30.38.492,phx_ver10,2022.2.5,Win32,60.00960154,,,,,,,,,,,,,attn_test,,,,zh2x_1_ezhe.wav,zh2x_8_ixi.wav,ezhe.jpg,LEFT,,f,1.3319,space,2.0956,0,0,0,0,1,,,,,,,,,,,,,,,,,,,,,,
5e3d2ab94aebac111b5f6cd2,2023-06-16_10h30.38.492,phx_ver10,2022.2.5,Win32,60.00960154,,,,,space,0.6136,0,24,24,10,1,11,training,zh2x,a,zh2x_a,zh2x_6_axa.wav,,axa.jpg,,,,,,,,,,,,,,,,,,,,,,,,,,,,,,,,,
5e3d2ab94aebac111b5f6cd2,2023-06-16_10h30.38.492,phx_ver10,2022.2.5,Win32,60.00960154,,,,,space,0.9833,0,25,25,16,1,17,training,zh2x,e,zh2x_e,zh2x_1_ezhe.wav,,ezhe.jpg,,,,,,,,,,,,,,,,,,,,,,,,,,,,,,,,,
5e3d2ab94aebac111b5f6cd2,2023-06-16_10h30.38.492,phx_ver10,2022.2.5,Win32,60.00960154,,,,,space,0.2119,0,26,26,30,1,31,training,zh2x,e,zh2x_e,zh2x_7_exe.wav,,exe.jpg,,,,,,,,,,,,,,,,,,,,,,,,,,,,,,,,,
5e3d2ab94aebac111b5f6cd2,2023-06-16_10h30.38.492,phx_ver10,2022.2.5,Win32,60.00960154,,,,,space,0.2898,0,27,27,36,1,37,training,zh2x,i,zh2x_i,zh2x_2_izhi.wav,,izhi.jpg,,,,,,,,,,,,,,,,,,,,,,,,,,,,,,,,,
5e3d2ab94aebac111b5f6cd2,2023-06-16_10h30.38.492,phx_ver10,2022.2.5,Win32,60.00960154,,,,,space,0.5547,0,28,28,3,1,4,training,zh2x,a,zh2x_a,zh2x_2_azha.wav,,azha.jpg,,,,,,,,,,,,,,,,,,,,,,,,,,,,,,,,,
5e3d2ab94aebac111b5f6cd2,2023-06-16_10h30.38.492,phx_ver10,2022.2.5,Win32,60.00960154,,,,,space,0.1658,0,29,29,43,1,44,training,zh2x,i,zh2x_i,zh2x_7_ixi.wav,,ixi.jpg,,,,,,,,,,,,,,,,,,,,,,,,,,,,,,,,,
5e3d2ab94aebac111b5f6cd2,2023-06-16_10h30.38.492,phx_ver10,2022.2.5,Win32,60.00960154,,,,,,,,,,,,,attn_test,,,,zh2x_8_axa.wav,zh2x_8_ixi.wav,axa.jpg,LEFT,,f,1.5401,space,4.4002,0,0,0,0,1,,,,,,,,,,,,,,,,,,,,,,
5e3d2ab94aebac111b5f6cd2,2023-06-16_10h30.38.492,phx_ver10,2022.2.5,Win32,60.00960154,,,,,space,0.6815,0,30,30,37,1,38,training,zh2x,i,zh2x_i,zh2x_3_izhi.wav,,izhi.jpg,,,,,,,,,,,,,,,,,,,,,,,,,,,,,,,,,
5e3d2ab94aebac111b5f6cd2,2023-06-16_10h30.38.492,phx_ver10,2022.2.5,Win32,60.00960154,,,,,space,0.3173,0,31,31,28,1,29,training,zh2x,e,zh2x_e,zh2x_7_exe.wav,,exe.jpg,,,,,,,,,,,,,,,,,,,,,,,,,,,,,,,,,
5e3d2ab94aebac111b5f6cd2,2023-06-16_10h30.38.492,phx_ver10,2022.2.5,Win32,60.00960154,,,,,space,0.1343,0,32,32,9,1,10,training,zh2x,a,zh2x_a,zh2x_6_axa.wav,,axa.jpg,,,,,,,,,,,,,,,,,,,,,,,,,,,,,,,,,
5e3d2ab94aebac111b5f6cd2,2023-06-16_10h30.38.492,phx_ver10,2022.2.5,Win32,60.00960154,,,,,space,0.7901,0,33,33,24,1,25,training,zh2x,e,zh2x_e,zh2x_5_exe.wav,,exe.jpg,,,,,,,,,,,,,,,,,,,,,,,,,,,,,,,,,
5e3d2ab94aebac111b5f6cd2,2023-06-16_10h30.38.492,phx_ver10,2022.2.5,Win32,60.00960154,,,,,space,0.6334,0,34,34,23,1,24,training,zh2x,e,zh2x_e,zh2x_4_ezhe.wav,,ezhe.jpg,,,,,,,,,,,,,,,,,,,,,,,,,,,,,,,,,
5e3d2ab94aebac111b5f6cd2,2023-06-16_10h30.38.492,phx_ver10,2022.2.5,Win32,60.00960154,,,,,space,0.3174,0,35,35,27,1,28,training,zh2x,e,zh2x_e,zh2x_7_exe.wav,,exe.jpg,,,,,,,,,,,,,,,,,,,,,,,,,,,,,,,,,
5e3d2ab94aebac111b5f6cd2,2023-06-16_10h30.38.492,phx_ver10,2022.2.5,Win32,60.00960154,,,,,,,,,,,,,attn_test,,,,zh2x_1_azha.wav,zh2x_8_exe.wav,exe.jpg,RIGHT,,j,1.0065,space,2.1374,0,0,0,0,1,,,,,,,,,,,,,,,,,,,,,,
5e3d2ab94aebac111b5f6cd2,2023-06-16_10h30.38.492,phx_ver10,2022.2.5,Win32,60.00960154,,,,,space,0.2877,0,36,36,44,1,45,training,zh2x,i,zh2x_i,zh2x_7_ixi.wav,,ixi.jpg,,,,,,,,,,,,,,,,,,,,,,,,,,,,,,,,,
5e3d2ab94aebac111b5f6cd2,2023-06-16_10h30.38.492,phx_ver10,2022.2.5,Win32,60.00960154,,,,,space,0.7154,0,37,37,35,1,36,training,zh2x,i,zh2x_i,zh2x_2_izhi.wav,,izhi.jpg,,,,,,,,,,,,,,,,,,,,,,,,,,,,,,,,,
5e3d2ab94aebac111b5f6cd2,2023-06-16_10h30.38.492,phx_ver10,2022.2.5,Win32,60.00960154,,,,,space,0.7041,0,38,38,11,1,12,training,zh2x,a,zh2x_a,zh2x_7_axa.wav,,axa.jpg,,,,,,,,,,,,,,,,,,,,,,,,,,,,,,,,,
5e3d2ab94aebac111b5f6cd2,2023-06-16_10h30.38.492,phx_ver10,2022.2.5,Win32,60.00960154,,,,,space,0.5001,0,39,39,39,1,40,training,zh2x,i,zh2x_i,zh2x_4_izhi.wav,,izhi.jpg,,,,,,,,,,,,,,,,,,,,,,,,,,,,,,,,,
5e3d2ab94aebac111b5f6cd2,2023-06-16_10h30.38.492,phx_ver10,2022.2.5,Win32,60.00960154,,,,,space,0.5819,0,40,40,2,1,3,training,zh2x,a,zh2x_a,zh2x_2_azha.wav,,azha.jpg,,,,,,,,,,,,,,,,,,,,,,,,,,,,,,,,,
5e3d2ab94aebac111b5f6cd2,2023-06-16_10h30.38.492,phx_ver10,2022.2.5,Win32,60.00960154,,,,,space,0.3995,0,41,41,15,1,16,training,zh2x,a,zh2x_a,zh2x_8_axa.wav,,axa.jpg,,,,,,,,,,,,,,,,,,,,,,,,,,,,,,,,,
5e3d2ab94aebac111b5f6cd2,2023-06-16_10h30.38.492,phx_ver10,2022.2.5,Win32,60.00960154,,,,,,,,,,,,,attn_test,,,,zh2x_8_axa.wav,zh2x_1_ezhe.wav,axa.jpg,LEFT,,f,0.4271,space,0.9259,0,0,0,0,1,,,,,,,,,,,,,,,,,,,,,,
5e3d2ab94aebac111b5f6cd2,2023-06-16_10h30.38.492,phx_ver10,2022.2.5,Win32,60.00960154,,,,,space,0.6665,0,42,42,32,1,33,training,zh2x,i,zh2x_i,zh2x_1_izhi.wav,,izhi.jpg,,,,,,,,,,,,,,,,,,,,,,,,,,,,,,,,,
5e3d2ab94aebac111b5f6cd2,2023-06-16_10h30.38.492,phx_ver10,2022.2.5,Win32,60.00960154,,,,,space,0.553,0,43,43,21,1,22,training,zh2x,e,zh2x_e,zh2x_3_ezhe.wav,,ezhe.jpg,,,,,,,,,,,,,,,,,,,,,,,,,,,,,,,,,
5e3d2ab94aebac111b5f6cd2,2023-06-16_10h30.38.492,phx_ver10,2022.2.5,Win32,60.00960154,,,,,space,0.479,0,44,44,5,1,6,training,zh2x,a,zh2x_a,zh2x_3_azha.wav,,azha.jpg,,,,,,,,,,,,,,,,,,,,,,,,,,,,,,,,,
5e3d2ab94aebac111b5f6cd2,2023-06-16_10h30.38.492,phx_ver10,2022.2.5,Win32,60.00960154,,,,,space,0.5469,0,45,45,8,1,9,training,zh2x,a,zh2x_a,zh2x_5_axa.wav,,axa.jpg,,,,,,,,,,,,,,,,,,,,,,,,,,,,,,,,,
5e3d2ab94aebac111b5f6cd2,2023-06-16_10h30.38.492,phx_ver10,2022.2.5,Win32,60.00960154,,,,,space,0.6728,0,46,46,41,1,42,training,zh2x,i,zh2x_i,zh2x_6_ixi.wav,,ixi.jpg,,,,,,,,,,,,,,,,,,,,,,,,,,,,,,,,,
5e3d2ab94aebac111b5f6cd2,2023-06-16_10h30.38.492,phx_ver10,2022.2.5,Win32,60.00960154,,,,,space,0.7054,0,47,47,1,1,2,training,zh2x,a,zh2x_a,zh2x_2_azha.wav,,azha.jpg,,,,,,,,,,,,,,,,,,,,,,,,,,,,,,,,,
5e3d2ab94aebac111b5f6cd2,2023-06-16_10h30.38.492,phx_ver10,2022.2.5,Win32,60.00960154,,,,,,,,,,,,,attn_test,,,,zh2x_8_exe.wav,zh2x_1_izhi.wav,izhi.jpg,RIGHT,,j,3.0668,space,3.9729,,,,,,,,,,,,,,,,,,,,,,,,,,,
5e3d2ab94aebac111b5f6cd2,2023-06-16_10h30.38.492,phx_ver10,2022.2.5,Win32,60.00960154,,,,,,,,,,,,,,,,,,,,,,,,,,,,,,,space,1.2057,,,,,,,,,,,,,,,,,,,,
5e3d2ab94aebac111b5f6cd2,2023-06-16_10h30.38.492,phx_ver10,2022.2.5,Win32,60.00960154,,,,,,,,,,,,,,,,,,,,,,,,,,,,,,,,,space,10.5756,,,,,,,,,,,,,,,,,,
5e3d2ab94aebac111b5f6cd2,2023-06-16_10h30.38.492,phx_ver10,2022.2.5,Win32,60.00960154,,,,,,,,,,,,3,testing_pre,,,,afa.wav,aha.wav,,FALSE,,,,,,,,,,,,,,,j,1.261,space,2.4798,0,0,0,2,1,,,,,,,,,
5e3d2ab94aebac111b5f6cd2,2023-06-16_10h30.38.492,phx_ver10,2022.2.5,Win32,60.00960154,,,,,,,,,,,,2,testing_pre,,,,auhau.wav,aufau.wav,,FALSE,,,,,,,,,,,,,,,j,0.7531,space,1.1003,0,1,1,1,1,,,,,,,,,
5e3d2ab94aebac111b5f6cd2,2023-06-16_10h30.38.492,phx_ver10,2022.2.5,Win32,60.00960154,,,,,,,,,,,,5,testing_pre,,,,ihi.wav,ifi.wav,,FALSE,,,,,,,,,,,,,,,j,1.5709,space,2.1202,0,2,2,4,1,,,,,,,,,
5e3d2ab94aebac111b5f6cd2,2023-06-16_10h30.38.492,phx_ver10,2022.2.5,Win32,60.00960154,,,,,,,,,,,,4,testing_pre,,,,eihei.wav,eihei.wav,,TRUE,,,,,,,,,,,,,,,f,1.2707,space,1.6704,0,3,3,3,1,,,,,,,,,
5e3d2ab94aebac111b5f6cd2,2023-06-16_10h30.38.492,phx_ver10,2022.2.5,Win32,60.00960154,,,,,,,,,,,,1,testing_pre,,,,ifi.wav,ifi.wav,,TRUE,,,,,,,,,,,,,,,f,0.8466,space,1.2384,0,4,4,0,1,,,,,,,,,
5e3d2ab94aebac111b5f6cd2,2023-06-16_10h30.38.492,phx_ver10,2022.2.5,Win32,60.00960154,,,,,,,,,,,,,,,,,,,,,,,,,,,,,,,,,,,,,,,,,,,,space,0.9975,,,,,,,
5e3d2ab94aebac111b5f6cd2,2023-06-16_10h30.38.492,phx_ver10,2022.2.5,Win32,60.00960154,,,,,,,,,,,,58,testing_3,zh2j,au,zh2j_au,zh2j_8_aujau.wav,zh2j_8_aujau.wav,,TRUE,FALSE,,,,,,,,,,,,,,f,0.7916,space,1.2371,,,,,,,,0,0,0,57,1,,
5e3d2ab94aebac111b5f6cd2,2023-06-16_10h30.38.492,phx_ver10,2022.2.5,Win32,60.00960154,,,,,,,,,,,,26,testing_3,zh2sh,a,zh2sh_a,zh2sh_8_asha.wav,zh2sh_8_asha.wav,,TRUE,FALSE,,,,,,,,,,,,,,f,0.5246,space,0.8673,,,,,,,,0,1,1,25,1,,
5e3d2ab94aebac111b5f6cd2,2023-06-16_10h30.38.492,phx_ver10,2022.2.5,Win32,60.00960154,,,,,,,,,,,,31,testing_3,zh2sh,ai,zh2sh_ai,zh2sh_1_aizhai.wav,zh2sh_8_aishai.wav,,FALSE,FALSE,,,,,,,,,,,,,,j,1.0167,space,1.6138,,,,,,,,0,2,2,30,1,,
5e3d2ab94aebac111b5f6cd2,2023-06-16_10h30.38.492,phx_ver10,2022.2.5,Win32,60.00960154,,,,,,,,,,,,20,testing_2,zh2x,au,zh2x_au,zh2x_8_auxau.wav,zh2x_1_auzhau.wav,,FALSE,FALSE,,,,,,,,,,,,,,j,0.6651,space,1.172,,,,,,,,0,3,3,19,1,,
5e3d2ab94aebac111b5f6cd2,2023-06-16_10h30.38.492,phx_ver10,2022.2.5,Win32,60.00960154,,,,,,,,,,,,15,testing_2,zh2x,ai,zh2x_ai,zh2x_1_aizhai.wav,zh2x_8_aixai.wav,,FALSE,FALSE,,,,,,,,,,,,,,j,0.4889,space,0.8646,,,,,,,,0,4,4,14,1,,
5e3d2ab94aebac111b5f6cd2,2023-06-16_10h30.38.492,phx_ver10,2022.2.5,Win32,60.00960154,,,,,,,,,,,,68,testing_3,zh2j,ei,zh2j_ei,zh2j_8_eijei.wav,zh2j_1_eizhei.wav,,FALSE,FALSE,,,,,,,,,,,,,,f,0.5088,space,0.904,,,,,,,,0,5,5,67,1,,
5e3d2ab94aebac111b5f6cd2,2023-06-16_10h30.38.492,phx_ver10,2022.2.5,Win32,60.00960154,,,,,,,,,,,,41,testing_3,zh2sh,ei,zh2sh_ei,zh2sh_1_eizhei.wav,zh2sh_1_eizhei.wav,,TRUE,FALSE,,,,,,,,,,,,,,f,0.0732,space,0.4891,,,,,,,,0,6,6,40,1,,
5e3d2ab94aebac111b5f6cd2,2023-06-16_10h30.38.492,phx_ver10,2022.2.5,Win32,60.00960154,,,,,,,,,,,,1,testing_1,zh2x,a,zh2x_a,zh2x_1_azha.wav,zh2x_1_azha_copy.wav,,TRUE,TRUE,,,,,,,,,,,,,,f,0.091,space,0.4843,,,,,,,,0,7,7,0,1,,
5e3d2ab94aebac111b5f6cd2,2023-06-16_10h30.38.492,phx_ver10,2022.2.5,Win32,60.00960154,,,,,,,,,,,,62,testing_3,zh2j,e,zh2j_e,zh2j_8_eje.wav,zh2j_8_eje.wav,,TRUE,FALSE,,,,,,,,,,,,,,f,0.1796,space,0.5936,,,,,,,,0,8,8,61,1,,
5e3d2ab94aebac111b5f6cd2,2023-06-16_10h30.38.492,phx_ver10,2022.2.5,Win32,60.00960154,,,,,,,,,,,,95,testing_3,j2x,i,j2x_i,j2x_1_iji.wav,j2x_8_ixi.wav,,FALSE,FALSE,,,,,,,,,,,,,,j,0.3508,space,0.724,,,,,,,,0,9,9,94,1,,
5e3d2ab94aebac111b5f6cd2,2023-06-16_10h30.38.492,phx_ver10,2022.2.5,Win32,60.00960154,,,,,,,,,,,,130,testing_3,sh2j,au,sh2j_au,sh2j_8_aujau.wav,sh2j_8_aujau.wav,,TRUE,FALSE,,,,,,,,,,,,,,f,0.4709,space,0.8325,,,,,,,,0,10,10,129,1,,
5e3d2ab94aebac111b5f6cd2,2023-06-16_10h30.38.492,phx_ver10,2022.2.5,Win32,60.00960154,,,,,,,,,,,,10,testing_1,zh2x,i,zh2x_i,zh2x_8_ixi.wav,zh2x_8_ixi_copy.wav,,TRUE,TRUE,,,,,,,,,,,,,,f,0.102,space,0.4948,,,,,,,,0,11,11,9,1,,
5e3d2ab94aebac111b5f6cd2,2023-06-16_10h30.38.492,phx_ver10,2022.2.5,Win32,60.00960154,,,,,,,,,,,,133,testing_3,sh2j,e,sh2j_e,sh2j_1_eshe.wav,sh2j_1_eshe.wav,,TRUE,FALSE,,,,,,,,,,,,,,f,0.3036,space,0.7022,,,,,,,,0,12,12,132,1,,
5e3d2ab94aebac111b5f6cd2,2023-06-16_10h30.38.492,phx_ver10,2022.2.5,Win32,60.00960154,,,,,,,,,,,,77,testing_3,j2x,ai,j2x_ai,j2x_1_aijai.wav,j2x_1_aijai.wav,,TRUE,FALSE,,,,,,,,,,,,,,f,0.2741,space,0.5899,,,,,,,,0,13,13,76,1,,
5e3d2ab94aebac111b5f6cd2,2023-06-16_10h30.38.492,phx_ver10,2022.2.5,Win32,60.00960154,,,,,,,,,,,,121,testing_3,sh2j,a,sh2j_a,sh2j_1_asha.wav,sh2j_1_asha.wav,,TRUE,FALSE,,,,,,,,,,,,,,f,0.1457,space,0.4923,,,,,,,,0,14,14,120,1,,
5e3d2ab94aebac111b5f6cd2,2023-06-16_10h30.38.492,phx_ver10,2022.2.5,Win32,60.00960154,,,,,,,,,,,,141,testing_3,sh2j,i,sh2j_i,sh2j_1_ishi.wav,sh2j_1_ishi.wav,,TRUE,FALSE,,,,,,,,,,,,,,f,1.1549,space,1.6172,,,,,,,,0,15,15,140,1,,
5e3d2ab94aebac111b5f6cd2,2023-06-16_10h30.38.492,phx_ver10,2022.2.5,Win32,60.00960154,,,,,,,,,,,,96,testing_3,j2x,i,j2x_i,j2x_8_ixi.wav,j2x_1_iji.wav,,FALSE,FALSE,,,,,,,,,,,,,,j,0.2514,space,0.6604,,,,,,,,0,16,16,95,1,,
5e3d2ab94aebac111b5f6cd2,2023-06-16_10h30.38.492,phx_ver10,2022.2.5,Win32,60.00960154,,,,,,,,,,,,42,testing_3,zh2sh,ei,zh2sh_ei,zh2sh_8_eishei.wav,zh2sh_8_eishei.wav,,TRUE,FALSE,,,,,,,,,,,,,,f,0.0312,space,0.3435,,,,,,,,0,17,17,41,1,,
5e3d2ab94aebac111b5f6cd2,2023-06-16_10h30.38.492,phx_ver10,2022.2.5,Win32,60.00960154,,,,,,,,,,,,104,testing_3,sh2x,ai,sh2x_ai,sh2x_8_aixai.wav,sh2x_1_aishai.wav,,FALSE,FALSE,,,,,,,,,,,,,,j,0.2928,space,0.6904,,,,,,,,0,18,18,103,1,,
5e3d2ab94aebac111b5f6cd2,2023-06-16_10h30.38.492,phx_ver10,2022.2.5,Win32,60.00960154,,,,,,,,,,,,53,testing_3,zh2j,ai,zh2j_ai,zh2j_1_aizhai.wav,zh2j_1_aizhai.wav,,TRUE,FALSE,,,,,,,,,,,,,,f,0.2202,space,0.5183,,,,,,,,0,19,19,52,1,,
5e3d2ab94aebac111b5f6cd2,2023-06-16_10h30.38.492,phx_ver10,2022.2.5,Win32,60.00960154,,,,,,,,,,,,111,testing_3,sh2x,e,sh2x_e,sh2x_1_eshe.wav,sh2x_8_exe.wav,,FALSE,FALSE,,,,,,,,,,,,,,j,0.2443,space,0.6384,,,,,,,,0,20,20,110,1,,
5e3d2ab94aebac111b5f6cd2,2023-06-16_10h30.38.492,phx_ver10,2022.2.5,Win32,60.00960154,,,,,,,,,,,,61,testing_3,zh2j,e,zh2j_e,zh2j_1_ezhe.wav,zh2j_1_ezhe.wav,,TRUE,FALSE,,,,,,,,,,,,,,f,0.0018,space,0.3279,,,,,,,,0,21,21,60,1,,
5e3d2ab94aebac111b5f6cd2,2023-06-16_10h30.38.492,phx_ver10,2022.2.5,Win32,60.00960154,,,,,,,,,,,,43,testing_3,zh2sh,ei,zh2sh_ei,zh2sh_1_eizhei.wav,zh2sh_8_eishei.wav,,FALSE,FALSE,,,,,,,,,,,,,,j,0.2537,space,0.5819,,,,,,,,0,22,22,42,1,,
5e3d2ab94aebac111b5f6cd2,2023-06-16_10h30.38.492,phx_ver10,2022.2.5,Win32,60.00960154,,,,,,,,,,,,17,testing_2,zh2x,au,zh2x_au,zh2x_1_auzhau.wav,zh2x_1_auzhau.wav,,TRUE,FALSE,,,,,,,,,,,,,,f,0.2097,space,0.4606,,,,,,,,0,23,23,16,1,,
5e3d2ab94aebac111b5f6cd2,2023-06-16_10h30.38.492,phx_ver10,2022.2.5,Win32,60.00960154,,,,,,,,,,,,113,testing_3,sh2x,ei,sh2x_ei,sh2x_1_eishei.wav,sh2x_1_eishei.wav,,TRUE,FALSE,,,,,,,,,,,,,,f,0.0178,space,0.2841,,,,,,,,0,24,24,112,1,,
5e3d2ab94aebac111b5f6cd2,2023-06-16_10h30.38.492,phx_ver10,2022.2.5,Win32,60.00960154,,,,,,,,,,,,59,testing_3,zh2j,au,zh2j_au,zh2j_1_auzhau.wav,zh2j_8_aujau.wav,,FALSE,FALSE,,,,,,,,,,,,,,f,0.3984,space,0.7415,,,,,,,,0,25,25,58,1,,
5e3d2ab94aebac111b5f6cd2,2023-06-16_10h30.38.492,phx_ver10,2022.2.5,Win32,60.00960154,,,,,,,,,,,,46,testing_3,zh2sh,i,zh2sh_i,zh2sh_8_ishi.wav,zh2sh_8_ishi.wav,,TRUE,FALSE,,,,,,,,,,,,,,f,0.9415,space,1.3112,,,,,,,,0,26,26,45,1,,
5e3d2ab94aebac111b5f6cd2,2023-06-16_10h30.38.492,phx_ver10,2022.2.5,Win32,60.00960154,,,,,,,,,,,,28,testing_3,zh2sh,a,zh2sh_a,zh2sh_8_asha.wav,zh2sh_1_azha.wav,,FALSE,FALSE,,,,,,,,,,,,,,j,0.002,space,0.3993,,,,,,,,0,27,27,27,1,,
5e3d2ab94aebac111b5f6cd2,2023-06-16_10h30.38.492,phx_ver10,2022.2.5,Win32,60.00960154,,,,,,,,,,,,22,testing_2,zh2x,ei,zh2x_ei,zh2x_8_eixei.wav,zh2x_8_eixei.wav,,TRUE,FALSE,,,,,,,,,,,,,,f,0.6706,space,1.0183,,,,,,,,0,28,28,21,1,,
5e3d2ab94aebac111b5f6cd2,2023-06-16_10h30.38.492,phx_ver10,2022.2.5,Win32,60.00960154,,,,,,,,,,,,88,testing_3,j2x,e,j2x_e,j2x_8_exe.wav,j2x_1_eje.wav,,FALSE,FALSE,,,,,,,,,,,,,,j,0.2049,space,0.6784,,,,,,,,0,29,29,87,1,,
5e3d2ab94aebac111b5f6cd2,2023-06-16_10h30.38.492,phx_ver10,2022.2.5,Win32,60.00960154,,,,,,,,,,,,84,testing_3,j2x,au,j2x_au,j2x_8_auxau.wav,j2x_1_aujau.wav,,FALSE,FALSE,,,,,,,,,,,,,,j,0.513,space,0.9406,,,,,,,,0,30,30,83,1,,
5e3d2ab94aebac111b5f6cd2,2023-06-16_10h30.38.492,phx_ver10,2022.2.5,Win32,60.00960154,,,,,,,,,,,,129,testing_3,sh2j,au,sh2j_au,sh2j_1_aushau.wav,sh2j_1_aushau.wav,,TRUE,FALSE,,,,,,,,,,,,,,f,0.9133,space,1.2787,,,,,,,,0,31,31,128,1,,
5e3d2ab94aebac111b5f6cd2,2023-06-16_10h30.38.492,phx_ver10,2022.2.5,Win32,60.00960154,,,,,,,,,,,,91,testing_3,j2x,ei,j2x_ei,j2x_1_eijei.wav,j2x_8_eixei.wav,,FALSE,FALSE,,,,,,,,,,,,,,j,0.3858,space,0.8653,,,,,,,,0,32,32,90,1,,
5e3d2ab94aebac111b5f6cd2,2023-06-16_10h30.38.492,phx_ver10,2022.2.5,Win32,60.00960154,,,,,,,,,,,,47,testing_3,zh2sh,i,zh2sh_i,zh2sh_1_izhi.wav,zh2sh_8_ishi.wav,,FALSE,FALSE,,,,,,,,,,,,,,j,0.0027,space,0.6184,,,,,,,,0,33,33,46,1,,
5e3d2ab94aebac111b5f6cd2,2023-06-16_10h30.38.492,phx_ver10,2022.2.5,Win32,60.00960154,,,,,,,,,,,,50,testing_3,zh2j,a,zh2j_a,zh2j_8_aja.wav,zh2j_8_aja.wav,,TRUE,FALSE,,,,,,,,,,,,,,f,0.4965,space,0.981,,,,,,,,0,34,34,49,1,,
5e3d2ab94aebac111b5f6cd2,2023-06-16_10h30.38.492,phx_ver10,2022.2.5,Win32,60.00960154,,,,,,,,,,,,25,testing_3,zh2sh,a,zh2sh_a,zh2sh_1_azha.wav,zh2sh_1_azha.wav,,TRUE,FALSE,,,,,,,,,,,,,,f,0.3098,space,0.8275,,,,,,,,0,35,35,24,1,,
5e3d2ab94aebac111b5f6cd2,2023-06-16_10h30.38.492,phx_ver10,2022.2.5,Win32,60.00960154,,,,,,,,,,,,142,testing_3,sh2j,i,sh2j_i,sh2j_8_iji.wav,sh2j_8_iji.wav,,TRUE,FALSE,,,,,,,,,,,,,,f,0.1173,space,0.6035,,,,,,,,0,36,36,141,1,,
5e3d2ab94aebac111b5f6cd2,2023-06-16_10h30.38.492,phx_ver10,2022.2.5,Win32,60.00960154,,,,,,,,,,,,19,testing_2,zh2x,au,zh2x_au,zh2x_1_auzhau.wav,zh2x_8_auxau.wav,,FALSE,FALSE,,,,,,,,,,,,,,j,0.086,space,0.5806,,,,,,,,0,37,37,18,1,,
5e3d2ab94aebac111b5f6cd2,2023-06-16_10h30.38.492,phx_ver10,2022.2.5,Win32,60.00960154,,,,,,,,,,,,97,testing_3,sh2x,a,sh2x_a,sh2x_1_asha.wav,sh2x_1_asha.wav,,TRUE,FALSE,,,,,,,,,,,,,,f,0.1478,space,0.6308,,,,,,,,0,38,38,96,1,,
5e3d2ab94aebac111b5f6cd2,2023-06-16_10h30.38.492,phx_ver10,2022.2.5,Win32,60.00960154,,,,,,,,,,,,101,testing_3,sh2x,ai,sh2x_ai,sh2x_1_aishai.wav,sh2x_1_aishai.wav,,TRUE,FALSE,,,,,,,,,,,,,,f,0.6168,space,1.0545,,,,,,,,0,39,39,100,1,,
5e3d2ab94aebac111b5f6cd2,2023-06-16_10h30.38.492,phx_ver10,2022.2.5,Win32,60.00960154,,,,,,,,,,,,27,testing_3,zh2sh,a,zh2sh_a,zh2sh_1_azha.wav,zh2sh_8_asha.wav,,FALSE,FALSE,,,,,,,,,,,,,,j,0.4575,space,0.9054,,,,,,,,0,40,40,26,1,,
5e3d2ab94aebac111b5f6cd2,2023-06-16_10h30.38.492,phx_ver10,2022.2.5,Win32,60.00960154,,,,,,,,,,,,13,testing_2,zh2x,ai,zh2x_ai,zh2x_1_aizhai.wav,zh2x_1_aizhai.wav,,TRUE,FALSE,,,,,,,,,,,,,,f,0.2798,space,0.7508,,,,,,,,0,41,41,12,1,,
5e3d2ab94aebac111b5f6cd2,2023-06-16_10h30.38.492,phx_ver10,2022.2.5,Win32,60.00960154,,,,,,,,,,,,79,testing_3,j2x,ai,j2x_ai,j2x_1_aijai.wav,j2x_8_aixai.wav,,FALSE,FALSE,,,,,,,,,,,,,,j,0.4709,space,0.8948,,,,,,,,0,42,42,78,1,,
5e3d2ab94aebac111b5f6cd2,2023-06-16_10h30.38.492,phx_ver10,2022.2.5,Win32,60.00960154,,,,,,,,,,,,106,testing_3,sh2x,au,sh2x_au,sh2x_8_auxau.wav,sh2x_8_auxau.wav,,TRUE,FALSE,,,,,,,,,,,,,,f,0.292,space,0.7097,,,,,,,,0,43,43,105,1,,
5e3d2ab94aebac111b5f6cd2,2023-06-16_10h30.38.492,phx_ver10,2022.2.5,Win32,60.00960154,,,,,,,,,,,,39,testing_3,zh2sh,e,zh2sh_e,zh2sh_1_ezhe.wav,zh2sh_8_eshe.wav,,FALSE,FALSE,,,,,,,,,,,,,,j,0.3431,space,0.8319,,,,,,,,0,44,44,38,1,,
5e3d2ab94aebac111b5f6cd2,2023-06-16_10h30.38.492,phx_ver10,2022.2.5,Win32,60.00960154,,,,,,,,,,,,100,testing_3,sh2x,a,sh2x_a,sh2x_8_axa.wav,sh2x_1_asha.wav,,FALSE,FALSE,,,,,,,,,,,,,,j,0.2371,space,0.7826,,,,,,,,0,45,45,99,1,,
5e3d2ab94aebac111b5f6cd2,2023-06-16_10h30.38.492,phx_ver10,2022.2.5,Win32,60.00960154,,,,,,,,,,,,9,testing_1,zh2x,i,zh2x_i,zh2x_1_izhi.wav,zh2x_1_izhi_copy.wav,,TRUE,TRUE,,,,,,,,,,,,,,f,0.3072,space,0.7369,,,,,,,,0,46,46,8,1,,
5e3d2ab94aebac111b5f6cd2,2023-06-16_10h30.38.492,phx_ver10,2022.2.5,Win32,60.00960154,,,,,,,,,,,,126,testing_3,sh2j,ai,sh2j_ai,sh2j_8_aijai.wav,sh2j_8_aijai.wav,,TRUE,FALSE,,,,,,,,,,,,,,f,0.3148,space,0.7996,,,,,,,,0,47,47,125,1,,
5e3d2ab94aebac111b5f6cd2,2023-06-16_10h30.38.492,phx_ver10,2022.2.5,Win32,60.00960154,,,,,,,,,,,,110,testing_3,sh2x,e,sh2x_e,sh2x_8_exe.wav,sh2x_8_exe.wav,,TRUE,FALSE,,,,,,,,,,,,,,f,0.0665,space,0.5458,,,,,,,,0,48,48,109,1,,
5e3d2ab94aebac111b5f6cd2,2023-06-16_10h30.38.492,phx_ver10,2022.2.5,Win32,60.00960154,,,,,,,,,,,,105,testing_3,sh2x,au,sh2x_au,sh2x_1_aushau.wav,sh2x_1_aushau.wav,,TRUE,FALSE,,,,,,,,,,,,,,f,0.0598,space,0.5199,,,,,,,,0,49,49,104,1,,
5e3d2ab94aebac111b5f6cd2,2023-06-16_10h30.38.492,phx_ver10,2022.2.5,Win32,60.00960154,,,,,,,,,,,,4,testing_1,zh2x,a,zh2x_a,zh2x_8_axa.wav,zh2x_1_azha.wav,,FALSE,TRUE,,,,,,,,,,,,,,j,0.2292,space,0.7944,,,,,,,,0,50,50,3,1,,
5e3d2ab94aebac111b5f6cd2,2023-06-16_10h30.38.492,phx_ver10,2022.2.5,Win32,60.00960154,,,,,,,,,,,,122,testing_3,sh2j,a,sh2j_a,sh2j_8_aja.wav,sh2j_8_aja.wav,,TRUE,FALSE,,,,,,,,,,,,,,f,0.0878,space,0.577,,,,,,,,0,51,51,121,1,,
5e3d2ab94aebac111b5f6cd2,2023-06-16_10h30.38.492,phx_ver10,2022.2.5,Win32,60.00960154,,,,,,,,,,,,115,testing_3,sh2x,ei,sh2x_ei,sh2x_1_eishei.wav,sh2x_8_eixei.wav,,FALSE,FALSE,,,,,,,,,,,,,,j,0.16,space,0.7062,,,,,,,,0,52,52,114,1,,
5e3d2ab94aebac111b5f6cd2,2023-06-16_10h30.38.492,phx_ver10,2022.2.5,Win32,60.00960154,,,,,,,,,,,,102,testing_3,sh2x,ai,sh2x_ai,sh2x_8_aixai.wav,sh2x_8_aixai.wav,,TRUE,FALSE,,,,,,,,,,,,,,f,0.0583,space,0.5084,,,,,,,,0,53,53,101,1,,
5e3d2ab94aebac111b5f6cd2,2023-06-16_10h30.38.492,phx_ver10,2022.2.5,Win32,60.00960154,,,,,,,,,,,,14,testing_2,zh2x,ai,zh2x_ai,zh2x_8_aixai.wav,zh2x_8_aixai.wav,,TRUE,FALSE,,,,,,,,,,,,,,f,0.2165,space,0.6817,,,,,,,,0,54,54,13,1,,
5e3d2ab94aebac111b5f6cd2,2023-06-16_10h30.38.492,phx_ver10,2022.2.5,Win32,60.00960154,,,,,,,,,,,,33,testing_3,zh2sh,au,zh2sh_au,zh2sh_1_auzhau.wav,zh2sh_1_auzhau.wav,,TRUE,FALSE,,,,,,,,,,,,,,f,0.2444,space,0.6734,,,,,,,,0,55,55,32,1,,
5e3d2ab94aebac111b5f6cd2,2023-06-16_10h30.38.492,phx_ver10,2022.2.5,Win32,60.00960154,,,,,,,,,,,,45,testing_3,zh2sh,i,zh2sh_i,zh2sh_1_izhi.wav,zh2sh_1_izhi.wav,,TRUE,FALSE,,,,,,,,,,,,,,f,0.0008,space,0.4663,,,,,,,,0,56,56,44,1,,
5e3d2ab94aebac111b5f6cd2,2023-06-16_10h30.38.492,phx_ver10,2022.2.5,Win32,60.00960154,,,,,,,,,,,,73,testing_3,j2x,a,j2x_a,j2x_1_aja.wav,j2x_1_aja.wav,,TRUE,FALSE,,,,,,,,,,,,,,f,0.0874,space,0.5346,,,,,,,,0,57,57,72,1,,
5e3d2ab94aebac111b5f6cd2,2023-06-16_10h30.38.492,phx_ver10,2022.2.5,Win32,60.00960154,,,,,,,,,,,,7,testing_1,zh2x,e,zh2x_e,zh2x_1_ezhe.wav,zh2x_8_exe.wav,,FALSE,TRUE,,,,,,,,,,,,,,j,0.3098,space,1.1092,,,,,,,,0,58,58,6,1,,
5e3d2ab94aebac111b5f6cd2,2023-06-16_10h30.38.492,phx_ver10,2022.2.5,Win32,60.00960154,,,,,,,,,,,,38,testing_3,zh2sh,e,zh2sh_e,zh2sh_8_eshe.wav,zh2sh_8_eshe.wav,,TRUE,FALSE,,,,,,,,,,,,,,f,0.4653,space,0.838,,,,,,,,0,59,59,37,1,,
5e3d2ab94aebac111b5f6cd2,2023-06-16_10h30.38.492,phx_ver10,2022.2.5,Win32,60.00960154,,,,,,,,,,,,54,testing_3,zh2j,ai,zh2j_ai,zh2j_8_aijai.wav,zh2j_8_aijai.wav,,TRUE,FALSE,,,,,,,,,,,,,,f,0.2261,space,0.5762,,,,,,,,0,60,60,53,1,,
5e3d2ab94aebac111b5f6cd2,2023-06-16_10h30.38.492,phx_ver10,2022.2.5,Win32,60.00960154,,,,,,,,,,,,128,testing_3,sh2j,ai,sh2j_ai,sh2j_8_aijai.wav,sh2j_1_aishai.wav,,FALSE,FALSE,,,,,,,,,,,,,,j,0.497,space,0.874,,,,,,,,0,61,61,127,1,,
5e3d2ab94aebac111b5f6cd2,2023-06-16_10h30.38.492,phx_ver10,2022.2.5,Win32,60.00960154,,,,,,,,,,,,92,testing_3,j2x,ei,j2x_ei,j2x_8_eixei.wav,j2x_1_eijei.wav,,FALSE,FALSE,,,,,,,,,,,,,,j,0.1926,space,0.7592,,,,,,,,0,62,62,91,1,,
5e3d2ab94aebac111b5f6cd2,2023-06-16_10h30.38.492,phx_ver10,2022.2.5,Win32,60.00960154,,,,,,,,,,,,63,testing_3,zh2j,e,zh2j_e,zh2j_1_ezhe.wav,zh2j_8_eje.wav,,FALSE,FALSE,,,,,,,,,,,,,,j,0.1014,space,0.6512,,,,,,,,0,63,63,62,1,,
5e3d2ab94aebac111b5f6cd2,2023-06-16_10h30.38.492,phx_ver10,2022.2.5,Win32,60.00960154,,,,,,,,,,,,86,testing_3,j2x,e,j2x_e,j2x_8_exe.wav,j2x_8_exe.wav,,TRUE,FALSE,,,,,,,,,,,,,,f,0.0604,space,0.5951,,,,,,,,0,64,64,85,1,,
5e3d2ab94aebac111b5f6cd2,2023-06-16_10h30.38.492,phx_ver10,2022.2.5,Win32,60.00960154,,,,,,,,,,,,44,testing_3,zh2sh,ei,zh2sh_ei,zh2sh_8_eishei.wav,zh2sh_1_eizhei.wav,,FALSE,FALSE,,,,,,,,,,,,,,j,0.1313,space,0.7056,,,,,,,,0,65,65,43,1,,
5e3d2ab94aebac111b5f6cd2,2023-06-16_10h30.38.492,phx_ver10,2022.2.5,Win32,60.00960154,,,,,,,,,,,,82,testing_3,j2x,au,j2x_au,j2x_8_auxau.wav,j2x_8_auxau.wav,,TRUE,FALSE,,,,,,,,,,,,,,f,0.4386,space,0.8206,,,,,,,,0,66,66,81,1,,
5e3d2ab94aebac111b5f6cd2,2023-06-16_10h30.38.492,phx_ver10,2022.2.5,Win32,60.00960154,,,,,,,,,,,,5,testing_1,zh2x,e,zh2x_e,zh2x_1_ezhe.wav,zh2x_1_ezhe_copy.wav,,TRUE,TRUE,,,,,,,,,,,,,,f,0.3146,space,0.6999,,,,,,,,0,67,67,4,1,,
5e3d2ab94aebac111b5f6cd2,2023-06-16_10h30.38.492,phx_ver10,2022.2.5,Win32,60.00960154,,,,,,,,,,,,136,testing_3,sh2j,e,sh2j_e,sh2j_8_eje.wav,sh2j_1_eshe.wav,,FALSE,FALSE,,,,,,,,,,,,,,j,0.1447,space,0.6245,,,,,,,,0,68,68,135,1,,
5e3d2ab94aebac111b5f6cd2,2023-06-16_10h30.38.492,phx_ver10,2022.2.5,Win32,60.00960154,,,,,,,,,,,,6,testing_1,zh2x,e,zh2x_e,zh2x_8_exe.wav,zh2x_8_exe_copy.wav,,TRUE,TRUE,,,,,,,,,,,,,,f,0.2307,space,0.6631,,,,,,,,0,69,69,5,1,,
5e3d2ab94aebac111b5f6cd2,2023-06-16_10h30.38.492,phx_ver10,2022.2.5,Win32,60.00960154,,,,,,,,,,,,123,testing_3,sh2j,a,sh2j_a,sh2j_1_asha.wav,sh2j_8_aja.wav,,FALSE,FALSE,,,,,,,,,,,,,,j,0.0732,space,0.5836,,,,,,,,0,70,70,122,1,,
5e3d2ab94aebac111b5f6cd2,2023-06-16_10h30.38.492,phx_ver10,2022.2.5,Win32,60.00960154,,,,,,,,,,,,78,testing_3,j2x,ai,j2x_ai,j2x_8_aixai.wav,j2x_8_aixai.wav,,TRUE,FALSE,,,,,,,,,,,,,,f,0.2278,space,0.6239,,,,,,,,0,71,71,77,1,,
5e3d2ab94aebac111b5f6cd2,2023-06-16_10h30.38.492,phx_ver10,2022.2.5,Win32,60.00960154,,,,,,,,,,,,2,testing_1,zh2x,a,zh2x_a,zh2x_8_axa.wav,zh2x_8_axa_copy.wav,,TRUE,TRUE,,,,,,,,,,,,,,f,0.5992,space,0.9482,,,,,,,,0,72,72,1,1,,
5e3d2ab94aebac111b5f6cd2,2023-06-16_10h30.38.492,phx_ver10,2022.2.5,Win32,60.00960154,,,,,,,,,,,,134,testing_3,sh2j,e,sh2j_e,sh2j_8_eje.wav,sh2j_8_eje.wav,,TRUE,FALSE,,,,,,,,,,,,,,f,0.7273,space,1.0513,,,,,,,,0,73,73,133,1,,
5e3d2ab94aebac111b5f6cd2,2023-06-16_10h30.38.492,phx_ver10,2022.2.5,Win32,60.00960154,,,,,,,,,,,,24,testing_2,zh2x,ei,zh2x_ei,zh2x_8_eixei.wav,zh2x_1_eizhei.wav,,FALSE,FALSE,,,,,,,,,,,,,,j,0.1405,space,0.6173,,,,,,,,0,74,74,23,1,,
5e3d2ab94aebac111b5f6cd2,2023-06-16_10h30.38.492,phx_ver10,2022.2.5,Win32,60.00960154,,,,,,,,,,,,72,testing_3,zh2j,i,zh2j_i,zh2j_8_iji.wav,zh2j_1_izhi.wav,,FALSE,FALSE,,,,,,,,,,,,,,j,0.5833,space,1.0155,,,,,,,,0,75,75,71,1,,
5e3d2ab94aebac111b5f6cd2,2023-06-16_10h30.38.492,phx_ver10,2022.2.5,Win32,60.00960154,,,,,,,,,,,,3,testing_1,zh2x,a,zh2x_a,zh2x_1_azha.wav,zh2x_8_axa.wav,,FALSE,TRUE,,,,,,,,,,,,,,j,0.4113,space,0.8449,,,,,,,,0,76,76,2,1,,
5e3d2ab94aebac111b5f6cd2,2023-06-16_10h30.38.492,phx_ver10,2022.2.5,Win32,60.00960154,,,,,,,,,,,,144,testing_3,sh2j,i,sh2j_i,sh2j_8_iji.wav,sh2j_1_ishi.wav,,FALSE,FALSE,,,,,,,,,,,,,,j,0.3875,space,0.8303,,,,,,,,0,77,77,143,1,,
5e3d2ab94aebac111b5f6cd2,2023-06-16_10h30.38.492,phx_ver10,2022.2.5,Win32,60.00960154,,,,,,,,,,,,117,testing_3,sh2x,i,sh2x_i,sh2x_1_ishi.wav,sh2x_1_ishi.wav,,TRUE,FALSE,,,,,,,,,,,,,,f,0.096,space,0.6818,,,,,,,,0,78,78,116,1,,
5e3d2ab94aebac111b5f6cd2,2023-06-16_10h30.38.492,phx_ver10,2022.2.5,Win32,60.00960154,,,,,,,,,,,,135,testing_3,sh2j,e,sh2j_e,sh2j_1_eshe.wav,sh2j_8_eje.wav,,FALSE,FALSE,,,,,,,,,,,,,,j,0.2107,space,0.7446,,,,,,,,0,79,79,134,1,,
5e3d2ab94aebac111b5f6cd2,2023-06-16_10h30.38.492,phx_ver10,2022.2.5,Win32,60.00960154,,,,,,,,,,,,90,testing_3,j2x,ei,j2x_ei,j2x_8_eixei.wav,j2x_8_eixei.wav,,TRUE,FALSE,,,,,,,,,,,,,,f,0.5502,space,0.9388,,,,,,,,0,80,80,89,1,,
5e3d2ab94aebac111b5f6cd2,2023-06-16_10h30.38.492,phx_ver10,2022.2.5,Win32,60.00960154,,,,,,,,,,,,67,testing_3,zh2j,ei,zh2j_ei,zh2j_1_eizhei.wav,zh2j_8_eijei.wav,,FALSE,FALSE,,,,,,,,,,,,,,j,0.2179,space,0.7416,,,,,,,,0,81,81,66,1,,
5e3d2ab94aebac111b5f6cd2,2023-06-16_10h30.38.492,phx_ver10,2022.2.5,Win32,60.00960154,,,,,,,,,,,,99,testing_3,sh2x,a,sh2x_a,sh2x_1_asha.wav,sh2x_8_axa.wav,,FALSE,FALSE,,,,,,,,,,,,,,j,0.0018,space,0.6184,,,,,,,,0,82,82,98,1,,
5e3d2ab94aebac111b5f6cd2,2023-06-16_10h30.38.492,phx_ver10,2022.2.5,Win32,60.00960154,,,,,,,,,,,,132,testing_3,sh2j,au,sh2j_au,sh2j_8_aujau.wav,sh2j_1_aushau.wav,,FALSE,FALSE,,,,,,,,,,,,,,j,0.069,space,0.6065,,,,,,,,0,83,83,131,1,,
5e3d2ab94aebac111b5f6cd2,2023-06-16_10h30.38.492,phx_ver10,2022.2.5,Win32,60.00960154,,,,,,,,,,,,80,testing_3,j2x,ai,j2x_ai,j2x_8_aixai.wav,j2x_1_aijai.wav,,FALSE,FALSE,,,,,,,,,,,,,,j,0.1219,space,0.6883,,,,,,,,0,84,84,79,1,,
5e3d2ab94aebac111b5f6cd2,2023-06-16_10h30.38.492,phx_ver10,2022.2.5,Win32,60.00960154,,,,,,,,,,,,57,testing_3,zh2j,au,zh2j_au,zh2j_1_auzhau.wav,zh2j_1_auzhau.wav,,TRUE,FALSE,,,,,,,,,,,,,,f,1.5438,space,1.9925,,,,,,,,0,85,85,56,1,,
5e3d2ab94aebac111b5f6cd2,2023-06-16_10h30.38.492,phx_ver10,2022.2.5,Win32,60.00960154,,,,,,,,,,,,71,testing_3,zh2j,i,zh2j_i,zh2j_1_izhi.wav,zh2j_8_iji.wav,,FALSE,FALSE,,,,,,,,,,,,,,j,0.7481,space,1.1711,,,,,,,,0,86,86,70,1,,
5e3d2ab94aebac111b5f6cd2,2023-06-16_10h30.38.492,phx_ver10,2022.2.5,Win32,60.00960154,,,,,,,,,,,,16,testing_2,zh2x,ai,zh2x_ai,zh2x_8_aixai.wav,zh2x_1_aizhai.wav,,FALSE,FALSE,,,,,,,,,,,,,,j,0.3935,space,0.7743,,,,,,,,0,87,87,15,1,,
5e3d2ab94aebac111b5f6cd2,2023-06-16_10h30.38.492,phx_ver10,2022.2.5,Win32,60.00960154,,,,,,,,,,,,56,testing_3,zh2j,ai,zh2j_ai,zh2j_8_aijai.wav,zh2j_1_aizhai.wav,,FALSE,FALSE,,,,,,,,,,,,,,f,0.1703,space,0.6059,,,,,,,,0,88,88,55,1,,
5e3d2ab94aebac111b5f6cd2,2023-06-16_10h30.38.492,phx_ver10,2022.2.5,Win32,60.00960154,,,,,,,,,,,,108,testing_3,sh2x,au,sh2x_au,sh2x_8_auxau.wav,sh2x_1_aushau.wav,,FALSE,FALSE,,,,,,,,,,,,,,j,0.3935,space,0.8944,,,,,,,,0,89,89,107,1,,
5e3d2ab94aebac111b5f6cd2,2023-06-16_10h30.38.492,phx_ver10,2022.2.5,Win32,60.00960154,,,,,,,,,,,,75,testing_3,j2x,a,j2x_a,j2x_1_aja.wav,j2x_8_axa.wav,,FALSE,FALSE,,,,,,,,,,,,,,j,0.4,space,0.9665,,,,,,,,0,90,90,74,1,,
5e3d2ab94aebac111b5f6cd2,2023-06-16_10h30.38.492,phx_ver10,2022.2.5,Win32,60.00960154,,,,,,,,,,,,48,testing_3,zh2sh,i,zh2sh_i,zh2sh_8_ishi.wav,zh2sh_1_izhi.wav,,FALSE,FALSE,,,,,,,,,,,,,,j,0.1548,space,0.6877,,,,,,,,0,91,91,47,1,,
5e3d2ab94aebac111b5f6cd2,2023-06-16_10h30.38.492,phx_ver10,2022.2.5,Win32,60.00960154,,,,,,,,,,,,119,testing_3,sh2x,i,sh2x_i,sh2x_1_ishi.wav,sh2x_8_ixi.wav,,FALSE,FALSE,,,,,,,,,,,,,,j,0.5406,space,1.0395,,,,,,,,0,92,92,118,1,,
5e3d2ab94aebac111b5f6cd2,2023-06-16_10h30.38.492,phx_ver10,2022.2.5,Win32,60.00960154,,,,,,,,,,,,109,testing_3,sh2x,e,sh2x_e,sh2x_1_eshe.wav,sh2x_1_eshe.wav,,TRUE,FALSE,,,,,,,,,,,,,,f,0.5215,space,0.9026,,,,,,,,0,93,93,108,1,,
5e3d2ab94aebac111b5f6cd2,2023-06-16_10h30.38.492,phx_ver10,2022.2.5,Win32,60.00960154,,,,,,,,,,,,83,testing_3,j2x,au,j2x_au,j2x_1_aujau.wav,j2x_8_auxau.wav,,FALSE,FALSE,,,,,,,,,,,,,,j,0.0648,space,0.5447,,,,,,,,0,94,94,82,1,,
5e3d2ab94aebac111b5f6cd2,2023-06-16_10h30.38.492,phx_ver10,2022.2.5,Win32,60.00960154,,,,,,,,,,,,32,testing_3,zh2sh,ai,zh2sh_ai,zh2sh_8_aishai.wav,zh2sh_1_aizhai.wav,,FALSE,FALSE,,,,,,,,,,,,,,j,0.1641,space,0.6507,,,,,,,,0,95,95,31,1,,
5e3d2ab94aebac111b5f6cd2,2023-06-16_10h30.38.492,phx_ver10,2022.2.5,Win32,60.00960154,,,,,,,,,,,,52,testing_3,zh2j,a,zh2j_a,zh2j_8_aja.wav,zh2j_1_azha.wav,,FALSE,FALSE,,,,,,,,,,,,,,f,0.3121,space,0.6854,,,,,,,,0,96,96,51,1,,
5e3d2ab94aebac111b5f6cd2,2023-06-16_10h30.38.492,phx_ver10,2022.2.5,Win32,60.00960154,,,,,,,,,,,,65,testing_3,zh2j,ei,zh2j_ei,zh2j_1_eizhei.wav,zh2j_1_eizhei.wav,,TRUE,FALSE,,,,,,,,,,,,,,f,0.4839,space,0.8735,,,,,,,,0,97,97,64,1,,
5e3d2ab94aebac111b5f6cd2,2023-06-16_10h30.38.492,phx_ver10,2022.2.5,Win32,60.00960154,,,,,,,,,,,,140,testing_3,sh2j,ei,sh2j_ei,sh2j_8_eijei.wav,sh2j_1_eishei.wav,,FALSE,FALSE,,,,,,,,,,,,,,j,0.3594,space,0.7699,,,,,,,,0,98,98,139,1,,
5e3d2ab94aebac111b5f6cd2,2023-06-16_10h30.38.492,phx_ver10,2022.2.5,Win32,60.00960154,,,,,,,,,,,,94,testing_3,j2x,i,j2x_i,j2x_8_ixi.wav,j2x_8_ixi.wav,,TRUE,FALSE,,,,,,,,,,,,,,f,0.4155,space,0.8165,,,,,,,,0,99,99,93,1,,
5e3d2ab94aebac111b5f6cd2,2023-06-16_10h30.38.492,phx_ver10,2022.2.5,Win32,60.00960154,,,,,,,,,,,,34,testing_3,zh2sh,au,zh2sh_au,zh2sh_8_aushau.wav,zh2sh_8_aushau.wav,,TRUE,FALSE,,,,,,,,,,,,,,f,0.422,space,0.8896,,,,,,,,0,100,100,33,1,,
5e3d2ab94aebac111b5f6cd2,2023-06-16_10h30.38.492,phx_ver10,2022.2.5,Win32,60.00960154,,,,,,,,,,,,124,testing_3,sh2j,a,sh2j_a,sh2j_8_aja.wav,sh2j_1_asha.wav,,FALSE,FALSE,,,,,,,,,,,,,,j,0.3209,space,0.8452,,,,,,,,0,101,101,123,1,,
5e3d2ab94aebac111b5f6cd2,2023-06-16_10h30.38.492,phx_ver10,2022.2.5,Win32,60.00960154,,,,,,,,,,,,76,testing_3,j2x,a,j2x_a,j2x_8_axa.wav,j2x_1_aja.wav,,FALSE,FALSE,,,,,,,,,,,,,,j,0.1671,space,0.7216,,,,,,,,0,102,102,75,1,,
5e3d2ab94aebac111b5f6cd2,2023-06-16_10h30.38.492,phx_ver10,2022.2.5,Win32,60.00960154,,,,,,,,,,,,139,testing_3,sh2j,ei,sh2j_ei,sh2j_1_eishei.wav,sh2j_8_eijei.wav,,FALSE,FALSE,,,,,,,,,,,,,,j,0.1975,space,1.1796,,,,,,,,0,103,103,138,1,,
5e3d2ab94aebac111b5f6cd2,2023-06-16_10h30.38.492,phx_ver10,2022.2.5,Win32,60.00960154,,,,,,,,,,,,23,testing_2,zh2x,ei,zh2x_ei,zh2x_1_eizhei.wav,zh2x_8_eixei.wav,,FALSE,FALSE,,,,,,,,,,,,,,j,0.1428,space,0.6484,,,,,,,,0,104,104,22,1,,
5e3d2ab94aebac111b5f6cd2,2023-06-16_10h30.38.492,phx_ver10,2022.2.5,Win32,60.00960154,,,,,,,,,,,,37,testing_3,zh2sh,e,zh2sh_e,zh2sh_1_ezhe.wav,zh2sh_1_ezhe.wav,,TRUE,FALSE,,,,,,,,,,,,,,f,0.2309,space,0.7018,,,,,,,,0,105,105,36,1,,
5e3d2ab94aebac111b5f6cd2,2023-06-16_10h30.38.492,phx_ver10,2022.2.5,Win32,60.00960154,,,,,,,,,,,,103,testing_3,sh2x,ai,sh2x_ai,sh2x_1_aishai.wav,sh2x_8_aixai.wav,,FALSE,FALSE,,,,,,,,,,,,,,j,0.1285,space,0.5613,,,,,,,,0,106,106,102,1,,
5e3d2ab94aebac111b5f6cd2,2023-06-16_10h30.38.492,phx_ver10,2022.2.5,Win32,60.00960154,,,,,,,,,,,,112,testing_3,sh2x,e,sh2x_e,sh2x_8_exe.wav,sh2x_1_eshe.wav,,FALSE,FALSE,,,,,,,,,,,,,,f,0.6987,space,1.0873,,,,,,,,0,107,107,111,1,,
5e3d2ab94aebac111b5f6cd2,2023-06-16_10h30.38.492,phx_ver10,2022.2.5,Win32,60.00960154,,,,,,,,,,,,11,testing_1,zh2x,i,zh2x_i,zh2x_1_izhi.wav,zh2x_8_ixi.wav,,FALSE,TRUE,,,,,,,,,,,,,,j,0.0023,space,0.6664,,,,,,,,0,108,108,10,1,,
5e3d2ab94aebac111b5f6cd2,2023-06-16_10h30.38.492,phx_ver10,2022.2.5,Win32,60.00960154,,,,,,,,,,,,85,testing_3,j2x,e,j2x_e,j2x_1_eje.wav,j2x_1_eje.wav,,TRUE,FALSE,,,,,,,,,,,,,,f,0.1009,space,0.8103,,,,,,,,0,109,109,84,1,,
5e3d2ab94aebac111b5f6cd2,2023-06-16_10h30.38.492,phx_ver10,2022.2.5,Win32,60.00960154,,,,,,,,,,,,81,testing_3,j2x,au,j2x_au,j2x_1_aujau.wav,j2x_1_aujau.wav,,TRUE,FALSE,,,,,,,,,,,,,,f,0.1087,space,0.5522,,,,,,,,0,110,110,80,1,,
5e3d2ab94aebac111b5f6cd2,2023-06-16_10h30.38.492,phx_ver10,2022.2.5,Win32,60.00960154,,,,,,,,,,,,55,testing_3,zh2j,ai,zh2j_ai,zh2j_1_aizhai.wav,zh2j_8_aijai.wav,,FALSE,FALSE,,,,,,,,,,,,,,f,0.2041,space,0.608,,,,,,,,0,111,111,54,1,,
5e3d2ab94aebac111b5f6cd2,2023-06-16_10h30.38.492,phx_ver10,2022.2.5,Win32,60.00960154,,,,,,,,,,,,118,testing_3,sh2x,i,sh2x_i,sh2x_8_ixi.wav,sh2x_8_ixi.wav,,TRUE,FALSE,,,,,,,,,,,,,,f,0.2374,space,0.6263,,,,,,,,0,112,112,117,1,,
5e3d2ab94aebac111b5f6cd2,2023-06-16_10h30.38.492,phx_ver10,2022.2.5,Win32,60.00960154,,,,,,,,,,,,8,testing_1,zh2x,e,zh2x_e,zh2x_8_exe.wav,zh2x_1_ezhe.wav,,FALSE,TRUE,,,,,,,,,,,,,,j,0.0019,space,0.5132,,,,,,,,0,113,113,7,1,,
5e3d2ab94aebac111b5f6cd2,2023-06-16_10h30.38.492,phx_ver10,2022.2.5,Win32,60.00960154,,,,,,,,,,,,74,testing_3,j2x,a,j2x_a,j2x_8_axa.wav,j2x_8_axa.wav,,TRUE,FALSE,,,,,,,,,,,,,,f,0.1626,space,0.5772,,,,,,,,0,114,114,73,1,,
5e3d2ab94aebac111b5f6cd2,2023-06-16_10h30.38.492,phx_ver10,2022.2.5,Win32,60.00960154,,,,,,,,,,,,120,testing_3,sh2x,i,sh2x_i,sh2x_8_ixi.wav,sh2x_1_ishi.wav,,FALSE,FALSE,,,,,,,,,,,,,,j,0.3763,space,0.8116,,,,,,,,0,115,115,119,1,,
5e3d2ab94aebac111b5f6cd2,2023-06-16_10h30.38.492,phx_ver10,2022.2.5,Win32,60.00960154,,,,,,,,,,,,64,testing_3,zh2j,e,zh2j_e,zh2j_8_eje.wav,zh2j_1_ezhe.wav,,FALSE,FALSE,,,,,,,,,,,,,,f,1.0795,space,1.5033,,,,,,,,0,116,116,63,1,,
5e3d2ab94aebac111b5f6cd2,2023-06-16_10h30.38.492,phx_ver10,2022.2.5,Win32,60.00960154,,,,,,,,,,,,116,testing_3,sh2x,ei,sh2x_ei,sh2x_8_eixei.wav,sh2x_1_eishei.wav,,FALSE,FALSE,,,,,,,,,,,,,,j,0.0845,space,0.5448,,,,,,,,0,117,117,115,1,,
5e3d2ab94aebac111b5f6cd2,2023-06-16_10h30.38.492,phx_ver10,2022.2.5,Win32,60.00960154,,,,,,,,,,,,51,testing_3,zh2j,a,zh2j_a,zh2j_1_azha.wav,zh2j_8_aja.wav,,FALSE,FALSE,,,,,,,,,,,,,,f,0.2323,space,0.6909,,,,,,,,0,118,118,50,1,,
5e3d2ab94aebac111b5f6cd2,2023-06-16_10h30.38.492,phx_ver10,2022.2.5,Win32,60.00960154,,,,,,,,,,,,89,testing_3,j2x,ei,j2x_ei,j2x_1_eijei.wav,j2x_1_eijei.wav,,TRUE,FALSE,,,,,,,,,,,,,,f,0.2773,space,0.7865,,,,,,,,0,119,119,88,1,,
5e3d2ab94aebac111b5f6cd2,2023-06-16_10h30.38.492,phx_ver10,2022.2.5,Win32,60.00960154,,,,,,,,,,,,87,testing_3,j2x,e,j2x_e,j2x_1_eje.wav,j2x_8_exe.wav,,FALSE,FALSE,,,,,,,,,,,,,,j,0.1529,space,0.5891,,,,,,,,0,120,120,86,1,,
5e3d2ab94aebac111b5f6cd2,2023-06-16_10h30.38.492,phx_ver10,2022.2.5,Win32,60.00960154,,,,,,,,,,,,98,testing_3,sh2x,a,sh2x_a,sh2x_8_axa.wav,sh2x_8_axa.wav,,TRUE,FALSE,,,,,,,,,,,,,,f,0.0305,space,0.4546,,,,,,,,0,121,121,97,1,,
5e3d2ab94aebac111b5f6cd2,2023-06-16_10h30.38.492,phx_ver10,2022.2.5,Win32,60.00960154,,,,,,,,,,,,60,testing_3,zh2j,au,zh2j_au,zh2j_8_aujau.wav,zh2j_1_auzhau.wav,,FALSE,FALSE,,,,,,,,,,,,,,f,0.0851,space,0.4721,,,,,,,,0,122,122,59,1,,
5e3d2ab94aebac111b5f6cd2,2023-06-16_10h30.38.492,phx_ver10,2022.2.5,Win32,60.00960154,,,,,,,,,,,,125,testing_3,sh2j,ai,sh2j_ai,sh2j_1_aishai.wav,sh2j_1_aishai.wav,,TRUE,FALSE,,,,,,,,,,,,,,f,0.0323,space,0.4035,,,,,,,,0,123,123,124,1,,
5e3d2ab94aebac111b5f6cd2,2023-06-16_10h30.38.492,phx_ver10,2022.2.5,Win32,60.00960154,,,,,,,,,,,,30,testing_3,zh2sh,ai,zh2sh_ai,zh2sh_8_aishai.wav,zh2sh_8_aishai.wav,,TRUE,FALSE,,,,,,,,,,,,,,f,0.2292,space,0.6084,,,,,,,,0,124,124,29,1,,
5e3d2ab94aebac111b5f6cd2,2023-06-16_10h30.38.492,phx_ver10,2022.2.5,Win32,60.00960154,,,,,,,,,,,,21,testing_2,zh2x,ei,zh2x_ei,zh2x_1_eizhei.wav,zh2x_1_eizhei.wav,,TRUE,FALSE,,,,,,,,,,,,,,f,0.1155,space,0.5497,,,,,,,,0,125,125,20,1,,
5e3d2ab94aebac111b5f6cd2,2023-06-16_10h30.38.492,phx_ver10,2022.2.5,Win32,60.00960154,,,,,,,,,,,,40,testing_3,zh2sh,e,zh2sh_e,zh2sh_8_eshe.wav,zh2sh_1_ezhe.wav,,FALSE,FALSE,,,,,,,,,,,,,,j,0.3585,space,0.802,,,,,,,,0,126,126,39,1,,
5e3d2ab94aebac111b5f6cd2,2023-06-16_10h30.38.492,phx_ver10,2022.2.5,Win32,60.00960154,,,,,,,,,,,,70,testing_3,zh2j,i,zh2j_i,zh2j_8_iji.wav,zh2j_8_iji.wav,,TRUE,FALSE,,,,,,,,,,,,,,f,0.0028,space,0.4427,,,,,,,,0,127,127,69,1,,
5e3d2ab94aebac111b5f6cd2,2023-06-16_10h30.38.492,phx_ver10,2022.2.5,Win32,60.00960154,,,,,,,,,,,,69,testing_3,zh2j,i,zh2j_i,zh2j_1_izhi.wav,zh2j_1_izhi.wav,,TRUE,FALSE,,,,,,,,,,,,,,f,0.469,space,0.8693,,,,,,,,0,128,128,68,1,,
5e3d2ab94aebac111b5f6cd2,2023-06-16_10h30.38.492,phx_ver10,2022.2.5,Win32,60.00960154,,,,,,,,,,,,18,testing_2,zh2x,au,zh2x_au,zh2x_8_auxau.wav,zh2x_8_auxau.wav,,TRUE,FALSE,,,,,,,,,,,,,,f,0.3239,space,0.7517,,,,,,,,0,129,129,17,1,,
5e3d2ab94aebac111b5f6cd2,2023-06-16_10h30.38.492,phx_ver10,2022.2.5,Win32,60.00960154,,,,,,,,,,,,138,testing_3,sh2j,ei,sh2j_ei,sh2j_8_eijei.wav,sh2j_8_eijei.wav,,TRUE,FALSE,,,,,,,,,,,,,,f,0.0381,space,0.4504,,,,,,,,0,130,130,137,1,,
5e3d2ab94aebac111b5f6cd2,2023-06-16_10h30.38.492,phx_ver10,2022.2.5,Win32,60.00960154,,,,,,,,,,,,143,testing_3,sh2j,i,sh2j_i,sh2j_1_ishi.wav,sh2j_8_iji.wav,,FALSE,FALSE,,,,,,,,,,,,,,j,0.2254,space,0.7483,,,,,,,,0,131,131,142,1,,
5e3d2ab94aebac111b5f6cd2,2023-06-16_10h30.38.492,phx_ver10,2022.2.5,Win32,60.00960154,,,,,,,,,,,,93,testing_3,j2x,i,j2x_i,j2x_1_iji.wav,j2x_1_iji.wav,,TRUE,FALSE,,,,,,,,,,,,,,f,0.0629,space,0.5593,,,,,,,,0,132,132,92,1,,
5e3d2ab94aebac111b5f6cd2,2023-06-16_10h30.38.492,phx_ver10,2022.2.5,Win32,60.00960154,,,,,,,,,,,,107,testing_3,sh2x,au,sh2x_au,sh2x_1_aushau.wav,sh2x_8_auxau.wav,,FALSE,FALSE,,,,,,,,,,,,,,j,0.3545,space,0.7484,,,,,,,,0,133,133,106,1,,
5e3d2ab94aebac111b5f6cd2,2023-06-16_10h30.38.492,phx_ver10,2022.2.5,Win32,60.00960154,,,,,,,,,,,,131,testing_3,sh2j,au,sh2j_au,sh2j_1_aushau.wav,sh2j_8_aujau.wav,,FALSE,FALSE,,,,,,,,,,,,,,j,0.0981,space,0.6564,,,,,,,,0,134,134,130,1,,
5e3d2ab94aebac111b5f6cd2,2023-06-16_10h30.38.492,phx_ver10,2022.2.5,Win32,60.00960154,,,,,,,,,,,,29,testing_3,zh2sh,ai,zh2sh_ai,zh2sh_1_aizhai.wav,zh2sh_1_aizhai.wav,,TRUE,FALSE,,,,,,,,,,,,,,f,0.0978,space,0.5679,,,,,,,,0,135,135,28,1,,
5e3d2ab94aebac111b5f6cd2,2023-06-16_10h30.38.492,phx_ver10,2022.2.5,Win32,60.00960154,,,,,,,,,,,,36,testing_3,zh2sh,au,zh2sh_au,zh2sh_8_aushau.wav,zh2sh_1_auzhau.wav,,FALSE,FALSE,,,,,,,,,,,,,,j,0.1188,space,0.5982,,,,,,,,0,136,136,35,1,,
5e3d2ab94aebac111b5f6cd2,2023-06-16_10h30.38.492,phx_ver10,2022.2.5,Win32,60.00960154,,,,,,,,,,,,66,testing_3,zh2j,ei,zh2j_ei,zh2j_8_eijei.wav,zh2j_8_eijei.wav,,TRUE,FALSE,,,,,,,,,,,,,,f,0.3029,space,0.697,,,,,,,,0,137,137,65,1,,
5e3d2ab94aebac111b5f6cd2,2023-06-16_10h30.38.492,phx_ver10,2022.2.5,Win32,60.00960154,,,,,,,,,,,,35,testing_3,zh2sh,au,zh2sh_au,zh2sh_1_auzhau.wav,zh2sh_8_aushau.wav,,FALSE,FALSE,,,,,,,,,,,,,,j,0.0023,space,0.4736,,,,,,,,0,138,138,34,1,,
5e3d2ab94aebac111b5f6cd2,2023-06-16_10h30.38.492,phx_ver10,2022.2.5,Win32,60.00960154,,,,,,,,,,,,127,testing_3,sh2j,ai,sh2j_ai,sh2j_1_aishai.wav,sh2j_8_aijai.wav,,FALSE,FALSE,,,,,,,,,,,,,,j,0.7168,space,1.1151,,,,,,,,0,139,139,126,1,,
5e3d2ab94aebac111b5f6cd2,2023-06-16_10h30.38.492,phx_ver10,2022.2.5,Win32,60.00960154,,,,,,,,,,,,137,testing_3,sh2j,ei,sh2j_ei,sh2j_1_eishei.wav,sh2j_1_eishei.wav,,TRUE,FALSE,,,,,,,,,,,,,,f,0.5658,space,1.0074,,,,,,,,0,140,140,136,1,,
5e3d2ab94aebac111b5f6cd2,2023-06-16_10h30.38.492,phx_ver10,2022.2.5,Win32,60.00960154,,,,,,,,,,,,114,testing_3,sh2x,ei,sh2x_ei,sh2x_8_eixei.wav,sh2x_8_eixei.wav,,TRUE,FALSE,,,,,,,,,,,,,,f,0.1146,space,0.5764,,,,,,,,0,141,141,113,1,,
5e3d2ab94aebac111b5f6cd2,2023-06-16_10h30.38.492,phx_ver10,2022.2.5,Win32,60.00960154,,,,,,,,,,,,12,testing_1,zh2x,i,zh2x_i,zh2x_8_ixi.wav,zh2x_1_izhi.wav,,FALSE,TRUE,,,,,,,,,,,,,,j,0.0658,space,0.5672,,,,,,,,0,142,142,11,1,,
5e3d2ab94aebac111b5f6cd2,2023-06-16_10h30.38.492,phx_ver10,2022.2.5,Win32,60.00960154,,,,,,,,,,,,49,testing_3,zh2j,a,zh2j_a,zh2j_1_azha.wav,zh2j_1_azha.wav,,TRUE,FALSE,,,,,,,,,,,,,,f,0.4006,space,0.7933,,,,,,,,0,143,143,48,1,,
5e3d2ab94aebac111b5f6cd2,2023-06-16_10h30.38.492,phx_ver10,2022.2.5,Win32,60.00960154,,,,,,,,,,,,,,,,,,,,,,,,,,,,,,,,,,,,,,,,,,,,,,,,,,,space,6.1711
