participant,date,expName,psychopyVersion,OS,frameRate,space_1.keys,space_1.rt,space_2.keys,space_2.rt,space_train.keys,space_train.rt,training.thisRepN,training.thisTrialN,training.thisN,training.thisIndex,training.ran,token_id,task,continuum,vowel,series,sound_1,sound_2,img,same,trained,FJ_attn.keys,FJ_attn.rt,space_attn.keys,space_attn.rt,if_attn_test.thisRepN,if_attn_test.thisTrialN,if_attn_test.thisN,if_attn_test.thisIndex,if_attn_test.ran,space_trans_1.keys,space_trans_1.rt,space_trans_11.keys,space_trans_11.rt,FJ_test.keys,FJ_test.rt,space_test.keys,space_test.rt,testing_pre.thisRepN,testing_pre.thisTrialN,testing_pre.thisN,testing_pre.thisIndex,testing_pre.ran,space_trans_2.keys,space_trans_2.rt,testing_all.thisRepN,testing_all.thisTrialN,testing_all.thisN,testing_all.thisIndex,testing_all.ran,space_ending.keys,space_ending.rt
5e625e452a6dce000bf8f7a7,2023-06-16_13h56.44.842,phx_ver10,2022.2.5,Win32,60.03842459,,,,,,,,,,,,,,,,,,,,,,,,,,,,,,,,,,,,,,,,,,,,,,,,,,,,
5e625e452a6dce000bf8f7a7,2023-06-16_13h56.44.842,phx_ver10,2022.2.5,Win32,60.03842459,space,49.7899,,,,,,,,,,,,,,,,,,,,,,,,,,,,,,,,,,,,,,,,,,,,,,,,,,
5e625e452a6dce000bf8f7a7,2023-06-16_13h56.44.842,phx_ver10,2022.2.5,Win32,60.03842459,,,space,3.8011,,,,,,,,,,,,,,,,,,,,,,,,,,,,,,,,,,,,,,,,,,,,,,,,
5e625e452a6dce000bf8f7a7,2023-06-16_13h56.44.842,phx_ver10,2022.2.5,Win32,60.03842459,,,,,space,1.52,0,0,0,19,1,20,training,zh2x,e,zh2x_e,zh2x_2_ezhe.wav,,ezhe.jpg,,,,,,,,,,,,,,,,,,,,,,,,,,,,,,,,,
5e625e452a6dce000bf8f7a7,2023-06-16_13h56.44.842,phx_ver10,2022.2.5,Win32,60.03842459,,,,,space,0.647700001,0,1,1,13,1,14,training,zh2x,a,zh2x_a,zh2x_7_axa.wav,,axa.jpg,,,,,,,,,,,,,,,,,,,,,,,,,,,,,,,,,
5e625e452a6dce000bf8f7a7,2023-06-16_13h56.44.842,phx_ver10,2022.2.5,Win32,60.03842459,,,,,space,0.4003,0,2,2,34,1,35,training,zh2x,i,zh2x_i,zh2x_2_izhi.wav,,izhi.jpg,,,,,,,,,,,,,,,,,,,,,,,,,,,,,,,,,
5e625e452a6dce000bf8f7a7,2023-06-16_13h56.44.842,phx_ver10,2022.2.5,Win32,60.03842459,,,,,space,0.2183,0,3,3,29,1,30,training,zh2x,e,zh2x_e,zh2x_7_exe.wav,,exe.jpg,,,,,,,,,,,,,,,,,,,,,,,,,,,,,,,,,
5e625e452a6dce000bf8f7a7,2023-06-16_13h56.44.842,phx_ver10,2022.2.5,Win32,60.03842459,,,,,space,0.157900001,0,4,4,25,1,26,training,zh2x,e,zh2x_e,zh2x_6_exe.wav,,exe.jpg,,,,,,,,,,,,,,,,,,,,,,,,,,,,,,,,,
5e625e452a6dce000bf8f7a7,2023-06-16_13h56.44.842,phx_ver10,2022.2.5,Win32,60.03842459,,,,,space,0.6089,0,5,5,18,1,19,training,zh2x,e,zh2x_e,zh2x_2_ezhe.wav,,ezhe.jpg,,,,,,,,,,,,,,,,,,,,,,,,,,,,,,,,,
5e625e452a6dce000bf8f7a7,2023-06-16_13h56.44.842,phx_ver10,2022.2.5,Win32,60.03842459,,,,,,,,,,,,,attn_test,,,,zh2x_1_izhi.wav,zh2x_8_ixi.wav,izhi.jpg,LEFT,,f,1.815700001,space,3.129,0,0,0,0,1,,,,,,,,,,,,,,,,,,,,,,
5e625e452a6dce000bf8f7a7,2023-06-16_13h56.44.842,phx_ver10,2022.2.5,Win32,60.03842459,,,,,space,0.8247,0,6,6,0,1,1,training,zh2x,a,zh2x_a,zh2x_1_azha.wav,,azha.jpg,,,,,,,,,,,,,,,,,,,,,,,,,,,,,,,,,
5e625e452a6dce000bf8f7a7,2023-06-16_13h56.44.842,phx_ver10,2022.2.5,Win32,60.03842459,,,,,space,0.1727,0,7,7,22,1,23,training,zh2x,e,zh2x_e,zh2x_3_ezhe.wav,,ezhe.jpg,,,,,,,,,,,,,,,,,,,,,,,,,,,,,,,,,
5e625e452a6dce000bf8f7a7,2023-06-16_13h56.44.842,phx_ver10,2022.2.5,Win32,60.03842459,,,,,space,0.5852,0,8,8,21,1,22,training,zh2x,e,zh2x_e,zh2x_3_ezhe.wav,,ezhe.jpg,,,,,,,,,,,,,,,,,,,,,,,,,,,,,,,,,
5e625e452a6dce000bf8f7a7,2023-06-16_13h56.44.842,phx_ver10,2022.2.5,Win32,60.03842459,,,,,space,0.750200001,0,9,9,38,1,39,training,zh2x,i,zh2x_i,zh2x_3_izhi.wav,,izhi.jpg,,,,,,,,,,,,,,,,,,,,,,,,,,,,,,,,,
5e625e452a6dce000bf8f7a7,2023-06-16_13h56.44.842,phx_ver10,2022.2.5,Win32,60.03842459,,,,,space,0.2282,0,10,10,12,1,13,training,zh2x,a,zh2x_a,zh2x_7_axa.wav,,axa.jpg,,,,,,,,,,,,,,,,,,,,,,,,,,,,,,,,,
5e625e452a6dce000bf8f7a7,2023-06-16_13h56.44.842,phx_ver10,2022.2.5,Win32,60.03842459,,,,,space,0.477,0,11,11,26,1,27,training,zh2x,e,zh2x_e,zh2x_6_exe.wav,,exe.jpg,,,,,,,,,,,,,,,,,,,,,,,,,,,,,,,,,
5e625e452a6dce000bf8f7a7,2023-06-16_13h56.44.842,phx_ver10,2022.2.5,Win32,60.03842459,,,,,,,,,,,,,attn_test,,,,zh2x_8_axa.wav,zh2x_1_izhi.wav,izhi.jpg,RIGHT,,j,0.4293,space,1.0457,0,0,0,0,1,,,,,,,,,,,,,,,,,,,,,,
5e625e452a6dce000bf8f7a7,2023-06-16_13h56.44.842,phx_ver10,2022.2.5,Win32,60.03842459,,,,,space,0.3915,0,12,12,8,1,9,training,zh2x,a,zh2x_a,zh2x_5_axa.wav,,axa.jpg,,,,,,,,,,,,,,,,,,,,,,,,,,,,,,,,,
5e625e452a6dce000bf8f7a7,2023-06-16_13h56.44.842,phx_ver10,2022.2.5,Win32,60.03842459,,,,,space,0.12,0,13,13,28,1,29,training,zh2x,e,zh2x_e,zh2x_7_exe.wav,,exe.jpg,,,,,,,,,,,,,,,,,,,,,,,,,,,,,,,,,
5e625e452a6dce000bf8f7a7,2023-06-16_13h56.44.842,phx_ver10,2022.2.5,Win32,60.03842459,,,,,space,3.7211,0,14,14,46,1,47,training,zh2x,i,zh2x_i,zh2x_7_ixi.wav,,ixi.jpg,,,,,,,,,,,,,,,,,,,,,,,,,,,,,,,,,
5e625e452a6dce000bf8f7a7,2023-06-16_13h56.44.842,phx_ver10,2022.2.5,Win32,60.03842459,,,,,space,0.3988,0,15,15,24,1,25,training,zh2x,e,zh2x_e,zh2x_5_exe.wav,,exe.jpg,,,,,,,,,,,,,,,,,,,,,,,,,,,,,,,,,
5e625e452a6dce000bf8f7a7,2023-06-16_13h56.44.842,phx_ver10,2022.2.5,Win32,60.03842459,,,,,space,0.2335,0,16,16,5,1,6,training,zh2x,a,zh2x_a,zh2x_3_azha.wav,,azha.jpg,,,,,,,,,,,,,,,,,,,,,,,,,,,,,,,,,
5e625e452a6dce000bf8f7a7,2023-06-16_13h56.44.842,phx_ver10,2022.2.5,Win32,60.03842459,,,,,space,0.4584,0,17,17,9,1,10,training,zh2x,a,zh2x_a,zh2x_6_axa.wav,,axa.jpg,,,,,,,,,,,,,,,,,,,,,,,,,,,,,,,,,
5e625e452a6dce000bf8f7a7,2023-06-16_13h56.44.842,phx_ver10,2022.2.5,Win32,60.03842459,,,,,,,,,,,,,attn_test,,,,zh2x_8_axa.wav,zh2x_8_exe.wav,exe.jpg,RIGHT,,j,0.4495,space,0.9252,0,0,0,0,1,,,,,,,,,,,,,,,,,,,,,,
5e625e452a6dce000bf8f7a7,2023-06-16_13h56.44.842,phx_ver10,2022.2.5,Win32,60.03842459,,,,,space,0.3561,0,18,18,27,1,28,training,zh2x,e,zh2x_e,zh2x_7_exe.wav,,exe.jpg,,,,,,,,,,,,,,,,,,,,,,,,,,,,,,,,,
5e625e452a6dce000bf8f7a7,2023-06-16_13h56.44.842,phx_ver10,2022.2.5,Win32,60.03842459,,,,,space,0.134099999,0,19,19,14,1,15,training,zh2x,a,zh2x_a,zh2x_7_axa.wav,,axa.jpg,,,,,,,,,,,,,,,,,,,,,,,,,,,,,,,,,
5e625e452a6dce000bf8f7a7,2023-06-16_13h56.44.842,phx_ver10,2022.2.5,Win32,60.03842459,,,,,space,0.012299999,0,20,20,35,1,36,training,zh2x,i,zh2x_i,zh2x_2_izhi.wav,,izhi.jpg,,,,,,,,,,,,,,,,,,,,,,,,,,,,,,,,,
5e625e452a6dce000bf8f7a7,2023-06-16_13h56.44.842,phx_ver10,2022.2.5,Win32,60.03842459,,,,,space,0.393799999,0,21,21,30,1,31,training,zh2x,e,zh2x_e,zh2x_7_exe.wav,,exe.jpg,,,,,,,,,,,,,,,,,,,,,,,,,,,,,,,,,
5e625e452a6dce000bf8f7a7,2023-06-16_13h56.44.842,phx_ver10,2022.2.5,Win32,60.03842459,,,,,space,0.2342,0,22,22,11,1,12,training,zh2x,a,zh2x_a,zh2x_7_axa.wav,,axa.jpg,,,,,,,,,,,,,,,,,,,,,,,,,,,,,,,,,
5e625e452a6dce000bf8f7a7,2023-06-16_13h56.44.842,phx_ver10,2022.2.5,Win32,60.03842459,,,,,space,0.3399,0,23,23,4,1,5,training,zh2x,a,zh2x_a,zh2x_2_azha.wav,,azha.jpg,,,,,,,,,,,,,,,,,,,,,,,,,,,,,,,,,
5e625e452a6dce000bf8f7a7,2023-06-16_13h56.44.842,phx_ver10,2022.2.5,Win32,60.03842459,,,,,,,,,,,,,attn_test,,,,zh2x_1_izhi.wav,zh2x_1_azha.wav,azha.jpg,RIGHT,,j,0.137599999,space,0.4507,0,0,0,0,1,,,,,,,,,,,,,,,,,,,,,,
5e625e452a6dce000bf8f7a7,2023-06-16_13h56.44.842,phx_ver10,2022.2.5,Win32,60.03842459,,,,,space,0.3512,0,24,24,41,1,42,training,zh2x,i,zh2x_i,zh2x_6_ixi.wav,,ixi.jpg,,,,,,,,,,,,,,,,,,,,,,,,,,,,,,,,,
5e625e452a6dce000bf8f7a7,2023-06-16_13h56.44.842,phx_ver10,2022.2.5,Win32,60.03842459,,,,,space,0.0418,0,25,25,42,1,43,training,zh2x,i,zh2x_i,zh2x_6_ixi.wav,,ixi.jpg,,,,,,,,,,,,,,,,,,,,,,,,,,,,,,,,,
5e625e452a6dce000bf8f7a7,2023-06-16_13h56.44.842,phx_ver10,2022.2.5,Win32,60.03842459,,,,,space,0.29,0,26,26,44,1,45,training,zh2x,i,zh2x_i,zh2x_7_ixi.wav,,ixi.jpg,,,,,,,,,,,,,,,,,,,,,,,,,,,,,,,,,
5e625e452a6dce000bf8f7a7,2023-06-16_13h56.44.842,phx_ver10,2022.2.5,Win32,60.03842459,,,,,space,0.1166,0,27,27,40,1,41,training,zh2x,i,zh2x_i,zh2x_5_ixi.wav,,ixi.jpg,,,,,,,,,,,,,,,,,,,,,,,,,,,,,,,,,
5e625e452a6dce000bf8f7a7,2023-06-16_13h56.44.842,phx_ver10,2022.2.5,Win32,60.03842459,,,,,space,0.2165,0,28,28,33,1,34,training,zh2x,i,zh2x_i,zh2x_2_izhi.wav,,izhi.jpg,,,,,,,,,,,,,,,,,,,,,,,,,,,,,,,,,
5e625e452a6dce000bf8f7a7,2023-06-16_13h56.44.842,phx_ver10,2022.2.5,Win32,60.03842459,,,,,space,0.2653,0,29,29,47,1,48,training,zh2x,i,zh2x_i,zh2x_8_ixi.wav,,ixi.jpg,,,,,,,,,,,,,,,,,,,,,,,,,,,,,,,,,
5e625e452a6dce000bf8f7a7,2023-06-16_13h56.44.842,phx_ver10,2022.2.5,Win32,60.03842459,,,,,,,,,,,,,attn_test,,,,zh2x_8_exe.wav,zh2x_8_ixi.wav,ixi.jpg,RIGHT,,j,0.1243,space,0.3508,0,0,0,0,1,,,,,,,,,,,,,,,,,,,,,,
5e625e452a6dce000bf8f7a7,2023-06-16_13h56.44.842,phx_ver10,2022.2.5,Win32,60.03842459,,,,,space,0.3265,0,30,30,36,1,37,training,zh2x,i,zh2x_i,zh2x_2_izhi.wav,,izhi.jpg,,,,,,,,,,,,,,,,,,,,,,,,,,,,,,,,,
5e625e452a6dce000bf8f7a7,2023-06-16_13h56.44.842,phx_ver10,2022.2.5,Win32,60.03842459,,,,,space,0.0725,0,31,31,1,1,2,training,zh2x,a,zh2x_a,zh2x_2_azha.wav,,azha.jpg,,,,,,,,,,,,,,,,,,,,,,,,,,,,,,,,,
5e625e452a6dce000bf8f7a7,2023-06-16_13h56.44.842,phx_ver10,2022.2.5,Win32,60.03842459,,,,,space,0.2566,0,32,32,3,1,4,training,zh2x,a,zh2x_a,zh2x_2_azha.wav,,azha.jpg,,,,,,,,,,,,,,,,,,,,,,,,,,,,,,,,,
5e625e452a6dce000bf8f7a7,2023-06-16_13h56.44.842,phx_ver10,2022.2.5,Win32,60.03842459,,,,,space,0.1886,0,33,33,45,1,46,training,zh2x,i,zh2x_i,zh2x_7_ixi.wav,,ixi.jpg,,,,,,,,,,,,,,,,,,,,,,,,,,,,,,,,,
5e625e452a6dce000bf8f7a7,2023-06-16_13h56.44.842,phx_ver10,2022.2.5,Win32,60.03842459,,,,,space,0.0882,0,34,34,23,1,24,training,zh2x,e,zh2x_e,zh2x_4_ezhe.wav,,ezhe.jpg,,,,,,,,,,,,,,,,,,,,,,,,,,,,,,,,,
5e625e452a6dce000bf8f7a7,2023-06-16_13h56.44.842,phx_ver10,2022.2.5,Win32,60.03842459,,,,,space,0.3094,0,35,35,17,1,18,training,zh2x,e,zh2x_e,zh2x_2_ezhe.wav,,ezhe.jpg,,,,,,,,,,,,,,,,,,,,,,,,,,,,,,,,,
5e625e452a6dce000bf8f7a7,2023-06-16_13h56.44.842,phx_ver10,2022.2.5,Win32,60.03842459,,,,,,,,,,,,,attn_test,,,,zh2x_1_ezhe.wav,zh2x_1_izhi.wav,ezhe.jpg,LEFT,,f,0.079700001,space,0.3266,0,0,0,0,1,,,,,,,,,,,,,,,,,,,,,,
5e625e452a6dce000bf8f7a7,2023-06-16_13h56.44.842,phx_ver10,2022.2.5,Win32,60.03842459,,,,,space,0.3363,0,36,36,6,1,7,training,zh2x,a,zh2x_a,zh2x_3_azha.wav,,azha.jpg,,,,,,,,,,,,,,,,,,,,,,,,,,,,,,,,,
5e625e452a6dce000bf8f7a7,2023-06-16_13h56.44.842,phx_ver10,2022.2.5,Win32,60.03842459,,,,,space,0.0749,0,37,37,39,1,40,training,zh2x,i,zh2x_i,zh2x_4_izhi.wav,,izhi.jpg,,,,,,,,,,,,,,,,,,,,,,,,,,,,,,,,,
5e625e452a6dce000bf8f7a7,2023-06-16_13h56.44.842,phx_ver10,2022.2.5,Win32,60.03842459,,,,,space,0.0686,0,38,38,31,1,32,training,zh2x,e,zh2x_e,zh2x_8_exe.wav,,exe.jpg,,,,,,,,,,,,,,,,,,,,,,,,,,,,,,,,,
5e625e452a6dce000bf8f7a7,2023-06-16_13h56.44.842,phx_ver10,2022.2.5,Win32,60.03842459,,,,,space,0.000700001,0,39,39,37,1,38,training,zh2x,i,zh2x_i,zh2x_3_izhi.wav,,izhi.jpg,,,,,,,,,,,,,,,,,,,,,,,,,,,,,,,,,
5e625e452a6dce000bf8f7a7,2023-06-16_13h56.44.842,phx_ver10,2022.2.5,Win32,60.03842459,,,,,space,0.2183,0,40,40,10,1,11,training,zh2x,a,zh2x_a,zh2x_6_axa.wav,,axa.jpg,,,,,,,,,,,,,,,,,,,,,,,,,,,,,,,,,
5e625e452a6dce000bf8f7a7,2023-06-16_13h56.44.842,phx_ver10,2022.2.5,Win32,60.03842459,,,,,space,0.5961,0,41,41,15,1,16,training,zh2x,a,zh2x_a,zh2x_8_axa.wav,,axa.jpg,,,,,,,,,,,,,,,,,,,,,,,,,,,,,,,,,
5e625e452a6dce000bf8f7a7,2023-06-16_13h56.44.842,phx_ver10,2022.2.5,Win32,60.03842459,,,,,,,,,,,,,attn_test,,,,zh2x_1_ezhe.wav,zh2x_8_axa.wav,axa.jpg,RIGHT,,j,0.0548,space,0.3178,0,0,0,0,1,,,,,,,,,,,,,,,,,,,,,,
5e625e452a6dce000bf8f7a7,2023-06-16_13h56.44.842,phx_ver10,2022.2.5,Win32,60.03842459,,,,,space,0.2881,0,42,42,16,1,17,training,zh2x,e,zh2x_e,zh2x_1_ezhe.wav,,ezhe.jpg,,,,,,,,,,,,,,,,,,,,,,,,,,,,,,,,,
5e625e452a6dce000bf8f7a7,2023-06-16_13h56.44.842,phx_ver10,2022.2.5,Win32,60.03842459,,,,,space,0.2179,0,43,43,7,1,8,training,zh2x,a,zh2x_a,zh2x_4_azha.wav,,azha.jpg,,,,,,,,,,,,,,,,,,,,,,,,,,,,,,,,,
5e625e452a6dce000bf8f7a7,2023-06-16_13h56.44.842,phx_ver10,2022.2.5,Win32,60.03842459,,,,,space,0.1719,0,44,44,2,1,3,training,zh2x,a,zh2x_a,zh2x_2_azha.wav,,azha.jpg,,,,,,,,,,,,,,,,,,,,,,,,,,,,,,,,,
5e625e452a6dce000bf8f7a7,2023-06-16_13h56.44.842,phx_ver10,2022.2.5,Win32,60.03842459,,,,,space,0.0627,0,45,45,32,1,33,training,zh2x,i,zh2x_i,zh2x_1_izhi.wav,,izhi.jpg,,,,,,,,,,,,,,,,,,,,,,,,,,,,,,,,,
5e625e452a6dce000bf8f7a7,2023-06-16_13h56.44.842,phx_ver10,2022.2.5,Win32,60.03842459,,,,,space,0.2678,0,46,46,43,1,44,training,zh2x,i,zh2x_i,zh2x_7_ixi.wav,,ixi.jpg,,,,,,,,,,,,,,,,,,,,,,,,,,,,,,,,,
5e625e452a6dce000bf8f7a7,2023-06-16_13h56.44.842,phx_ver10,2022.2.5,Win32,60.03842459,,,,,space,0.2377,0,47,47,20,1,21,training,zh2x,e,zh2x_e,zh2x_2_ezhe.wav,,ezhe.jpg,,,,,,,,,,,,,,,,,,,,,,,,,,,,,,,,,
5e625e452a6dce000bf8f7a7,2023-06-16_13h56.44.842,phx_ver10,2022.2.5,Win32,60.03842459,,,,,,,,,,,,,attn_test,,,,zh2x_1_azha.wav,zh2x_8_exe.wav,azha.jpg,LEFT,,f,0.1869,space,0.4212,,,,,,,,,,,,,,,,,,,,,,,,,,,
5e625e452a6dce000bf8f7a7,2023-06-16_13h56.44.842,phx_ver10,2022.2.5,Win32,60.03842459,,,,,,,,,,,,,,,,,,,,,,,,,,,,,,,space,0.6535,,,,,,,,,,,,,,,,,,,,
5e625e452a6dce000bf8f7a7,2023-06-16_13h56.44.842,phx_ver10,2022.2.5,Win32,60.03842459,,,,,,,,,,,,,,,,,,,,,,,,,,,,,,,,,space,5.3168,,,,,,,,,,,,,,,,,,
5e625e452a6dce000bf8f7a7,2023-06-16_13h56.44.842,phx_ver10,2022.2.5,Win32,60.03842459,,,,,,,,,,,,5,testing_pre,,,,ihi.wav,ifi.wav,,FALSE,,,,,,,,,,,,,,,j,0.735,space,1.0687,0,0,0,4,1,,,,,,,,,
5e625e452a6dce000bf8f7a7,2023-06-16_13h56.44.842,phx_ver10,2022.2.5,Win32,60.03842459,,,,,,,,,,,,4,testing_pre,,,,eihei.wav,eihei.wav,,TRUE,,,,,,,,,,,,,,,j,3.9205,space,4.1256,0,1,1,3,1,,,,,,,,,
5e625e452a6dce000bf8f7a7,2023-06-16_13h56.44.842,phx_ver10,2022.2.5,Win32,60.03842459,,,,,,,,,,,,3,testing_pre,,,,afa.wav,aha.wav,,FALSE,,,,,,,,,,,,,,,j,0.3666,space,0.6505,0,2,2,2,1,,,,,,,,,
5e625e452a6dce000bf8f7a7,2023-06-16_13h56.44.842,phx_ver10,2022.2.5,Win32,60.03842459,,,,,,,,,,,,2,testing_pre,,,,auhau.wav,aufau.wav,,FALSE,,,,,,,,,,,,,,,j,0.1086,space,0.341400001,0,3,3,1,1,,,,,,,,,
5e625e452a6dce000bf8f7a7,2023-06-16_13h56.44.842,phx_ver10,2022.2.5,Win32,60.03842459,,,,,,,,,,,,1,testing_pre,,,,ifi.wav,ifi.wav,,TRUE,,,,,,,,,,,,,,,f,0.067200001,space,0.3795,0,4,4,0,1,,,,,,,,,
5e625e452a6dce000bf8f7a7,2023-06-16_13h56.44.842,phx_ver10,2022.2.5,Win32,60.03842459,,,,,,,,,,,,,,,,,,,,,,,,,,,,,,,,,,,,,,,,,,,,space,0.5021,,,,,,,
5e625e452a6dce000bf8f7a7,2023-06-16_13h56.44.842,phx_ver10,2022.2.5,Win32,60.03842459,,,,,,,,,,,,141,testing_3,sh2j,i,sh2j_i,sh2j_1_ishi.wav,sh2j_1_ishi.wav,,TRUE,FALSE,,,,,,,,,,,,,,f,0.2197,space,0.487099999,,,,,,,,0,0,0,140,1,,
5e625e452a6dce000bf8f7a7,2023-06-16_13h56.44.842,phx_ver10,2022.2.5,Win32,60.03842459,,,,,,,,,,,,24,testing_2,zh2x,ei,zh2x_ei,zh2x_8_eixei.wav,zh2x_1_eizhei.wav,,FALSE,FALSE,,,,,,,,,,,,,,j,0.4265,space,0.6607,,,,,,,,0,1,1,23,1,,
5e625e452a6dce000bf8f7a7,2023-06-16_13h56.44.842,phx_ver10,2022.2.5,Win32,60.03842459,,,,,,,,,,,,110,testing_3,sh2x,e,sh2x_e,sh2x_8_exe.wav,sh2x_8_exe.wav,,TRUE,FALSE,,,,,,,,,,,,,,f,0.113,space,0.3847,,,,,,,,0,2,2,109,1,,
5e625e452a6dce000bf8f7a7,2023-06-16_13h56.44.842,phx_ver10,2022.2.5,Win32,60.03842459,,,,,,,,,,,,72,testing_3,zh2j,i,zh2j_i,zh2j_8_iji.wav,zh2j_1_izhi.wav,,FALSE,FALSE,,,,,,,,,,,,,,f,0.0921,space,0.316,,,,,,,,0,3,3,71,1,,
5e625e452a6dce000bf8f7a7,2023-06-16_13h56.44.842,phx_ver10,2022.2.5,Win32,60.03842459,,,,,,,,,,,,112,testing_3,sh2x,e,sh2x_e,sh2x_8_exe.wav,sh2x_1_eshe.wav,,FALSE,FALSE,,,,,,,,,,,,,,f,0.0734,space,0.2652,,,,,,,,0,4,4,111,1,,
5e625e452a6dce000bf8f7a7,2023-06-16_13h56.44.842,phx_ver10,2022.2.5,Win32,60.03842459,,,,,,,,,,,,60,testing_3,zh2j,au,zh2j_au,zh2j_8_aujau.wav,zh2j_1_auzhau.wav,,FALSE,FALSE,,,,,,,,,,,,,,f,0.104599999,space,0.3009,,,,,,,,0,5,5,59,1,,
5e625e452a6dce000bf8f7a7,2023-06-16_13h56.44.842,phx_ver10,2022.2.5,Win32,60.03842459,,,,,,,,,,,,143,testing_3,sh2j,i,sh2j_i,sh2j_1_ishi.wav,sh2j_8_iji.wav,,FALSE,FALSE,,,,,,,,,,,,,,j,0.194,space,0.4507,,,,,,,,0,6,6,142,1,,
5e625e452a6dce000bf8f7a7,2023-06-16_13h56.44.842,phx_ver10,2022.2.5,Win32,60.03842459,,,,,,,,,,,,135,testing_3,sh2j,e,sh2j_e,sh2j_1_eshe.wav,sh2j_8_eje.wav,,FALSE,FALSE,,,,,,,,,,,,,,j,0.186900001,space,0.354400001,,,,,,,,0,7,7,134,1,,
5e625e452a6dce000bf8f7a7,2023-06-16_13h56.44.842,phx_ver10,2022.2.5,Win32,60.03842459,,,,,,,,,,,,85,testing_3,j2x,e,j2x_e,j2x_1_eje.wav,j2x_1_eje.wav,,TRUE,FALSE,,,,,,,,,,,,,,f,0.108,space,0.304400001,,,,,,,,0,8,8,84,1,,
5e625e452a6dce000bf8f7a7,2023-06-16_13h56.44.842,phx_ver10,2022.2.5,Win32,60.03842459,,,,,,,,,,,,54,testing_3,zh2j,ai,zh2j_ai,zh2j_8_aijai.wav,zh2j_8_aijai.wav,,TRUE,FALSE,,,,,,,,,,,,,,f,0.071,space,0.2107,,,,,,,,0,9,9,53,1,,
5e625e452a6dce000bf8f7a7,2023-06-16_13h56.44.842,phx_ver10,2022.2.5,Win32,60.03842459,,,,,,,,,,,,117,testing_3,sh2x,i,sh2x_i,sh2x_1_ishi.wav,sh2x_1_ishi.wav,,TRUE,FALSE,,,,,,,,,,,,,,f,0.0551,space,0.1772,,,,,,,,0,10,10,116,1,,
5e625e452a6dce000bf8f7a7,2023-06-16_13h56.44.842,phx_ver10,2022.2.5,Win32,60.03842459,,,,,,,,,,,,36,testing_3,zh2sh,au,zh2sh_au,zh2sh_8_aushau.wav,zh2sh_1_auzhau.wav,,FALSE,FALSE,,,,,,,,,,,,,,j,0.3171,space,0.6405,,,,,,,,0,11,11,35,1,,
5e625e452a6dce000bf8f7a7,2023-06-16_13h56.44.842,phx_ver10,2022.2.5,Win32,60.03842459,,,,,,,,,,,,35,testing_3,zh2sh,au,zh2sh_au,zh2sh_1_auzhau.wav,zh2sh_8_aushau.wav,,FALSE,FALSE,,,,,,,,,,,,,,j,0.1507,space,0.3366,,,,,,,,0,12,12,34,1,,
5e625e452a6dce000bf8f7a7,2023-06-16_13h56.44.842,phx_ver10,2022.2.5,Win32,60.03842459,,,,,,,,,,,,119,testing_3,sh2x,i,sh2x_i,sh2x_1_ishi.wav,sh2x_8_ixi.wav,,FALSE,FALSE,,,,,,,,,,,,,,f,0.0187,space,0.2335,,,,,,,,0,13,13,118,1,,
5e625e452a6dce000bf8f7a7,2023-06-16_13h56.44.842,phx_ver10,2022.2.5,Win32,60.03842459,,,,,,,,,,,,142,testing_3,sh2j,i,sh2j_i,sh2j_8_iji.wav,sh2j_8_iji.wav,,TRUE,FALSE,,,,,,,,,,,,,,f,0.082,space,0.5322,,,,,,,,0,14,14,141,1,,
5e625e452a6dce000bf8f7a7,2023-06-16_13h56.44.842,phx_ver10,2022.2.5,Win32,60.03842459,,,,,,,,,,,,22,testing_2,zh2x,ei,zh2x_ei,zh2x_8_eixei.wav,zh2x_8_eixei.wav,,TRUE,FALSE,,,,,,,,,,,,,,f,0.0742,space,0.2614,,,,,,,,0,15,15,21,1,,
5e625e452a6dce000bf8f7a7,2023-06-16_13h56.44.842,phx_ver10,2022.2.5,Win32,60.03842459,,,,,,,,,,,,76,testing_3,j2x,a,j2x_a,j2x_8_axa.wav,j2x_1_aja.wav,,FALSE,FALSE,,,,,,,,,,,,,,j,0.734,space,1.0201,,,,,,,,0,16,16,75,1,,
5e625e452a6dce000bf8f7a7,2023-06-16_13h56.44.842,phx_ver10,2022.2.5,Win32,60.03842459,,,,,,,,,,,,81,testing_3,j2x,au,j2x_au,j2x_1_aujau.wav,j2x_1_aujau.wav,,TRUE,FALSE,,,,,,,,,,,,,,f,0.0507,space,0.2007,,,,,,,,0,17,17,80,1,,
5e625e452a6dce000bf8f7a7,2023-06-16_13h56.44.842,phx_ver10,2022.2.5,Win32,60.03842459,,,,,,,,,,,,107,testing_3,sh2x,au,sh2x_au,sh2x_1_aushau.wav,sh2x_8_auxau.wav,,FALSE,FALSE,,,,,,,,,,,,,,f,0.1608,space,0.287900001,,,,,,,,0,18,18,106,1,,
5e625e452a6dce000bf8f7a7,2023-06-16_13h56.44.842,phx_ver10,2022.2.5,Win32,60.03842459,,,,,,,,,,,,20,testing_2,zh2x,au,zh2x_au,zh2x_8_auxau.wav,zh2x_1_auzhau.wav,,FALSE,FALSE,,,,,,,,,,,,,,j,0.0686,space,0.2203,,,,,,,,0,19,19,19,1,,
5e625e452a6dce000bf8f7a7,2023-06-16_13h56.44.842,phx_ver10,2022.2.5,Win32,60.03842459,,,,,,,,,,,,49,testing_3,zh2j,a,zh2j_a,zh2j_1_azha.wav,zh2j_1_azha.wav,,TRUE,FALSE,,,,,,,,,,,,,,f,0.0698,space,0.2536,,,,,,,,0,20,20,48,1,,
5e625e452a6dce000bf8f7a7,2023-06-16_13h56.44.842,phx_ver10,2022.2.5,Win32,60.03842459,,,,,,,,,,,,39,testing_3,zh2sh,e,zh2sh_e,zh2sh_1_ezhe.wav,zh2sh_8_eshe.wav,,FALSE,FALSE,,,,,,,,,,,,,,j,0.418599999,space,0.6343,,,,,,,,0,21,21,38,1,,
5e625e452a6dce000bf8f7a7,2023-06-16_13h56.44.842,phx_ver10,2022.2.5,Win32,60.03842459,,,,,,,,,,,,75,testing_3,j2x,a,j2x_a,j2x_1_aja.wav,j2x_8_axa.wav,,FALSE,FALSE,,,,,,,,,,,,,,f,0.092900001,space,0.2271,,,,,,,,0,22,22,74,1,,
5e625e452a6dce000bf8f7a7,2023-06-16_13h56.44.842,phx_ver10,2022.2.5,Win32,60.03842459,,,,,,,,,,,,93,testing_3,j2x,i,j2x_i,j2x_1_iji.wav,j2x_1_iji.wav,,TRUE,FALSE,,,,,,,,,,,,,,f,0.0858,space,0.250900001,,,,,,,,0,23,23,92,1,,
5e625e452a6dce000bf8f7a7,2023-06-16_13h56.44.842,phx_ver10,2022.2.5,Win32,60.03842459,,,,,,,,,,,,121,testing_3,sh2j,a,sh2j_a,sh2j_1_asha.wav,sh2j_1_asha.wav,,TRUE,FALSE,,,,,,,,,,,,,,f,0.095400001,space,0.2071,,,,,,,,0,24,24,120,1,,
5e625e452a6dce000bf8f7a7,2023-06-16_13h56.44.842,phx_ver10,2022.2.5,Win32,60.03842459,,,,,,,,,,,,43,testing_3,zh2sh,ei,zh2sh_ei,zh2sh_1_eizhei.wav,zh2sh_8_eishei.wav,,FALSE,FALSE,,,,,,,,,,,,,,j,0.073099999,space,0.2452,,,,,,,,0,25,25,42,1,,
5e625e452a6dce000bf8f7a7,2023-06-16_13h56.44.842,phx_ver10,2022.2.5,Win32,60.03842459,,,,,,,,,,,,106,testing_3,sh2x,au,sh2x_au,sh2x_8_auxau.wav,sh2x_8_auxau.wav,,TRUE,FALSE,,,,,,,,,,,,,,f,0.12,space,0.203799999,,,,,,,,0,26,26,105,1,,
5e625e452a6dce000bf8f7a7,2023-06-16_13h56.44.842,phx_ver10,2022.2.5,Win32,60.03842459,,,,,,,,,,,,101,testing_3,sh2x,ai,sh2x_ai,sh2x_1_aishai.wav,sh2x_1_aishai.wav,,TRUE,FALSE,,,,,,,,,,,,,,f,0.0272,space,0.153299999,,,,,,,,0,27,27,100,1,,
5e625e452a6dce000bf8f7a7,2023-06-16_13h56.44.842,phx_ver10,2022.2.5,Win32,60.03842459,,,,,,,,,,,,113,testing_3,sh2x,ei,sh2x_ei,sh2x_1_eishei.wav,sh2x_1_eishei.wav,,TRUE,FALSE,,,,,,,,,,,,,,f,0.1,space,0.250599999,,,,,,,,0,28,28,112,1,,
5e625e452a6dce000bf8f7a7,2023-06-16_13h56.44.842,phx_ver10,2022.2.5,Win32,60.03842459,,,,,,,,,,,,1,testing_1,zh2x,a,zh2x_a,zh2x_1_azha.wav,zh2x_1_azha_copy.wav,,TRUE,TRUE,,,,,,,,,,,,,,f,0.0717,space,0.2173,,,,,,,,0,29,29,0,1,,
5e625e452a6dce000bf8f7a7,2023-06-16_13h56.44.842,phx_ver10,2022.2.5,Win32,60.03842459,,,,,,,,,,,,105,testing_3,sh2x,au,sh2x_au,sh2x_1_aushau.wav,sh2x_1_aushau.wav,,TRUE,FALSE,,,,,,,,,,,,,,f,0.022599999,space,0.158099999,,,,,,,,0,30,30,104,1,,
5e625e452a6dce000bf8f7a7,2023-06-16_13h56.44.842,phx_ver10,2022.2.5,Win32,60.03842459,,,,,,,,,,,,133,testing_3,sh2j,e,sh2j_e,sh2j_1_eshe.wav,sh2j_1_eshe.wav,,TRUE,FALSE,,,,,,,,,,,,,,f,0.0875,space,0.2002,,,,,,,,0,31,31,132,1,,
5e625e452a6dce000bf8f7a7,2023-06-16_13h56.44.842,phx_ver10,2022.2.5,Win32,60.03842459,,,,,,,,,,,,96,testing_3,j2x,i,j2x_i,j2x_8_ixi.wav,j2x_1_iji.wav,,FALSE,FALSE,,,,,,,,,,,,,,j,0.0679,space,0.2284,,,,,,,,0,32,32,95,1,,
5e625e452a6dce000bf8f7a7,2023-06-16_13h56.44.842,phx_ver10,2022.2.5,Win32,60.03842459,,,,,,,,,,,,128,testing_3,sh2j,ai,sh2j_ai,sh2j_8_aijai.wav,sh2j_1_aishai.wav,,FALSE,FALSE,,,,,,,,,,,,,,j,0.4866,space,0.6506,,,,,,,,0,33,33,127,1,,
5e625e452a6dce000bf8f7a7,2023-06-16_13h56.44.842,phx_ver10,2022.2.5,Win32,60.03842459,,,,,,,,,,,,139,testing_3,sh2j,ei,sh2j_ei,sh2j_1_eishei.wav,sh2j_8_eijei.wav,,FALSE,FALSE,,,,,,,,,,,,,,j,0.106900001,space,0.275900001,,,,,,,,0,34,34,138,1,,
5e625e452a6dce000bf8f7a7,2023-06-16_13h56.44.842,phx_ver10,2022.2.5,Win32,60.03842459,,,,,,,,,,,,7,testing_1,zh2x,e,zh2x_e,zh2x_1_ezhe.wav,zh2x_8_exe.wav,,FALSE,TRUE,,,,,,,,,,,,,,j,0.0275,space,0.177099999,,,,,,,,0,35,35,6,1,,
5e625e452a6dce000bf8f7a7,2023-06-16_13h56.44.842,phx_ver10,2022.2.5,Win32,60.03842459,,,,,,,,,,,,74,testing_3,j2x,a,j2x_a,j2x_8_axa.wav,j2x_8_axa.wav,,TRUE,FALSE,,,,,,,,,,,,,,f,0.0415,space,0.176599999,,,,,,,,0,36,36,73,1,,
5e625e452a6dce000bf8f7a7,2023-06-16_13h56.44.842,phx_ver10,2022.2.5,Win32,60.03842459,,,,,,,,,,,,26,testing_3,zh2sh,a,zh2sh_a,zh2sh_8_asha.wav,zh2sh_8_asha.wav,,TRUE,FALSE,,,,,,,,,,,,,,f,0.083599999,space,0.19,,,,,,,,0,37,37,25,1,,
5e625e452a6dce000bf8f7a7,2023-06-16_13h56.44.842,phx_ver10,2022.2.5,Win32,60.03842459,,,,,,,,,,,,23,testing_2,zh2x,ei,zh2x_ei,zh2x_1_eizhei.wav,zh2x_8_eixei.wav,,FALSE,FALSE,,,,,,,,,,,,,,j,0.151,space,0.266599999,,,,,,,,0,38,38,22,1,,
5e625e452a6dce000bf8f7a7,2023-06-16_13h56.44.842,phx_ver10,2022.2.5,Win32,60.03842459,,,,,,,,,,,,108,testing_3,sh2x,au,sh2x_au,sh2x_8_auxau.wav,sh2x_1_aushau.wav,,FALSE,FALSE,,,,,,,,,,,,,,f,0.1247,space,0.2342,,,,,,,,0,39,39,107,1,,
5e625e452a6dce000bf8f7a7,2023-06-16_13h56.44.842,phx_ver10,2022.2.5,Win32,60.03842459,,,,,,,,,,,,15,testing_2,zh2x,ai,zh2x_ai,zh2x_1_aizhai.wav,zh2x_8_aixai.wav,,FALSE,FALSE,,,,,,,,,,,,,,j,0.1199,space,0.27,,,,,,,,0,40,40,14,1,,
5e625e452a6dce000bf8f7a7,2023-06-16_13h56.44.842,phx_ver10,2022.2.5,Win32,60.03842459,,,,,,,,,,,,32,testing_3,zh2sh,ai,zh2sh_ai,zh2sh_8_aishai.wav,zh2sh_1_aizhai.wav,,FALSE,FALSE,,,,,,,,,,,,,,j,0.0085,space,0.1794,,,,,,,,0,41,41,31,1,,
5e625e452a6dce000bf8f7a7,2023-06-16_13h56.44.842,phx_ver10,2022.2.5,Win32,60.03842459,,,,,,,,,,,,111,testing_3,sh2x,e,sh2x_e,sh2x_1_eshe.wav,sh2x_8_exe.wav,,FALSE,FALSE,,,,,,,,,,,,,,f,0.0671,space,0.2026,,,,,,,,0,42,42,110,1,,
5e625e452a6dce000bf8f7a7,2023-06-16_13h56.44.842,phx_ver10,2022.2.5,Win32,60.03842459,,,,,,,,,,,,130,testing_3,sh2j,au,sh2j_au,sh2j_8_aujau.wav,sh2j_8_aujau.wav,,TRUE,FALSE,,,,,,,,,,,,,,f,0.047900001,space,0.1242,,,,,,,,0,43,43,129,1,,
5e625e452a6dce000bf8f7a7,2023-06-16_13h56.44.842,phx_ver10,2022.2.5,Win32,60.03842459,,,,,,,,,,,,129,testing_3,sh2j,au,sh2j_au,sh2j_1_aushau.wav,sh2j_1_aushau.wav,,TRUE,FALSE,,,,,,,,,,,,,,f,0.102400001,space,0.159,,,,,,,,0,44,44,128,1,,
5e625e452a6dce000bf8f7a7,2023-06-16_13h56.44.842,phx_ver10,2022.2.5,Win32,60.03842459,,,,,,,,,,,,56,testing_3,zh2j,ai,zh2j_ai,zh2j_8_aijai.wav,zh2j_1_aizhai.wav,,FALSE,FALSE,,,,,,,,,,,,,,f,0.0118,space,0.1392,,,,,,,,0,45,45,55,1,,
5e625e452a6dce000bf8f7a7,2023-06-16_13h56.44.842,phx_ver10,2022.2.5,Win32,60.03842459,,,,,,,,,,,,18,testing_2,zh2x,au,zh2x_au,zh2x_8_auxau.wav,zh2x_8_auxau.wav,,TRUE,FALSE,,,,,,,,,,,,,,f,0.0842,space,0.1666,,,,,,,,0,46,46,17,1,,
5e625e452a6dce000bf8f7a7,2023-06-16_13h56.44.842,phx_ver10,2022.2.5,Win32,60.03842459,,,,,,,,,,,,51,testing_3,zh2j,a,zh2j_a,zh2j_1_azha.wav,zh2j_8_aja.wav,,FALSE,FALSE,,,,,,,,,,,,,,f,0.0835,space,0.1726,,,,,,,,0,47,47,50,1,,
5e625e452a6dce000bf8f7a7,2023-06-16_13h56.44.842,phx_ver10,2022.2.5,Win32,60.03842459,,,,,,,,,,,,124,testing_3,sh2j,a,sh2j_a,sh2j_8_aja.wav,sh2j_1_asha.wav,,FALSE,FALSE,,,,,,,,,,,,,,j,0.0553,space,0.2178,,,,,,,,0,48,48,123,1,,
5e625e452a6dce000bf8f7a7,2023-06-16_13h56.44.842,phx_ver10,2022.2.5,Win32,60.03842459,,,,,,,,,,,,83,testing_3,j2x,au,j2x_au,j2x_1_aujau.wav,j2x_8_auxau.wav,,FALSE,FALSE,,,,,,,,,,,,,,j,0.9507,space,1.0264,,,,,,,,0,49,49,82,1,,
5e625e452a6dce000bf8f7a7,2023-06-16_13h56.44.842,phx_ver10,2022.2.5,Win32,60.03842459,,,,,,,,,,,,134,testing_3,sh2j,e,sh2j_e,sh2j_8_eje.wav,sh2j_8_eje.wav,,TRUE,FALSE,,,,,,,,,,,,,,f,0.0829,space,0.2195,,,,,,,,0,50,50,133,1,,
5e625e452a6dce000bf8f7a7,2023-06-16_13h56.44.842,phx_ver10,2022.2.5,Win32,60.03842459,,,,,,,,,,,,82,testing_3,j2x,au,j2x_au,j2x_8_auxau.wav,j2x_8_auxau.wav,,TRUE,FALSE,,,,,,,,,,,,,,f,0.0842,space,0.2009,,,,,,,,0,51,51,81,1,,
5e625e452a6dce000bf8f7a7,2023-06-16_13h56.44.842,phx_ver10,2022.2.5,Win32,60.03842459,,,,,,,,,,,,67,testing_3,zh2j,ei,zh2j_ei,zh2j_1_eizhei.wav,zh2j_8_eijei.wav,,FALSE,FALSE,,,,,,,,,,,,,,f,0.4863,space,0.6462,,,,,,,,0,52,52,66,1,,
5e625e452a6dce000bf8f7a7,2023-06-16_13h56.44.842,phx_ver10,2022.2.5,Win32,60.03842459,,,,,,,,,,,,131,testing_3,sh2j,au,sh2j_au,sh2j_1_aushau.wav,sh2j_8_aujau.wav,,FALSE,FALSE,,,,,,,,,,,,,,j,0.1282,space,0.2356,,,,,,,,0,53,53,130,1,,
5e625e452a6dce000bf8f7a7,2023-06-16_13h56.44.842,phx_ver10,2022.2.5,Win32,60.03842459,,,,,,,,,,,,71,testing_3,zh2j,i,zh2j_i,zh2j_1_izhi.wav,zh2j_8_iji.wav,,FALSE,FALSE,,,,,,,,,,,,,,f,0.4185,space,0.5557,,,,,,,,0,54,54,70,1,,
5e625e452a6dce000bf8f7a7,2023-06-16_13h56.44.842,phx_ver10,2022.2.5,Win32,60.03842459,,,,,,,,,,,,123,testing_3,sh2j,a,sh2j_a,sh2j_1_asha.wav,sh2j_8_aja.wav,,FALSE,FALSE,,,,,,,,,,,,,,j,0.1112,space,0.235599999,,,,,,,,0,55,55,122,1,,
5e625e452a6dce000bf8f7a7,2023-06-16_13h56.44.842,phx_ver10,2022.2.5,Win32,60.03842459,,,,,,,,,,,,19,testing_2,zh2x,au,zh2x_au,zh2x_1_auzhau.wav,zh2x_8_auxau.wav,,FALSE,FALSE,,,,,,,,,,,,,,j,0.2217,space,0.4074,,,,,,,,0,56,56,18,1,,
5e625e452a6dce000bf8f7a7,2023-06-16_13h56.44.842,phx_ver10,2022.2.5,Win32,60.03842459,,,,,,,,,,,,63,testing_3,zh2j,e,zh2j_e,zh2j_1_ezhe.wav,zh2j_8_eje.wav,,FALSE,FALSE,,,,,,,,,,,,,,f,0.1225,space,0.238599999,,,,,,,,0,57,57,62,1,,
5e625e452a6dce000bf8f7a7,2023-06-16_13h56.44.842,phx_ver10,2022.2.5,Win32,60.03842459,,,,,,,,,,,,94,testing_3,j2x,i,j2x_i,j2x_8_ixi.wav,j2x_8_ixi.wav,,TRUE,FALSE,,,,,,,,,,,,,,f,0.132900001,space,0.242,,,,,,,,0,58,58,93,1,,
5e625e452a6dce000bf8f7a7,2023-06-16_13h56.44.842,phx_ver10,2022.2.5,Win32,60.03842459,,,,,,,,,,,,50,testing_3,zh2j,a,zh2j_a,zh2j_8_aja.wav,zh2j_8_aja.wav,,TRUE,FALSE,,,,,,,,,,,,,,f,0.1335,space,0.2287,,,,,,,,0,59,59,49,1,,
5e625e452a6dce000bf8f7a7,2023-06-16_13h56.44.842,phx_ver10,2022.2.5,Win32,60.03842459,,,,,,,,,,,,48,testing_3,zh2sh,i,zh2sh_i,zh2sh_8_ishi.wav,zh2sh_1_izhi.wav,,FALSE,FALSE,,,,,,,,,,,,,,j,0.2283,space,0.3181,,,,,,,,0,60,60,47,1,,
5e625e452a6dce000bf8f7a7,2023-06-16_13h56.44.842,phx_ver10,2022.2.5,Win32,60.03842459,,,,,,,,,,,,46,testing_3,zh2sh,i,zh2sh_i,zh2sh_8_ishi.wav,zh2sh_8_ishi.wav,,TRUE,FALSE,,,,,,,,,,,,,,f,0.1263,space,0.2385,,,,,,,,0,61,61,45,1,,
5e625e452a6dce000bf8f7a7,2023-06-16_13h56.44.842,phx_ver10,2022.2.5,Win32,60.03842459,,,,,,,,,,,,61,testing_3,zh2j,e,zh2j_e,zh2j_1_ezhe.wav,zh2j_1_ezhe.wav,,TRUE,FALSE,,,,,,,,,,,,,,f,0.1258,space,0.277,,,,,,,,0,62,62,60,1,,
5e625e452a6dce000bf8f7a7,2023-06-16_13h56.44.842,phx_ver10,2022.2.5,Win32,60.03842459,,,,,,,,,,,,84,testing_3,j2x,au,j2x_au,j2x_8_auxau.wav,j2x_1_aujau.wav,,FALSE,FALSE,,,,,,,,,,,,,,f,0.236,space,0.336700001,,,,,,,,0,63,63,83,1,,
5e625e452a6dce000bf8f7a7,2023-06-16_13h56.44.842,phx_ver10,2022.2.5,Win32,60.03842459,,,,,,,,,,,,34,testing_3,zh2sh,au,zh2sh_au,zh2sh_8_aushau.wav,zh2sh_8_aushau.wav,,TRUE,FALSE,,,,,,,,,,,,,,f,0.1848,space,0.3018,,,,,,,,0,64,64,33,1,,
5e625e452a6dce000bf8f7a7,2023-06-16_13h56.44.842,phx_ver10,2022.2.5,Win32,60.03842459,,,,,,,,,,,,8,testing_1,zh2x,e,zh2x_e,zh2x_8_exe.wav,zh2x_1_ezhe.wav,,FALSE,TRUE,,,,,,,,,,,,,,j,0.124,space,0.288299999,,,,,,,,0,65,65,7,1,,
5e625e452a6dce000bf8f7a7,2023-06-16_13h56.44.842,phx_ver10,2022.2.5,Win32,60.03842459,,,,,,,,,,,,138,testing_3,sh2j,ei,sh2j_ei,sh2j_8_eijei.wav,sh2j_8_eijei.wav,,TRUE,FALSE,,,,,,,,,,,,,,f,0.1314,space,0.297599999,,,,,,,,0,66,66,137,1,,
5e625e452a6dce000bf8f7a7,2023-06-16_13h56.44.842,phx_ver10,2022.2.5,Win32,60.03842459,,,,,,,,,,,,80,testing_3,j2x,ai,j2x_ai,j2x_8_aixai.wav,j2x_1_aijai.wav,,FALSE,FALSE,,,,,,,,,,,,,,f,0.12,space,0.2025,,,,,,,,0,67,67,79,1,,
5e625e452a6dce000bf8f7a7,2023-06-16_13h56.44.842,phx_ver10,2022.2.5,Win32,60.03842459,,,,,,,,,,,,103,testing_3,sh2x,ai,sh2x_ai,sh2x_1_aishai.wav,sh2x_8_aixai.wav,,FALSE,FALSE,,,,,,,,,,,,,,f,0.156200001,space,0.2871,,,,,,,,0,68,68,102,1,,
5e625e452a6dce000bf8f7a7,2023-06-16_13h56.44.842,phx_ver10,2022.2.5,Win32,60.03842459,,,,,,,,,,,,137,testing_3,sh2j,ei,sh2j_ei,sh2j_1_eishei.wav,sh2j_1_eishei.wav,,TRUE,FALSE,,,,,,,,,,,,,,f,0.061099999,space,0.186400001,,,,,,,,0,69,69,136,1,,
5e625e452a6dce000bf8f7a7,2023-06-16_13h56.44.842,phx_ver10,2022.2.5,Win32,60.03842459,,,,,,,,,,,,120,testing_3,sh2x,i,sh2x_i,sh2x_8_ixi.wav,sh2x_1_ishi.wav,,FALSE,FALSE,,,,,,,,,,,,,,f,0.0907,space,0.2778,,,,,,,,0,70,70,119,1,,
5e625e452a6dce000bf8f7a7,2023-06-16_13h56.44.842,phx_ver10,2022.2.5,Win32,60.03842459,,,,,,,,,,,,66,testing_3,zh2j,ei,zh2j_ei,zh2j_8_eijei.wav,zh2j_8_eijei.wav,,TRUE,FALSE,,,,,,,,,,,,,,f,0.108099999,space,0.2006,,,,,,,,0,71,71,65,1,,
5e625e452a6dce000bf8f7a7,2023-06-16_13h56.44.842,phx_ver10,2022.2.5,Win32,60.03842459,,,,,,,,,,,,42,testing_3,zh2sh,ei,zh2sh_ei,zh2sh_8_eishei.wav,zh2sh_8_eishei.wav,,TRUE,FALSE,,,,,,,,,,,,,,f,0.1885,space,0.334599999,,,,,,,,0,72,72,41,1,,
5e625e452a6dce000bf8f7a7,2023-06-16_13h56.44.842,phx_ver10,2022.2.5,Win32,60.03842459,,,,,,,,,,,,40,testing_3,zh2sh,e,zh2sh_e,zh2sh_8_eshe.wav,zh2sh_1_ezhe.wav,,FALSE,FALSE,,,,,,,,,,,,,,j,0.158900001,space,0.320900001,,,,,,,,0,73,73,39,1,,
5e625e452a6dce000bf8f7a7,2023-06-16_13h56.44.842,phx_ver10,2022.2.5,Win32,60.03842459,,,,,,,,,,,,52,testing_3,zh2j,a,zh2j_a,zh2j_8_aja.wav,zh2j_1_azha.wav,,FALSE,FALSE,,,,,,,,,,,,,,f,0.1071,space,0.2264,,,,,,,,0,74,74,51,1,,
5e625e452a6dce000bf8f7a7,2023-06-16_13h56.44.842,phx_ver10,2022.2.5,Win32,60.03842459,,,,,,,,,,,,69,testing_3,zh2j,i,zh2j_i,zh2j_1_izhi.wav,zh2j_1_izhi.wav,,TRUE,FALSE,,,,,,,,,,,,,,f,0.219099999,space,0.3264,,,,,,,,0,75,75,68,1,,
5e625e452a6dce000bf8f7a7,2023-06-16_13h56.44.842,phx_ver10,2022.2.5,Win32,60.03842459,,,,,,,,,,,,109,testing_3,sh2x,e,sh2x_e,sh2x_1_eshe.wav,sh2x_1_eshe.wav,,TRUE,FALSE,,,,,,,,,,,,,,f,0.2532,space,0.375700001,,,,,,,,0,76,76,108,1,,
5e625e452a6dce000bf8f7a7,2023-06-16_13h56.44.842,phx_ver10,2022.2.5,Win32,60.03842459,,,,,,,,,,,,100,testing_3,sh2x,a,sh2x_a,sh2x_8_axa.wav,sh2x_1_asha.wav,,FALSE,FALSE,,,,,,,,,,,,,,f,0.2831,space,0.3972,,,,,,,,0,77,77,99,1,,
5e625e452a6dce000bf8f7a7,2023-06-16_13h56.44.842,phx_ver10,2022.2.5,Win32,60.03842459,,,,,,,,,,,,87,testing_3,j2x,e,j2x_e,j2x_1_eje.wav,j2x_8_exe.wav,,FALSE,FALSE,,,,,,,,,,,,,,j,0.1106,space,0.2347,,,,,,,,0,78,78,86,1,,
5e625e452a6dce000bf8f7a7,2023-06-16_13h56.44.842,phx_ver10,2022.2.5,Win32,60.03842459,,,,,,,,,,,,91,testing_3,j2x,ei,j2x_ei,j2x_1_eijei.wav,j2x_8_eixei.wav,,FALSE,FALSE,,,,,,,,,,,,,,j,0.1613,space,0.2725,,,,,,,,0,79,79,90,1,,
5e625e452a6dce000bf8f7a7,2023-06-16_13h56.44.842,phx_ver10,2022.2.5,Win32,60.03842459,,,,,,,,,,,,95,testing_3,j2x,i,j2x_i,j2x_1_iji.wav,j2x_8_ixi.wav,,FALSE,FALSE,,,,,,,,,,,,,,f,0.3556,space,0.4861,,,,,,,,0,80,80,94,1,,
5e625e452a6dce000bf8f7a7,2023-06-16_13h56.44.842,phx_ver10,2022.2.5,Win32,60.03842459,,,,,,,,,,,,27,testing_3,zh2sh,a,zh2sh_a,zh2sh_1_azha.wav,zh2sh_8_asha.wav,,FALSE,FALSE,,,,,,,,,,,,,,f,0.5735,space,0.6778,,,,,,,,0,81,81,26,1,,
5e625e452a6dce000bf8f7a7,2023-06-16_13h56.44.842,phx_ver10,2022.2.5,Win32,60.03842459,,,,,,,,,,,,144,testing_3,sh2j,i,sh2j_i,sh2j_8_iji.wav,sh2j_1_ishi.wav,,FALSE,FALSE,,,,,,,,,,,,,,j,0.2213,space,0.317700001,,,,,,,,0,82,82,143,1,,
5e625e452a6dce000bf8f7a7,2023-06-16_13h56.44.842,phx_ver10,2022.2.5,Win32,60.03842459,,,,,,,,,,,,86,testing_3,j2x,e,j2x_e,j2x_8_exe.wav,j2x_8_exe.wav,,TRUE,FALSE,,,,,,,,,,,,,,f,0.183799999,space,0.2909,,,,,,,,0,83,83,85,1,,
5e625e452a6dce000bf8f7a7,2023-06-16_13h56.44.842,phx_ver10,2022.2.5,Win32,60.03842459,,,,,,,,,,,,29,testing_3,zh2sh,ai,zh2sh_ai,zh2sh_1_aizhai.wav,zh2sh_1_aizhai.wav,,TRUE,FALSE,,,,,,,,,,,,,,f,0.3782,space,0.493099999,,,,,,,,0,84,84,28,1,,
5e625e452a6dce000bf8f7a7,2023-06-16_13h56.44.842,phx_ver10,2022.2.5,Win32,60.03842459,,,,,,,,,,,,92,testing_3,j2x,ei,j2x_ei,j2x_8_eixei.wav,j2x_1_eijei.wav,,FALSE,FALSE,,,,,,,,,,,,,,j,0.1667,space,0.2903,,,,,,,,0,85,85,91,1,,
5e625e452a6dce000bf8f7a7,2023-06-16_13h56.44.842,phx_ver10,2022.2.5,Win32,60.03842459,,,,,,,,,,,,38,testing_3,zh2sh,e,zh2sh_e,zh2sh_8_eshe.wav,zh2sh_8_eshe.wav,,TRUE,FALSE,,,,,,,,,,,,,,f,0.120299999,space,0.2249,,,,,,,,0,86,86,37,1,,
5e625e452a6dce000bf8f7a7,2023-06-16_13h56.44.842,phx_ver10,2022.2.5,Win32,60.03842459,,,,,,,,,,,,30,testing_3,zh2sh,ai,zh2sh_ai,zh2sh_8_aishai.wav,zh2sh_8_aishai.wav,,TRUE,FALSE,,,,,,,,,,,,,,f,0.1562,space,0.2256,,,,,,,,0,87,87,29,1,,
5e625e452a6dce000bf8f7a7,2023-06-16_13h56.44.842,phx_ver10,2022.2.5,Win32,60.03842459,,,,,,,,,,,,78,testing_3,j2x,ai,j2x_ai,j2x_8_aixai.wav,j2x_8_aixai.wav,,TRUE,FALSE,,,,,,,,,,,,,,f,0.35,space,0.456700001,,,,,,,,0,88,88,77,1,,
5e625e452a6dce000bf8f7a7,2023-06-16_13h56.44.842,phx_ver10,2022.2.5,Win32,60.03842459,,,,,,,,,,,,62,testing_3,zh2j,e,zh2j_e,zh2j_8_eje.wav,zh2j_8_eje.wav,,TRUE,FALSE,,,,,,,,,,,,,,f,0.1017,space,0.192,,,,,,,,0,89,89,61,1,,
5e625e452a6dce000bf8f7a7,2023-06-16_13h56.44.842,phx_ver10,2022.2.5,Win32,60.03842459,,,,,,,,,,,,4,testing_1,zh2x,a,zh2x_a,zh2x_8_axa.wav,zh2x_1_azha.wav,,FALSE,TRUE,,,,,,,,,,,,,,j,0.026,space,0.342099999,,,,,,,,0,90,90,3,1,,
5e625e452a6dce000bf8f7a7,2023-06-16_13h56.44.842,phx_ver10,2022.2.5,Win32,60.03842459,,,,,,,,,,,,65,testing_3,zh2j,ei,zh2j_ei,zh2j_1_eizhei.wav,zh2j_1_eizhei.wav,,TRUE,FALSE,,,,,,,,,,,,,,f,0.083700001,space,0.1439,,,,,,,,0,91,91,64,1,,
5e625e452a6dce000bf8f7a7,2023-06-16_13h56.44.842,phx_ver10,2022.2.5,Win32,60.03842459,,,,,,,,,,,,14,testing_2,zh2x,ai,zh2x_ai,zh2x_8_aixai.wav,zh2x_8_aixai.wav,,TRUE,FALSE,,,,,,,,,,,,,,f,0.1508,space,0.2535,,,,,,,,0,92,92,13,1,,
5e625e452a6dce000bf8f7a7,2023-06-16_13h56.44.842,phx_ver10,2022.2.5,Win32,60.03842459,,,,,,,,,,,,41,testing_3,zh2sh,ei,zh2sh_ei,zh2sh_1_eizhei.wav,zh2sh_1_eizhei.wav,,TRUE,FALSE,,,,,,,,,,,,,,f,0.270900001,space,0.3858,,,,,,,,0,93,93,40,1,,
5e625e452a6dce000bf8f7a7,2023-06-16_13h56.44.842,phx_ver10,2022.2.5,Win32,60.03842459,,,,,,,,,,,,140,testing_3,sh2j,ei,sh2j_ei,sh2j_8_eijei.wav,sh2j_1_eishei.wav,,FALSE,FALSE,,,,,,,,,,,,,,j,0.042,space,0.182700001,,,,,,,,0,94,94,139,1,,
5e625e452a6dce000bf8f7a7,2023-06-16_13h56.44.842,phx_ver10,2022.2.5,Win32,60.03842459,,,,,,,,,,,,55,testing_3,zh2j,ai,zh2j_ai,zh2j_1_aizhai.wav,zh2j_8_aijai.wav,,FALSE,FALSE,,,,,,,,,,,,,,f,0.034799999,space,0.168099999,,,,,,,,0,95,95,54,1,,
5e625e452a6dce000bf8f7a7,2023-06-16_13h56.44.842,phx_ver10,2022.2.5,Win32,60.03842459,,,,,,,,,,,,122,testing_3,sh2j,a,sh2j_a,sh2j_8_aja.wav,sh2j_8_aja.wav,,TRUE,FALSE,,,,,,,,,,,,,,f,0.1011,space,0.2206,,,,,,,,0,96,96,121,1,,
5e625e452a6dce000bf8f7a7,2023-06-16_13h56.44.842,phx_ver10,2022.2.5,Win32,60.03842459,,,,,,,,,,,,115,testing_3,sh2x,ei,sh2x_ei,sh2x_1_eishei.wav,sh2x_8_eixei.wav,,FALSE,FALSE,,,,,,,,,,,,,,f,0.1337,space,0.2006,,,,,,,,0,97,97,114,1,,
5e625e452a6dce000bf8f7a7,2023-06-16_13h56.44.842,phx_ver10,2022.2.5,Win32,60.03842459,,,,,,,,,,,,12,testing_1,zh2x,i,zh2x_i,zh2x_8_ixi.wav,zh2x_1_izhi.wav,,FALSE,TRUE,,,,,,,,,,,,,,j,0.635599999,space,0.7572,,,,,,,,0,98,98,11,1,,
5e625e452a6dce000bf8f7a7,2023-06-16_13h56.44.842,phx_ver10,2022.2.5,Win32,60.03842459,,,,,,,,,,,,125,testing_3,sh2j,ai,sh2j_ai,sh2j_1_aishai.wav,sh2j_1_aishai.wav,,TRUE,FALSE,,,,,,,,,,,,,,f,0.3687,space,0.4442,,,,,,,,0,99,99,124,1,,
5e625e452a6dce000bf8f7a7,2023-06-16_13h56.44.842,phx_ver10,2022.2.5,Win32,60.03842459,,,,,,,,,,,,114,testing_3,sh2x,ei,sh2x_ei,sh2x_8_eixei.wav,sh2x_8_eixei.wav,,TRUE,FALSE,,,,,,,,,,,,,,f,0.0716,space,0.1773,,,,,,,,0,100,100,113,1,,
5e625e452a6dce000bf8f7a7,2023-06-16_13h56.44.842,phx_ver10,2022.2.5,Win32,60.03842459,,,,,,,,,,,,68,testing_3,zh2j,ei,zh2j_ei,zh2j_8_eijei.wav,zh2j_1_eizhei.wav,,FALSE,FALSE,,,,,,,,,,,,,,f,0.068,space,0.1549,,,,,,,,0,101,101,67,1,,
5e625e452a6dce000bf8f7a7,2023-06-16_13h56.44.842,phx_ver10,2022.2.5,Win32,60.03842459,,,,,,,,,,,,59,testing_3,zh2j,au,zh2j_au,zh2j_1_auzhau.wav,zh2j_8_aujau.wav,,FALSE,FALSE,,,,,,,,,,,,,,f,0.018,space,0.109099999,,,,,,,,0,102,102,58,1,,
5e625e452a6dce000bf8f7a7,2023-06-16_13h56.44.842,phx_ver10,2022.2.5,Win32,60.03842459,,,,,,,,,,,,31,testing_3,zh2sh,ai,zh2sh_ai,zh2sh_1_aizhai.wav,zh2sh_8_aishai.wav,,FALSE,FALSE,,,,,,,,,,,,,,j,0.005,space,0.1837,,,,,,,,0,103,103,30,1,,
5e625e452a6dce000bf8f7a7,2023-06-16_13h56.44.842,phx_ver10,2022.2.5,Win32,60.03842459,,,,,,,,,,,,70,testing_3,zh2j,i,zh2j_i,zh2j_8_iji.wav,zh2j_8_iji.wav,,TRUE,FALSE,,,,,,,,,,,,,,f,0.1175,space,0.266700001,,,,,,,,0,104,104,69,1,,
5e625e452a6dce000bf8f7a7,2023-06-16_13h56.44.842,phx_ver10,2022.2.5,Win32,60.03842459,,,,,,,,,,,,127,testing_3,sh2j,ai,sh2j_ai,sh2j_1_aishai.wav,sh2j_8_aijai.wav,,FALSE,FALSE,,,,,,,,,,,,,,j,0.0745,space,0.2393,,,,,,,,0,105,105,126,1,,
5e625e452a6dce000bf8f7a7,2023-06-16_13h56.44.842,phx_ver10,2022.2.5,Win32,60.03842459,,,,,,,,,,,,45,testing_3,zh2sh,i,zh2sh_i,zh2sh_1_izhi.wav,zh2sh_1_izhi.wav,,TRUE,FALSE,,,,,,,,,,,,,,f,0.066799999,space,0.1819,,,,,,,,0,106,106,44,1,,
5e625e452a6dce000bf8f7a7,2023-06-16_13h56.44.842,phx_ver10,2022.2.5,Win32,60.03842459,,,,,,,,,,,,25,testing_3,zh2sh,a,zh2sh_a,zh2sh_1_azha.wav,zh2sh_1_azha.wav,,TRUE,FALSE,,,,,,,,,,,,,,f,0.1958,space,0.3022,,,,,,,,0,107,107,24,1,,
5e625e452a6dce000bf8f7a7,2023-06-16_13h56.44.842,phx_ver10,2022.2.5,Win32,60.03842459,,,,,,,,,,,,64,testing_3,zh2j,e,zh2j_e,zh2j_8_eje.wav,zh2j_1_ezhe.wav,,FALSE,FALSE,,,,,,,,,,,,,,f,0.0616,space,0.1889,,,,,,,,0,108,108,63,1,,
5e625e452a6dce000bf8f7a7,2023-06-16_13h56.44.842,phx_ver10,2022.2.5,Win32,60.03842459,,,,,,,,,,,,102,testing_3,sh2x,ai,sh2x_ai,sh2x_8_aixai.wav,sh2x_8_aixai.wav,,TRUE,FALSE,,,,,,,,,,,,,,f,0.0253,space,0.1565,,,,,,,,0,109,109,101,1,,
5e625e452a6dce000bf8f7a7,2023-06-16_13h56.44.842,phx_ver10,2022.2.5,Win32,60.03842459,,,,,,,,,,,,16,testing_2,zh2x,ai,zh2x_ai,zh2x_8_aixai.wav,zh2x_1_aizhai.wav,,FALSE,FALSE,,,,,,,,,,,,,,j,0.052,space,0.184099999,,,,,,,,0,110,110,15,1,,
5e625e452a6dce000bf8f7a7,2023-06-16_13h56.44.842,phx_ver10,2022.2.5,Win32,60.03842459,,,,,,,,,,,,47,testing_3,zh2sh,i,zh2sh_i,zh2sh_1_izhi.wav,zh2sh_8_ishi.wav,,FALSE,FALSE,,,,,,,,,,,,,,j,0.3615,space,0.5162,,,,,,,,0,111,111,46,1,,
5e625e452a6dce000bf8f7a7,2023-06-16_13h56.44.842,phx_ver10,2022.2.5,Win32,60.03842459,,,,,,,,,,,,9,testing_1,zh2x,i,zh2x_i,zh2x_1_izhi.wav,zh2x_1_izhi_copy.wav,,TRUE,TRUE,,,,,,,,,,,,,,j,0.104799999,space,0.3507,,,,,,,,0,112,112,8,1,,
5e625e452a6dce000bf8f7a7,2023-06-16_13h56.44.842,phx_ver10,2022.2.5,Win32,60.03842459,,,,,,,,,,,,53,testing_3,zh2j,ai,zh2j_ai,zh2j_1_aizhai.wav,zh2j_1_aizhai.wav,,TRUE,FALSE,,,,,,,,,,,,,,f,0.1148,space,0.2076,,,,,,,,0,113,113,52,1,,
5e625e452a6dce000bf8f7a7,2023-06-16_13h56.44.842,phx_ver10,2022.2.5,Win32,60.03842459,,,,,,,,,,,,17,testing_2,zh2x,au,zh2x_au,zh2x_1_auzhau.wav,zh2x_1_auzhau.wav,,TRUE,FALSE,,,,,,,,,,,,,,f,0.0873,space,0.1678,,,,,,,,0,114,114,16,1,,
5e625e452a6dce000bf8f7a7,2023-06-16_13h56.44.842,phx_ver10,2022.2.5,Win32,60.03842459,,,,,,,,,,,,136,testing_3,sh2j,e,sh2j_e,sh2j_8_eje.wav,sh2j_1_eshe.wav,,FALSE,FALSE,,,,,,,,,,,,,,j,0.0187,space,0.1677,,,,,,,,0,115,115,135,1,,
5e625e452a6dce000bf8f7a7,2023-06-16_13h56.44.842,phx_ver10,2022.2.5,Win32,60.03842459,,,,,,,,,,,,33,testing_3,zh2sh,au,zh2sh_au,zh2sh_1_auzhau.wav,zh2sh_1_auzhau.wav,,TRUE,FALSE,,,,,,,,,,,,,,f,0.1105,space,0.2293,,,,,,,,0,116,116,32,1,,
5e625e452a6dce000bf8f7a7,2023-06-16_13h56.44.842,phx_ver10,2022.2.5,Win32,60.03842459,,,,,,,,,,,,58,testing_3,zh2j,au,zh2j_au,zh2j_8_aujau.wav,zh2j_8_aujau.wav,,TRUE,FALSE,,,,,,,,,,,,,,f,0.0495,space,0.1568,,,,,,,,0,117,117,57,1,,
5e625e452a6dce000bf8f7a7,2023-06-16_13h56.44.842,phx_ver10,2022.2.5,Win32,60.03842459,,,,,,,,,,,,3,testing_1,zh2x,a,zh2x_a,zh2x_1_azha.wav,zh2x_8_axa.wav,,FALSE,TRUE,,,,,,,,,,,,,,j,0.072299999,space,0.2345,,,,,,,,0,118,118,2,1,,
5e625e452a6dce000bf8f7a7,2023-06-16_13h56.44.842,phx_ver10,2022.2.5,Win32,60.03842459,,,,,,,,,,,,11,testing_1,zh2x,i,zh2x_i,zh2x_1_izhi.wav,zh2x_8_ixi.wav,,FALSE,TRUE,,,,,,,,,,,,,,j,0.0166,space,0.1626,,,,,,,,0,119,119,10,1,,
5e625e452a6dce000bf8f7a7,2023-06-16_13h56.44.842,phx_ver10,2022.2.5,Win32,60.03842459,,,,,,,,,,,,37,testing_3,zh2sh,e,zh2sh_e,zh2sh_1_ezhe.wav,zh2sh_1_ezhe.wav,,TRUE,FALSE,,,,,,,,,,,,,,f,0.0329,space,0.1381,,,,,,,,0,120,120,36,1,,
5e625e452a6dce000bf8f7a7,2023-06-16_13h56.44.842,phx_ver10,2022.2.5,Win32,60.03842459,,,,,,,,,,,,21,testing_2,zh2x,ei,zh2x_ei,zh2x_1_eizhei.wav,zh2x_1_eizhei.wav,,TRUE,FALSE,,,,,,,,,,,,,,f,0.0841,space,0.1762,,,,,,,,0,121,121,20,1,,
5e625e452a6dce000bf8f7a7,2023-06-16_13h56.44.842,phx_ver10,2022.2.5,Win32,60.03842459,,,,,,,,,,,,90,testing_3,j2x,ei,j2x_ei,j2x_8_eixei.wav,j2x_8_eixei.wav,,TRUE,FALSE,,,,,,,,,,,,,,f,0.0815,space,0.1935,,,,,,,,0,122,122,89,1,,
5e625e452a6dce000bf8f7a7,2023-06-16_13h56.44.842,phx_ver10,2022.2.5,Win32,60.03842459,,,,,,,,,,,,77,testing_3,j2x,ai,j2x_ai,j2x_1_aijai.wav,j2x_1_aijai.wav,,TRUE,FALSE,,,,,,,,,,,,,,f,0.193599999,space,0.300599999,,,,,,,,0,123,123,76,1,,
5e625e452a6dce000bf8f7a7,2023-06-16_13h56.44.842,phx_ver10,2022.2.5,Win32,60.03842459,,,,,,,,,,,,99,testing_3,sh2x,a,sh2x_a,sh2x_1_asha.wav,sh2x_8_axa.wav,,FALSE,FALSE,,,,,,,,,,,,,,f,0.1177,space,0.2089,,,,,,,,0,124,124,98,1,,
5e625e452a6dce000bf8f7a7,2023-06-16_13h56.44.842,phx_ver10,2022.2.5,Win32,60.03842459,,,,,,,,,,,,44,testing_3,zh2sh,ei,zh2sh_ei,zh2sh_8_eishei.wav,zh2sh_1_eizhei.wav,,FALSE,FALSE,,,,,,,,,,,,,,j,0.0041,space,0.1546,,,,,,,,0,125,125,43,1,,
5e625e452a6dce000bf8f7a7,2023-06-16_13h56.44.842,phx_ver10,2022.2.5,Win32,60.03842459,,,,,,,,,,,,97,testing_3,sh2x,a,sh2x_a,sh2x_1_asha.wav,sh2x_1_asha.wav,,TRUE,FALSE,,,,,,,,,,,,,,f,0.1745,space,0.2517,,,,,,,,0,126,126,96,1,,
5e625e452a6dce000bf8f7a7,2023-06-16_13h56.44.842,phx_ver10,2022.2.5,Win32,60.03842459,,,,,,,,,,,,89,testing_3,j2x,ei,j2x_ei,j2x_1_eijei.wav,j2x_1_eijei.wav,,TRUE,FALSE,,,,,,,,,,,,,,f,0.145900001,space,0.241900001,,,,,,,,0,127,127,88,1,,
5e625e452a6dce000bf8f7a7,2023-06-16_13h56.44.842,phx_ver10,2022.2.5,Win32,60.03842459,,,,,,,,,,,,28,testing_3,zh2sh,a,zh2sh_a,zh2sh_8_asha.wav,zh2sh_1_azha.wav,,FALSE,FALSE,,,,,,,,,,,,,,f,0.2006,space,0.3571,,,,,,,,0,128,128,27,1,,
5e625e452a6dce000bf8f7a7,2023-06-16_13h56.44.842,phx_ver10,2022.2.5,Win32,60.03842459,,,,,,,,,,,,79,testing_3,j2x,ai,j2x_ai,j2x_1_aijai.wav,j2x_8_aixai.wav,,FALSE,FALSE,,,,,,,,,,,,,,j,0.0461,space,0.2356,,,,,,,,0,129,129,78,1,,
5e625e452a6dce000bf8f7a7,2023-06-16_13h56.44.842,phx_ver10,2022.2.5,Win32,60.03842459,,,,,,,,,,,,73,testing_3,j2x,a,j2x_a,j2x_1_aja.wav,j2x_1_aja.wav,,TRUE,FALSE,,,,,,,,,,,,,,f,0.133,space,0.2377,,,,,,,,0,130,130,72,1,,
5e625e452a6dce000bf8f7a7,2023-06-16_13h56.44.842,phx_ver10,2022.2.5,Win32,60.03842459,,,,,,,,,,,,98,testing_3,sh2x,a,sh2x_a,sh2x_8_axa.wav,sh2x_8_axa.wav,,TRUE,FALSE,,,,,,,,,,,,,,f,0.1669,space,0.336299999,,,,,,,,0,131,131,97,1,,
5e625e452a6dce000bf8f7a7,2023-06-16_13h56.44.842,phx_ver10,2022.2.5,Win32,60.03842459,,,,,,,,,,,,88,testing_3,j2x,e,j2x_e,j2x_8_exe.wav,j2x_1_eje.wav,,FALSE,FALSE,,,,,,,,,,,,,,j,0.073599999,space,0.2501,,,,,,,,0,132,132,87,1,,
5e625e452a6dce000bf8f7a7,2023-06-16_13h56.44.842,phx_ver10,2022.2.5,Win32,60.03842459,,,,,,,,,,,,118,testing_3,sh2x,i,sh2x_i,sh2x_8_ixi.wav,sh2x_8_ixi.wav,,TRUE,FALSE,,,,,,,,,,,,,,f,0.1603,space,0.2863,,,,,,,,0,133,133,117,1,,
5e625e452a6dce000bf8f7a7,2023-06-16_13h56.44.842,phx_ver10,2022.2.5,Win32,60.03842459,,,,,,,,,,,,2,testing_1,zh2x,a,zh2x_a,zh2x_8_axa.wav,zh2x_8_axa_copy.wav,,TRUE,TRUE,,,,,,,,,,,,,,f,0.273400001,space,0.3896,,,,,,,,0,134,134,1,1,,
5e625e452a6dce000bf8f7a7,2023-06-16_13h56.44.842,phx_ver10,2022.2.5,Win32,60.03842459,,,,,,,,,,,,57,testing_3,zh2j,au,zh2j_au,zh2j_1_auzhau.wav,zh2j_1_auzhau.wav,,TRUE,FALSE,,,,,,,,,,,,,,f,0.4092,space,0.518,,,,,,,,0,135,135,56,1,,
5e625e452a6dce000bf8f7a7,2023-06-16_13h56.44.842,phx_ver10,2022.2.5,Win32,60.03842459,,,,,,,,,,,,5,testing_1,zh2x,e,zh2x_e,zh2x_1_ezhe.wav,zh2x_1_ezhe_copy.wav,,TRUE,TRUE,,,,,,,,,,,,,,f,0.155700001,space,0.219,,,,,,,,0,136,136,4,1,,
5e625e452a6dce000bf8f7a7,2023-06-16_13h56.44.842,phx_ver10,2022.2.5,Win32,60.03842459,,,,,,,,,,,,132,testing_3,sh2j,au,sh2j_au,sh2j_8_aujau.wav,sh2j_1_aushau.wav,,FALSE,FALSE,,,,,,,,,,,,,,j,0.054400001,space,0.1672,,,,,,,,0,137,137,131,1,,
5e625e452a6dce000bf8f7a7,2023-06-16_13h56.44.842,phx_ver10,2022.2.5,Win32,60.03842459,,,,,,,,,,,,10,testing_1,zh2x,i,zh2x_i,zh2x_8_ixi.wav,zh2x_8_ixi_copy.wav,,TRUE,TRUE,,,,,,,,,,,,,,f,0.1027,space,0.2002,,,,,,,,0,138,138,9,1,,
5e625e452a6dce000bf8f7a7,2023-06-16_13h56.44.842,phx_ver10,2022.2.5,Win32,60.03842459,,,,,,,,,,,,104,testing_3,sh2x,ai,sh2x_ai,sh2x_8_aixai.wav,sh2x_1_aishai.wav,,FALSE,FALSE,,,,,,,,,,,,,,f,0.1235,space,0.2381,,,,,,,,0,139,139,103,1,,
5e625e452a6dce000bf8f7a7,2023-06-16_13h56.44.842,phx_ver10,2022.2.5,Win32,60.03842459,,,,,,,,,,,,13,testing_2,zh2x,ai,zh2x_ai,zh2x_1_aizhai.wav,zh2x_1_aizhai.wav,,TRUE,FALSE,,,,,,,,,,,,,,f,0.1027,space,0.2115,,,,,,,,0,140,140,12,1,,
5e625e452a6dce000bf8f7a7,2023-06-16_13h56.44.842,phx_ver10,2022.2.5,Win32,60.03842459,,,,,,,,,,,,6,testing_1,zh2x,e,zh2x_e,zh2x_8_exe.wav,zh2x_8_exe_copy.wav,,TRUE,TRUE,,,,,,,,,,,,,,f,0.091900001,space,0.205900001,,,,,,,,0,141,141,5,1,,
5e625e452a6dce000bf8f7a7,2023-06-16_13h56.44.842,phx_ver10,2022.2.5,Win32,60.03842459,,,,,,,,,,,,126,testing_3,sh2j,ai,sh2j_ai,sh2j_8_aijai.wav,sh2j_8_aijai.wav,,TRUE,FALSE,,,,,,,,,,,,,,f,0.1182,space,0.2383,,,,,,,,0,142,142,125,1,,
5e625e452a6dce000bf8f7a7,2023-06-16_13h56.44.842,phx_ver10,2022.2.5,Win32,60.03842459,,,,,,,,,,,,116,testing_3,sh2x,ei,sh2x_ei,sh2x_8_eixei.wav,sh2x_1_eishei.wav,,FALSE,FALSE,,,,,,,,,,,,,,f,0.1681,space,0.2975,,,,,,,,0,143,143,115,1,,
5e625e452a6dce000bf8f7a7,2023-06-16_13h56.44.842,phx_ver10,2022.2.5,Win32,60.03842459,,,,,,,,,,,,,,,,,,,,,,,,,,,,,,,,,,,,,,,,,,,,,,,,,,,space,3.576299999
