participant,date,expName,psychopyVersion,OS,frameRate,space_1.keys,space_1.rt,space_2.keys,space_2.rt,space_train.keys,space_train.rt,training.thisRepN,training.thisTrialN,training.thisN,training.thisIndex,training.ran,token_id,task,continuum,vowel,series,sound_1,sound_2,img,same,trained,FJ_attn.keys,FJ_attn.rt,space_attn.keys,space_attn.rt,if_attn_test.thisRepN,if_attn_test.thisTrialN,if_attn_test.thisN,if_attn_test.thisIndex,if_attn_test.ran,space_trans_1.keys,space_trans_1.rt,space_trans_11.keys,space_trans_11.rt,FJ_test.keys,FJ_test.rt,space_test.keys,space_test.rt,testing_pre.thisRepN,testing_pre.thisTrialN,testing_pre.thisN,testing_pre.thisIndex,testing_pre.ran,space_trans_2.keys,space_trans_2.rt,testing_all.thisRepN,testing_all.thisTrialN,testing_all.thisN,testing_all.thisIndex,testing_all.ran,space_ending.keys,space_ending.rt
5e71ab071b6e9c0d4c356574,2023-06-16_19h22.08.656,phx_ver10,2022.2.5,Linux x86_64,60.0240096,,,,,,,,,,,,,,,,,,,,,,,,,,,,,,,,,,,,,,,,,,,,,,,,,,,,
5e71ab071b6e9c0d4c356574,2023-06-16_19h22.08.656,phx_ver10,2022.2.5,Linux x86_64,60.0240096,space,6.6504,,,,,,,,,,,,,,,,,,,,,,,,,,,,,,,,,,,,,,,,,,,,,,,,,,
5e71ab071b6e9c0d4c356574,2023-06-16_19h22.08.656,phx_ver10,2022.2.5,Linux x86_64,60.0240096,,,space,3.1803,,,,,,,,,,,,,,,,,,,,,,,,,,,,,,,,,,,,,,,,,,,,,,,,
5e71ab071b6e9c0d4c356574,2023-06-16_19h22.08.656,phx_ver10,2022.2.5,Linux x86_64,60.0240096,,,,,space,2.6646,0,0,0,11,1,12,training,zh2x,a,zh2x_a,zh2x_7_axa.wav,,axa.jpg,,,,,,,,,,,,,,,,,,,,,,,,,,,,,,,,,
5e71ab071b6e9c0d4c356574,2023-06-16_19h22.08.656,phx_ver10,2022.2.5,Linux x86_64,60.0240096,,,,,space,1.6056,0,1,1,44,1,45,training,zh2x,i,zh2x_i,zh2x_7_ixi.wav,,ixi.jpg,,,,,,,,,,,,,,,,,,,,,,,,,,,,,,,,,
5e71ab071b6e9c0d4c356574,2023-06-16_19h22.08.656,phx_ver10,2022.2.5,Linux x86_64,60.0240096,,,,,space,1.7528,0,2,2,26,1,27,training,zh2x,e,zh2x_e,zh2x_6_exe.wav,,exe.jpg,,,,,,,,,,,,,,,,,,,,,,,,,,,,,,,,,
5e71ab071b6e9c0d4c356574,2023-06-16_19h22.08.656,phx_ver10,2022.2.5,Linux x86_64,60.0240096,,,,,space,0.9905,0,3,3,32,1,33,training,zh2x,i,zh2x_i,zh2x_1_izhi.wav,,izhi.jpg,,,,,,,,,,,,,,,,,,,,,,,,,,,,,,,,,
5e71ab071b6e9c0d4c356574,2023-06-16_19h22.08.656,phx_ver10,2022.2.5,Linux x86_64,60.0240096,,,,,space,1.5175,0,4,4,7,1,8,training,zh2x,a,zh2x_a,zh2x_4_azha.wav,,azha.jpg,,,,,,,,,,,,,,,,,,,,,,,,,,,,,,,,,
5e71ab071b6e9c0d4c356574,2023-06-16_19h22.08.656,phx_ver10,2022.2.5,Linux x86_64,60.0240096,,,,,space,1.9195,0,5,5,25,1,26,training,zh2x,e,zh2x_e,zh2x_6_exe.wav,,exe.jpg,,,,,,,,,,,,,,,,,,,,,,,,,,,,,,,,,
5e71ab071b6e9c0d4c356574,2023-06-16_19h22.08.656,phx_ver10,2022.2.5,Linux x86_64,60.0240096,,,,,,,,,,,,,attn_test,,,,zh2x_8_axa.wav,zh2x_8_exe.wav,axa.jpg,LEFT,,f,4.2746,space,5.9477,0,0,0,0,1,,,,,,,,,,,,,,,,,,,,,,
5e71ab071b6e9c0d4c356574,2023-06-16_19h22.08.656,phx_ver10,2022.2.5,Linux x86_64,60.0240096,,,,,space,1.6036,0,6,6,4,1,5,training,zh2x,a,zh2x_a,zh2x_2_azha.wav,,azha.jpg,,,,,,,,,,,,,,,,,,,,,,,,,,,,,,,,,
5e71ab071b6e9c0d4c356574,2023-06-16_19h22.08.656,phx_ver10,2022.2.5,Linux x86_64,60.0240096,,,,,space,0.5339,0,7,7,6,1,7,training,zh2x,a,zh2x_a,zh2x_3_azha.wav,,azha.jpg,,,,,,,,,,,,,,,,,,,,,,,,,,,,,,,,,
5e71ab071b6e9c0d4c356574,2023-06-16_19h22.08.656,phx_ver10,2022.2.5,Linux x86_64,60.0240096,,,,,space,0.9863,0,8,8,46,1,47,training,zh2x,i,zh2x_i,zh2x_7_ixi.wav,,ixi.jpg,,,,,,,,,,,,,,,,,,,,,,,,,,,,,,,,,
5e71ab071b6e9c0d4c356574,2023-06-16_19h22.08.656,phx_ver10,2022.2.5,Linux x86_64,60.0240096,,,,,space,1.1906,0,9,9,19,1,20,training,zh2x,e,zh2x_e,zh2x_2_ezhe.wav,,ezhe.jpg,,,,,,,,,,,,,,,,,,,,,,,,,,,,,,,,,
5e71ab071b6e9c0d4c356574,2023-06-16_19h22.08.656,phx_ver10,2022.2.5,Linux x86_64,60.0240096,,,,,space,0.4757,0,10,10,5,1,6,training,zh2x,a,zh2x_a,zh2x_3_azha.wav,,azha.jpg,,,,,,,,,,,,,,,,,,,,,,,,,,,,,,,,,
5e71ab071b6e9c0d4c356574,2023-06-16_19h22.08.656,phx_ver10,2022.2.5,Linux x86_64,60.0240096,,,,,space,0.4509,0,11,11,27,1,28,training,zh2x,e,zh2x_e,zh2x_7_exe.wav,,exe.jpg,,,,,,,,,,,,,,,,,,,,,,,,,,,,,,,,,
5e71ab071b6e9c0d4c356574,2023-06-16_19h22.08.656,phx_ver10,2022.2.5,Linux x86_64,60.0240096,,,,,,,,,,,,,attn_test,,,,zh2x_8_ixi.wav,zh2x_8_exe.wav,ixi.jpg,LEFT,,f,1.6542,space,2.9023,0,0,0,0,1,,,,,,,,,,,,,,,,,,,,,,
5e71ab071b6e9c0d4c356574,2023-06-16_19h22.08.656,phx_ver10,2022.2.5,Linux x86_64,60.0240096,,,,,space,1.2873,0,12,12,39,1,40,training,zh2x,i,zh2x_i,zh2x_4_izhi.wav,,izhi.jpg,,,,,,,,,,,,,,,,,,,,,,,,,,,,,,,,,
5e71ab071b6e9c0d4c356574,2023-06-16_19h22.08.656,phx_ver10,2022.2.5,Linux x86_64,60.0240096,,,,,space,0.6358,0,13,13,14,1,15,training,zh2x,a,zh2x_a,zh2x_7_axa.wav,,axa.jpg,,,,,,,,,,,,,,,,,,,,,,,,,,,,,,,,,
5e71ab071b6e9c0d4c356574,2023-06-16_19h22.08.656,phx_ver10,2022.2.5,Linux x86_64,60.0240096,,,,,space,1.3513,0,14,14,23,1,24,training,zh2x,e,zh2x_e,zh2x_4_ezhe.wav,,ezhe.jpg,,,,,,,,,,,,,,,,,,,,,,,,,,,,,,,,,
5e71ab071b6e9c0d4c356574,2023-06-16_19h22.08.656,phx_ver10,2022.2.5,Linux x86_64,60.0240096,,,,,space,0.5936,0,15,15,2,1,3,training,zh2x,a,zh2x_a,zh2x_2_azha.wav,,azha.jpg,,,,,,,,,,,,,,,,,,,,,,,,,,,,,,,,,
5e71ab071b6e9c0d4c356574,2023-06-16_19h22.08.656,phx_ver10,2022.2.5,Linux x86_64,60.0240096,,,,,space,0.9515,0,16,16,13,1,14,training,zh2x,a,zh2x_a,zh2x_7_axa.wav,,axa.jpg,,,,,,,,,,,,,,,,,,,,,,,,,,,,,,,,,
5e71ab071b6e9c0d4c356574,2023-06-16_19h22.08.656,phx_ver10,2022.2.5,Linux x86_64,60.0240096,,,,,space,0.3302,0,17,17,10,1,11,training,zh2x,a,zh2x_a,zh2x_6_axa.wav,,axa.jpg,,,,,,,,,,,,,,,,,,,,,,,,,,,,,,,,,
5e71ab071b6e9c0d4c356574,2023-06-16_19h22.08.656,phx_ver10,2022.2.5,Linux x86_64,60.0240096,,,,,,,,,,,,,attn_test,,,,zh2x_1_azha.wav,zh2x_1_izhi.wav,azha.jpg,LEFT,,f,2.1413,space,2.9671,0,0,0,0,1,,,,,,,,,,,,,,,,,,,,,,
5e71ab071b6e9c0d4c356574,2023-06-16_19h22.08.656,phx_ver10,2022.2.5,Linux x86_64,60.0240096,,,,,space,0.9155,0,18,18,37,1,38,training,zh2x,i,zh2x_i,zh2x_3_izhi.wav,,izhi.jpg,,,,,,,,,,,,,,,,,,,,,,,,,,,,,,,,,
5e71ab071b6e9c0d4c356574,2023-06-16_19h22.08.656,phx_ver10,2022.2.5,Linux x86_64,60.0240096,,,,,space,0.7481,0,19,19,20,1,21,training,zh2x,e,zh2x_e,zh2x_2_ezhe.wav,,ezhe.jpg,,,,,,,,,,,,,,,,,,,,,,,,,,,,,,,,,
5e71ab071b6e9c0d4c356574,2023-06-16_19h22.08.656,phx_ver10,2022.2.5,Linux x86_64,60.0240096,,,,,space,0.2352,0,20,20,42,1,43,training,zh2x,i,zh2x_i,zh2x_6_ixi.wav,,ixi.jpg,,,,,,,,,,,,,,,,,,,,,,,,,,,,,,,,,
5e71ab071b6e9c0d4c356574,2023-06-16_19h22.08.656,phx_ver10,2022.2.5,Linux x86_64,60.0240096,,,,,space,0.3575,0,21,21,36,1,37,training,zh2x,i,zh2x_i,zh2x_2_izhi.wav,,izhi.jpg,,,,,,,,,,,,,,,,,,,,,,,,,,,,,,,,,
5e71ab071b6e9c0d4c356574,2023-06-16_19h22.08.656,phx_ver10,2022.2.5,Linux x86_64,60.0240096,,,,,space,0.2111,0,22,22,21,1,22,training,zh2x,e,zh2x_e,zh2x_3_ezhe.wav,,ezhe.jpg,,,,,,,,,,,,,,,,,,,,,,,,,,,,,,,,,
5e71ab071b6e9c0d4c356574,2023-06-16_19h22.08.656,phx_ver10,2022.2.5,Linux x86_64,60.0240096,,,,,space,0.1395,0,23,23,1,1,2,training,zh2x,a,zh2x_a,zh2x_2_azha.wav,,azha.jpg,,,,,,,,,,,,,,,,,,,,,,,,,,,,,,,,,
5e71ab071b6e9c0d4c356574,2023-06-16_19h22.08.656,phx_ver10,2022.2.5,Linux x86_64,60.0240096,,,,,,,,,,,,,attn_test,,,,zh2x_1_azha.wav,zh2x_1_ezhe.wav,ezhe.jpg,RIGHT,,j,1.1993,space,2.0247,0,0,0,0,1,,,,,,,,,,,,,,,,,,,,,,
5e71ab071b6e9c0d4c356574,2023-06-16_19h22.08.656,phx_ver10,2022.2.5,Linux x86_64,60.0240096,,,,,space,0.7447,0,24,24,22,1,23,training,zh2x,e,zh2x_e,zh2x_3_ezhe.wav,,ezhe.jpg,,,,,,,,,,,,,,,,,,,,,,,,,,,,,,,,,
5e71ab071b6e9c0d4c356574,2023-06-16_19h22.08.656,phx_ver10,2022.2.5,Linux x86_64,60.0240096,,,,,space,0.2199,0,25,25,17,1,18,training,zh2x,e,zh2x_e,zh2x_2_ezhe.wav,,ezhe.jpg,,,,,,,,,,,,,,,,,,,,,,,,,,,,,,,,,
5e71ab071b6e9c0d4c356574,2023-06-16_19h22.08.656,phx_ver10,2022.2.5,Linux x86_64,60.0240096,,,,,space,0.0855,0,26,26,41,1,42,training,zh2x,i,zh2x_i,zh2x_6_ixi.wav,,ixi.jpg,,,,,,,,,,,,,,,,,,,,,,,,,,,,,,,,,
5e71ab071b6e9c0d4c356574,2023-06-16_19h22.08.656,phx_ver10,2022.2.5,Linux x86_64,60.0240096,,,,,space,0.0548,0,27,27,35,1,36,training,zh2x,i,zh2x_i,zh2x_2_izhi.wav,,izhi.jpg,,,,,,,,,,,,,,,,,,,,,,,,,,,,,,,,,
5e71ab071b6e9c0d4c356574,2023-06-16_19h22.08.656,phx_ver10,2022.2.5,Linux x86_64,60.0240096,,,,,space,1.5682,0,28,28,33,1,34,training,zh2x,i,zh2x_i,zh2x_2_izhi.wav,,izhi.jpg,,,,,,,,,,,,,,,,,,,,,,,,,,,,,,,,,
5e71ab071b6e9c0d4c356574,2023-06-16_19h22.08.656,phx_ver10,2022.2.5,Linux x86_64,60.0240096,,,,,space,0.2539,0,29,29,18,1,19,training,zh2x,e,zh2x_e,zh2x_2_ezhe.wav,,ezhe.jpg,,,,,,,,,,,,,,,,,,,,,,,,,,,,,,,,,
5e71ab071b6e9c0d4c356574,2023-06-16_19h22.08.656,phx_ver10,2022.2.5,Linux x86_64,60.0240096,,,,,,,,,,,,,attn_test,,,,zh2x_8_ixi.wav,zh2x_1_izhi.wav,izhi.jpg,RIGHT,,j,3.0865,space,3.9412,0,0,0,0,1,,,,,,,,,,,,,,,,,,,,,,
5e71ab071b6e9c0d4c356574,2023-06-16_19h22.08.656,phx_ver10,2022.2.5,Linux x86_64,60.0240096,,,,,space,0.6221,0,30,30,45,1,46,training,zh2x,i,zh2x_i,zh2x_7_ixi.wav,,ixi.jpg,,,,,,,,,,,,,,,,,,,,,,,,,,,,,,,,,
5e71ab071b6e9c0d4c356574,2023-06-16_19h22.08.656,phx_ver10,2022.2.5,Linux x86_64,60.0240096,,,,,space,0.3031,0,31,31,15,1,16,training,zh2x,a,zh2x_a,zh2x_8_axa.wav,,axa.jpg,,,,,,,,,,,,,,,,,,,,,,,,,,,,,,,,,
5e71ab071b6e9c0d4c356574,2023-06-16_19h22.08.656,phx_ver10,2022.2.5,Linux x86_64,60.0240096,,,,,space,0.9913,0,32,32,31,1,32,training,zh2x,e,zh2x_e,zh2x_8_exe.wav,,exe.jpg,,,,,,,,,,,,,,,,,,,,,,,,,,,,,,,,,
5e71ab071b6e9c0d4c356574,2023-06-16_19h22.08.656,phx_ver10,2022.2.5,Linux x86_64,60.0240096,,,,,space,0.4339,0,33,33,38,1,39,training,zh2x,i,zh2x_i,zh2x_3_izhi.wav,,izhi.jpg,,,,,,,,,,,,,,,,,,,,,,,,,,,,,,,,,
5e71ab071b6e9c0d4c356574,2023-06-16_19h22.08.656,phx_ver10,2022.2.5,Linux x86_64,60.0240096,,,,,space,0.6533,0,34,34,8,1,9,training,zh2x,a,zh2x_a,zh2x_5_axa.wav,,axa.jpg,,,,,,,,,,,,,,,,,,,,,,,,,,,,,,,,,
5e71ab071b6e9c0d4c356574,2023-06-16_19h22.08.656,phx_ver10,2022.2.5,Linux x86_64,60.0240096,,,,,space,0.0843,0,35,35,47,1,48,training,zh2x,i,zh2x_i,zh2x_8_ixi.wav,,ixi.jpg,,,,,,,,,,,,,,,,,,,,,,,,,,,,,,,,,
5e71ab071b6e9c0d4c356574,2023-06-16_19h22.08.656,phx_ver10,2022.2.5,Linux x86_64,60.0240096,,,,,,,,,,,,,attn_test,,,,zh2x_8_exe.wav,zh2x_8_ixi.wav,exe.jpg,LEFT,,f,1.8031,space,3.2731,0,0,0,0,1,,,,,,,,,,,,,,,,,,,,,,
5e71ab071b6e9c0d4c356574,2023-06-16_19h22.08.656,phx_ver10,2022.2.5,Linux x86_64,60.0240096,,,,,space,1.1706,0,36,36,30,1,31,training,zh2x,e,zh2x_e,zh2x_7_exe.wav,,exe.jpg,,,,,,,,,,,,,,,,,,,,,,,,,,,,,,,,,
5e71ab071b6e9c0d4c356574,2023-06-16_19h22.08.656,phx_ver10,2022.2.5,Linux x86_64,60.0240096,,,,,space,0.7846,0,37,37,43,1,44,training,zh2x,i,zh2x_i,zh2x_7_ixi.wav,,ixi.jpg,,,,,,,,,,,,,,,,,,,,,,,,,,,,,,,,,
5e71ab071b6e9c0d4c356574,2023-06-16_19h22.08.656,phx_ver10,2022.2.5,Linux x86_64,60.0240096,,,,,space,0.0998,0,38,38,40,1,41,training,zh2x,i,zh2x_i,zh2x_5_ixi.wav,,ixi.jpg,,,,,,,,,,,,,,,,,,,,,,,,,,,,,,,,,
5e71ab071b6e9c0d4c356574,2023-06-16_19h22.08.656,phx_ver10,2022.2.5,Linux x86_64,60.0240096,,,,,space,0.17,0,39,39,28,1,29,training,zh2x,e,zh2x_e,zh2x_7_exe.wav,,exe.jpg,,,,,,,,,,,,,,,,,,,,,,,,,,,,,,,,,
5e71ab071b6e9c0d4c356574,2023-06-16_19h22.08.656,phx_ver10,2022.2.5,Linux x86_64,60.0240096,,,,,space,0.2379,0,40,40,0,1,1,training,zh2x,a,zh2x_a,zh2x_1_azha.wav,,azha.jpg,,,,,,,,,,,,,,,,,,,,,,,,,,,,,,,,,
5e71ab071b6e9c0d4c356574,2023-06-16_19h22.08.656,phx_ver10,2022.2.5,Linux x86_64,60.0240096,,,,,space,0.5371,0,41,41,34,1,35,training,zh2x,i,zh2x_i,zh2x_2_izhi.wav,,izhi.jpg,,,,,,,,,,,,,,,,,,,,,,,,,,,,,,,,,
5e71ab071b6e9c0d4c356574,2023-06-16_19h22.08.656,phx_ver10,2022.2.5,Linux x86_64,60.0240096,,,,,,,,,,,,,attn_test,,,,zh2x_1_ezhe.wav,zh2x_1_izhi.wav,izhi.jpg,RIGHT,,j,0.9846,space,1.6846,0,0,0,0,1,,,,,,,,,,,,,,,,,,,,,,
5e71ab071b6e9c0d4c356574,2023-06-16_19h22.08.656,phx_ver10,2022.2.5,Linux x86_64,60.0240096,,,,,space,0.3012,0,42,42,16,1,17,training,zh2x,e,zh2x_e,zh2x_1_ezhe.wav,,ezhe.jpg,,,,,,,,,,,,,,,,,,,,,,,,,,,,,,,,,
5e71ab071b6e9c0d4c356574,2023-06-16_19h22.08.656,phx_ver10,2022.2.5,Linux x86_64,60.0240096,,,,,space,0.202,0,43,43,12,1,13,training,zh2x,a,zh2x_a,zh2x_7_axa.wav,,axa.jpg,,,,,,,,,,,,,,,,,,,,,,,,,,,,,,,,,
5e71ab071b6e9c0d4c356574,2023-06-16_19h22.08.656,phx_ver10,2022.2.5,Linux x86_64,60.0240096,,,,,space,0.1695,0,44,44,29,1,30,training,zh2x,e,zh2x_e,zh2x_7_exe.wav,,exe.jpg,,,,,,,,,,,,,,,,,,,,,,,,,,,,,,,,,
5e71ab071b6e9c0d4c356574,2023-06-16_19h22.08.656,phx_ver10,2022.2.5,Linux x86_64,60.0240096,,,,,space,1.2516,0,45,45,24,1,25,training,zh2x,e,zh2x_e,zh2x_5_exe.wav,,exe.jpg,,,,,,,,,,,,,,,,,,,,,,,,,,,,,,,,,
5e71ab071b6e9c0d4c356574,2023-06-16_19h22.08.656,phx_ver10,2022.2.5,Linux x86_64,60.0240096,,,,,space,0.2017,0,46,46,3,1,4,training,zh2x,a,zh2x_a,zh2x_2_azha.wav,,azha.jpg,,,,,,,,,,,,,,,,,,,,,,,,,,,,,,,,,
5e71ab071b6e9c0d4c356574,2023-06-16_19h22.08.656,phx_ver10,2022.2.5,Linux x86_64,60.0240096,,,,,space,0.1257,0,47,47,9,1,10,training,zh2x,a,zh2x_a,zh2x_6_axa.wav,,axa.jpg,,,,,,,,,,,,,,,,,,,,,,,,,,,,,,,,,
5e71ab071b6e9c0d4c356574,2023-06-16_19h22.08.656,phx_ver10,2022.2.5,Linux x86_64,60.0240096,,,,,,,,,,,,,attn_test,,,,zh2x_1_ezhe.wav,zh2x_8_axa.wav,ezhe.jpg,LEFT,,f,1.2182,space,3.8165,,,,,,,,,,,,,,,,,,,,,,,,,,,
5e71ab071b6e9c0d4c356574,2023-06-16_19h22.08.656,phx_ver10,2022.2.5,Linux x86_64,60.0240096,,,,,,,,,,,,,,,,,,,,,,,,,,,,,,,space,2.4642,,,,,,,,,,,,,,,,,,,,
5e71ab071b6e9c0d4c356574,2023-06-16_19h22.08.656,phx_ver10,2022.2.5,Linux x86_64,60.0240096,,,,,,,,,,,,,,,,,,,,,,,,,,,,,,,,,space,4.6461,,,,,,,,,,,,,,,,,,
5e71ab071b6e9c0d4c356574,2023-06-16_19h22.08.656,phx_ver10,2022.2.5,Linux x86_64,60.0240096,,,,,,,,,,,,3,testing_pre,,,,afa.wav,aha.wav,,FALSE,,,,,,,,,,,,,,,f,8.5894,space,9.8827,0,0,0,2,1,,,,,,,,,
5e71ab071b6e9c0d4c356574,2023-06-16_19h22.08.656,phx_ver10,2022.2.5,Linux x86_64,60.0240096,,,,,,,,,,,,2,testing_pre,,,,auhau.wav,aufau.wav,,FALSE,,,,,,,,,,,,,,,j,1.6602,space,2.5391,0,1,1,1,1,,,,,,,,,
5e71ab071b6e9c0d4c356574,2023-06-16_19h22.08.656,phx_ver10,2022.2.5,Linux x86_64,60.0240096,,,,,,,,,,,,4,testing_pre,,,,eihei.wav,eihei.wav,,TRUE,,,,,,,,,,,,,,,f,1.2524,space,2.0344,0,2,2,3,1,,,,,,,,,
5e71ab071b6e9c0d4c356574,2023-06-16_19h22.08.656,phx_ver10,2022.2.5,Linux x86_64,60.0240096,,,,,,,,,,,,1,testing_pre,,,,ifi.wav,ifi.wav,,TRUE,,,,,,,,,,,,,,,f,0.9208,space,1.7208,0,3,3,0,1,,,,,,,,,
5e71ab071b6e9c0d4c356574,2023-06-16_19h22.08.656,phx_ver10,2022.2.5,Linux x86_64,60.0240096,,,,,,,,,,,,5,testing_pre,,,,ihi.wav,ifi.wav,,FALSE,,,,,,,,,,,,,,,j,1.355,space,2.3509,0,4,4,4,1,,,,,,,,,
5e71ab071b6e9c0d4c356574,2023-06-16_19h22.08.656,phx_ver10,2022.2.5,Linux x86_64,60.0240096,,,,,,,,,,,,,,,,,,,,,,,,,,,,,,,,,,,,,,,,,,,,space,1.0696,,,,,,,
5e71ab071b6e9c0d4c356574,2023-06-16_19h22.08.656,phx_ver10,2022.2.5,Linux x86_64,60.0240096,,,,,,,,,,,,133,testing_3,sh2j,e,sh2j_e,sh2j_1_eshe.wav,sh2j_1_eshe.wav,,TRUE,FALSE,,,,,,,,,,,,,,f,1.1022,space,2.1081,,,,,,,,0,0,0,132,1,,
5e71ab071b6e9c0d4c356574,2023-06-16_19h22.08.656,phx_ver10,2022.2.5,Linux x86_64,60.0240096,,,,,,,,,,,,3,testing_1,zh2x,a,zh2x_a,zh2x_1_azha.wav,zh2x_8_axa.wav,,FALSE,TRUE,,,,,,,,,,,,,,j,0.7062,space,1.5064,,,,,,,,0,1,1,2,1,,
5e71ab071b6e9c0d4c356574,2023-06-16_19h22.08.656,phx_ver10,2022.2.5,Linux x86_64,60.0240096,,,,,,,,,,,,44,testing_3,zh2sh,ei,zh2sh_ei,zh2sh_8_eishei.wav,zh2sh_1_eizhei.wav,,FALSE,FALSE,,,,,,,,,,,,,,j,4.3013,space,4.9686,,,,,,,,0,2,2,43,1,,
5e71ab071b6e9c0d4c356574,2023-06-16_19h22.08.656,phx_ver10,2022.2.5,Linux x86_64,60.0240096,,,,,,,,,,,,134,testing_3,sh2j,e,sh2j_e,sh2j_8_eje.wav,sh2j_8_eje.wav,,TRUE,FALSE,,,,,,,,,,,,,,f,0.8462,space,1.6353,,,,,,,,0,3,3,133,1,,
5e71ab071b6e9c0d4c356574,2023-06-16_19h22.08.656,phx_ver10,2022.2.5,Linux x86_64,60.0240096,,,,,,,,,,,,117,testing_3,sh2x,i,sh2x_i,sh2x_1_ishi.wav,sh2x_1_ishi.wav,,TRUE,FALSE,,,,,,,,,,,,,,f,0.6691,space,1.6376,,,,,,,,0,4,4,116,1,,
5e71ab071b6e9c0d4c356574,2023-06-16_19h22.08.656,phx_ver10,2022.2.5,Linux x86_64,60.0240096,,,,,,,,,,,,9,testing_1,zh2x,i,zh2x_i,zh2x_1_izhi.wav,zh2x_1_izhi_copy.wav,,TRUE,TRUE,,,,,,,,,,,,,,f,1.1617,space,2.0188,,,,,,,,0,5,5,8,1,,
5e71ab071b6e9c0d4c356574,2023-06-16_19h22.08.656,phx_ver10,2022.2.5,Linux x86_64,60.0240096,,,,,,,,,,,,22,testing_2,zh2x,ei,zh2x_ei,zh2x_8_eixei.wav,zh2x_8_eixei.wav,,TRUE,FALSE,,,,,,,,,,,,,,f,1.2021,space,2.0431,,,,,,,,0,6,6,21,1,,
5e71ab071b6e9c0d4c356574,2023-06-16_19h22.08.656,phx_ver10,2022.2.5,Linux x86_64,60.0240096,,,,,,,,,,,,96,testing_3,j2x,i,j2x_i,j2x_8_ixi.wav,j2x_1_iji.wav,,FALSE,FALSE,,,,,,,,,,,,,,j,3.2256,space,4.0545,,,,,,,,0,7,7,95,1,,
5e71ab071b6e9c0d4c356574,2023-06-16_19h22.08.656,phx_ver10,2022.2.5,Linux x86_64,60.0240096,,,,,,,,,,,,18,testing_2,zh2x,au,zh2x_au,zh2x_8_auxau.wav,zh2x_8_auxau.wav,,TRUE,FALSE,,,,,,,,,,,,,,f,0.6887,space,1.6266,,,,,,,,0,8,8,17,1,,
5e71ab071b6e9c0d4c356574,2023-06-16_19h22.08.656,phx_ver10,2022.2.5,Linux x86_64,60.0240096,,,,,,,,,,,,4,testing_1,zh2x,a,zh2x_a,zh2x_8_axa.wav,zh2x_1_azha.wav,,FALSE,TRUE,,,,,,,,,,,,,,j,0.5694,space,1.3394,,,,,,,,0,9,9,3,1,,
5e71ab071b6e9c0d4c356574,2023-06-16_19h22.08.656,phx_ver10,2022.2.5,Linux x86_64,60.0240096,,,,,,,,,,,,94,testing_3,j2x,i,j2x_i,j2x_8_ixi.wav,j2x_8_ixi.wav,,TRUE,FALSE,,,,,,,,,,,,,,f,0.3845,space,1.0287,,,,,,,,0,10,10,93,1,,
5e71ab071b6e9c0d4c356574,2023-06-16_19h22.08.656,phx_ver10,2022.2.5,Linux x86_64,60.0240096,,,,,,,,,,,,28,testing_3,zh2sh,a,zh2sh_a,zh2sh_8_asha.wav,zh2sh_1_azha.wav,,FALSE,FALSE,,,,,,,,,,,,,,j,4.5751,space,5.1333,,,,,,,,0,11,11,27,1,,
5e71ab071b6e9c0d4c356574,2023-06-16_19h22.08.656,phx_ver10,2022.2.5,Linux x86_64,60.0240096,,,,,,,,,,,,14,testing_2,zh2x,ai,zh2x_ai,zh2x_8_aixai.wav,zh2x_8_aixai.wav,,TRUE,FALSE,,,,,,,,,,,,,,f,0.6502,space,1.3877,,,,,,,,0,12,12,13,1,,
5e71ab071b6e9c0d4c356574,2023-06-16_19h22.08.656,phx_ver10,2022.2.5,Linux x86_64,60.0240096,,,,,,,,,,,,85,testing_3,j2x,e,j2x_e,j2x_1_eje.wav,j2x_1_eje.wav,,TRUE,FALSE,,,,,,,,,,,,,,f,0.311,space,1.1063,,,,,,,,0,13,13,84,1,,
5e71ab071b6e9c0d4c356574,2023-06-16_19h22.08.656,phx_ver10,2022.2.5,Linux x86_64,60.0240096,,,,,,,,,,,,16,testing_2,zh2x,ai,zh2x_ai,zh2x_8_aixai.wav,zh2x_1_aizhai.wav,,FALSE,FALSE,,,,,,,,,,,,,,j,0.7774,space,1.5274,,,,,,,,0,14,14,15,1,,
5e71ab071b6e9c0d4c356574,2023-06-16_19h22.08.656,phx_ver10,2022.2.5,Linux x86_64,60.0240096,,,,,,,,,,,,67,testing_3,zh2j,ei,zh2j_ei,zh2j_1_eizhei.wav,zh2j_8_eijei.wav,,FALSE,FALSE,,,,,,,,,,,,,,f,0.6349,space,1.2659,,,,,,,,0,15,15,66,1,,
5e71ab071b6e9c0d4c356574,2023-06-16_19h22.08.656,phx_ver10,2022.2.5,Linux x86_64,60.0240096,,,,,,,,,,,,23,testing_2,zh2x,ei,zh2x_ei,zh2x_1_eizhei.wav,zh2x_8_eixei.wav,,FALSE,FALSE,,,,,,,,,,,,,,j,0.6547,space,1.5745,,,,,,,,0,16,16,22,1,,
5e71ab071b6e9c0d4c356574,2023-06-16_19h22.08.656,phx_ver10,2022.2.5,Linux x86_64,60.0240096,,,,,,,,,,,,121,testing_3,sh2j,a,sh2j_a,sh2j_1_asha.wav,sh2j_1_asha.wav,,TRUE,FALSE,,,,,,,,,,,,,,f,0.7523,space,1.5377,,,,,,,,0,17,17,120,1,,
5e71ab071b6e9c0d4c356574,2023-06-16_19h22.08.656,phx_ver10,2022.2.5,Linux x86_64,60.0240096,,,,,,,,,,,,20,testing_2,zh2x,au,zh2x_au,zh2x_8_auxau.wav,zh2x_1_auzhau.wav,,FALSE,FALSE,,,,,,,,,,,,,,j,0.6378,space,1.2279,,,,,,,,0,18,18,19,1,,
5e71ab071b6e9c0d4c356574,2023-06-16_19h22.08.656,phx_ver10,2022.2.5,Linux x86_64,60.0240096,,,,,,,,,,,,55,testing_3,zh2j,ai,zh2j_ai,zh2j_1_aizhai.wav,zh2j_8_aijai.wav,,FALSE,FALSE,,,,,,,,,,,,,,f,0.9119,space,1.4551,,,,,,,,0,19,19,54,1,,
5e71ab071b6e9c0d4c356574,2023-06-16_19h22.08.656,phx_ver10,2022.2.5,Linux x86_64,60.0240096,,,,,,,,,,,,35,testing_3,zh2sh,au,zh2sh_au,zh2sh_1_auzhau.wav,zh2sh_8_aushau.wav,,FALSE,FALSE,,,,,,,,,,,,,,j,1.0082,space,1.7522,,,,,,,,0,20,20,34,1,,
5e71ab071b6e9c0d4c356574,2023-06-16_19h22.08.656,phx_ver10,2022.2.5,Linux x86_64,60.0240096,,,,,,,,,,,,38,testing_3,zh2sh,e,zh2sh_e,zh2sh_8_eshe.wav,zh2sh_8_eshe.wav,,TRUE,FALSE,,,,,,,,,,,,,,f,0.5348,space,1.0569,,,,,,,,0,21,21,37,1,,
5e71ab071b6e9c0d4c356574,2023-06-16_19h22.08.656,phx_ver10,2022.2.5,Linux x86_64,60.0240096,,,,,,,,,,,,113,testing_3,sh2x,ei,sh2x_ei,sh2x_1_eishei.wav,sh2x_1_eishei.wav,,TRUE,FALSE,,,,,,,,,,,,,,f,0.6919,space,1.2566,,,,,,,,0,22,22,112,1,,
5e71ab071b6e9c0d4c356574,2023-06-16_19h22.08.656,phx_ver10,2022.2.5,Linux x86_64,60.0240096,,,,,,,,,,,,66,testing_3,zh2j,ei,zh2j_ei,zh2j_8_eijei.wav,zh2j_8_eijei.wav,,TRUE,FALSE,,,,,,,,,,,,,,f,0.7658,space,1.473,,,,,,,,0,23,23,65,1,,
5e71ab071b6e9c0d4c356574,2023-06-16_19h22.08.656,phx_ver10,2022.2.5,Linux x86_64,60.0240096,,,,,,,,,,,,126,testing_3,sh2j,ai,sh2j_ai,sh2j_8_aijai.wav,sh2j_8_aijai.wav,,TRUE,FALSE,,,,,,,,,,,,,,f,0.6175,space,1.2387,,,,,,,,0,24,24,125,1,,
5e71ab071b6e9c0d4c356574,2023-06-16_19h22.08.656,phx_ver10,2022.2.5,Linux x86_64,60.0240096,,,,,,,,,,,,30,testing_3,zh2sh,ai,zh2sh_ai,zh2sh_8_aishai.wav,zh2sh_8_aishai.wav,,TRUE,FALSE,,,,,,,,,,,,,,f,0.6615,space,1.2731,,,,,,,,0,25,25,29,1,,
5e71ab071b6e9c0d4c356574,2023-06-16_19h22.08.656,phx_ver10,2022.2.5,Linux x86_64,60.0240096,,,,,,,,,,,,51,testing_3,zh2j,a,zh2j_a,zh2j_1_azha.wav,zh2j_8_aja.wav,,FALSE,FALSE,,,,,,,,,,,,,,f,0.7892,space,1.184,,,,,,,,0,26,26,50,1,,
5e71ab071b6e9c0d4c356574,2023-06-16_19h22.08.656,phx_ver10,2022.2.5,Linux x86_64,60.0240096,,,,,,,,,,,,21,testing_2,zh2x,ei,zh2x_ei,zh2x_1_eizhei.wav,zh2x_1_eizhei.wav,,TRUE,FALSE,,,,,,,,,,,,,,f,0.7447,space,1.3841,,,,,,,,0,27,27,20,1,,
5e71ab071b6e9c0d4c356574,2023-06-16_19h22.08.656,phx_ver10,2022.2.5,Linux x86_64,60.0240096,,,,,,,,,,,,13,testing_2,zh2x,ai,zh2x_ai,zh2x_1_aizhai.wav,zh2x_1_aizhai.wav,,TRUE,FALSE,,,,,,,,,,,,,,f,0.7011,space,1.2373,,,,,,,,0,28,28,12,1,,
5e71ab071b6e9c0d4c356574,2023-06-16_19h22.08.656,phx_ver10,2022.2.5,Linux x86_64,60.0240096,,,,,,,,,,,,74,testing_3,j2x,a,j2x_a,j2x_8_axa.wav,j2x_8_axa.wav,,TRUE,FALSE,,,,,,,,,,,,,,f,0.618,space,1.055,,,,,,,,0,29,29,73,1,,
5e71ab071b6e9c0d4c356574,2023-06-16_19h22.08.656,phx_ver10,2022.2.5,Linux x86_64,60.0240096,,,,,,,,,,,,118,testing_3,sh2x,i,sh2x_i,sh2x_8_ixi.wav,sh2x_8_ixi.wav,,TRUE,FALSE,,,,,,,,,,,,,,f,0.5394,space,0.9535,,,,,,,,0,30,30,117,1,,
5e71ab071b6e9c0d4c356574,2023-06-16_19h22.08.656,phx_ver10,2022.2.5,Linux x86_64,60.0240096,,,,,,,,,,,,114,testing_3,sh2x,ei,sh2x_ei,sh2x_8_eixei.wav,sh2x_8_eixei.wav,,TRUE,FALSE,,,,,,,,,,,,,,f,0.5562,space,1.0097,,,,,,,,0,31,31,113,1,,
5e71ab071b6e9c0d4c356574,2023-06-16_19h22.08.656,phx_ver10,2022.2.5,Linux x86_64,60.0240096,,,,,,,,,,,,26,testing_3,zh2sh,a,zh2sh_a,zh2sh_8_asha.wav,zh2sh_8_asha.wav,,TRUE,FALSE,,,,,,,,,,,,,,f,0.7402,space,1.1883,,,,,,,,0,32,32,25,1,,
5e71ab071b6e9c0d4c356574,2023-06-16_19h22.08.656,phx_ver10,2022.2.5,Linux x86_64,60.0240096,,,,,,,,,,,,110,testing_3,sh2x,e,sh2x_e,sh2x_8_exe.wav,sh2x_8_exe.wav,,TRUE,FALSE,,,,,,,,,,,,,,f,0.7382,space,1.1851,,,,,,,,0,33,33,109,1,,
5e71ab071b6e9c0d4c356574,2023-06-16_19h22.08.656,phx_ver10,2022.2.5,Linux x86_64,60.0240096,,,,,,,,,,,,10,testing_1,zh2x,i,zh2x_i,zh2x_8_ixi.wav,zh2x_8_ixi_copy.wav,,TRUE,TRUE,,,,,,,,,,,,,,f,0.7358,space,1.1837,,,,,,,,0,34,34,9,1,,
5e71ab071b6e9c0d4c356574,2023-06-16_19h22.08.656,phx_ver10,2022.2.5,Linux x86_64,60.0240096,,,,,,,,,,,,141,testing_3,sh2j,i,sh2j_i,sh2j_1_ishi.wav,sh2j_1_ishi.wav,,TRUE,FALSE,,,,,,,,,,,,,,f,0.5275,space,0.8993,,,,,,,,0,35,35,140,1,,
5e71ab071b6e9c0d4c356574,2023-06-16_19h22.08.656,phx_ver10,2022.2.5,Linux x86_64,60.0240096,,,,,,,,,,,,88,testing_3,j2x,e,j2x_e,j2x_8_exe.wav,j2x_1_eje.wav,,FALSE,FALSE,,,,,,,,,,,,,,f,0.8058,space,1.1898,,,,,,,,0,36,36,87,1,,
5e71ab071b6e9c0d4c356574,2023-06-16_19h22.08.656,phx_ver10,2022.2.5,Linux x86_64,60.0240096,,,,,,,,,,,,109,testing_3,sh2x,e,sh2x_e,sh2x_1_eshe.wav,sh2x_1_eshe.wav,,TRUE,FALSE,,,,,,,,,,,,,,f,0.8167,space,1.2164,,,,,,,,0,37,37,108,1,,
5e71ab071b6e9c0d4c356574,2023-06-16_19h22.08.656,phx_ver10,2022.2.5,Linux x86_64,60.0240096,,,,,,,,,,,,61,testing_3,zh2j,e,zh2j_e,zh2j_1_ezhe.wav,zh2j_1_ezhe.wav,,TRUE,FALSE,,,,,,,,,,,,,,f,0.517,space,0.8753,,,,,,,,0,38,38,60,1,,
5e71ab071b6e9c0d4c356574,2023-06-16_19h22.08.656,phx_ver10,2022.2.5,Linux x86_64,60.0240096,,,,,,,,,,,,80,testing_3,j2x,ai,j2x_ai,j2x_8_aixai.wav,j2x_1_aijai.wav,,FALSE,FALSE,,,,,,,,,,,,,,f,0.7868,space,1.1906,,,,,,,,0,39,39,79,1,,
5e71ab071b6e9c0d4c356574,2023-06-16_19h22.08.656,phx_ver10,2022.2.5,Linux x86_64,60.0240096,,,,,,,,,,,,122,testing_3,sh2j,a,sh2j_a,sh2j_8_aja.wav,sh2j_8_aja.wav,,TRUE,FALSE,,,,,,,,,,,,,,f,0.6679,space,1.0406,,,,,,,,0,40,40,121,1,,
5e71ab071b6e9c0d4c356574,2023-06-16_19h22.08.656,phx_ver10,2022.2.5,Linux x86_64,60.0240096,,,,,,,,,,,,7,testing_1,zh2x,e,zh2x_e,zh2x_1_ezhe.wav,zh2x_8_exe.wav,,FALSE,TRUE,,,,,,,,,,,,,,j,0.5884,space,1.0032,,,,,,,,0,41,41,6,1,,
5e71ab071b6e9c0d4c356574,2023-06-16_19h22.08.656,phx_ver10,2022.2.5,Linux x86_64,60.0240096,,,,,,,,,,,,12,testing_1,zh2x,i,zh2x_i,zh2x_8_ixi.wav,zh2x_1_izhi.wav,,FALSE,TRUE,,,,,,,,,,,,,,j,0.8339,space,1.2368,,,,,,,,0,42,42,11,1,,
5e71ab071b6e9c0d4c356574,2023-06-16_19h22.08.656,phx_ver10,2022.2.5,Linux x86_64,60.0240096,,,,,,,,,,,,39,testing_3,zh2sh,e,zh2sh_e,zh2sh_1_ezhe.wav,zh2sh_8_eshe.wav,,FALSE,FALSE,,,,,,,,,,,,,,j,0.8527,space,1.1927,,,,,,,,0,43,43,38,1,,
5e71ab071b6e9c0d4c356574,2023-06-16_19h22.08.656,phx_ver10,2022.2.5,Linux x86_64,60.0240096,,,,,,,,,,,,107,testing_3,sh2x,au,sh2x_au,sh2x_1_aushau.wav,sh2x_8_auxau.wav,,FALSE,FALSE,,,,,,,,,,,,,,j,0.9039,space,1.3248,,,,,,,,0,44,44,106,1,,
5e71ab071b6e9c0d4c356574,2023-06-16_19h22.08.656,phx_ver10,2022.2.5,Linux x86_64,60.0240096,,,,,,,,,,,,36,testing_3,zh2sh,au,zh2sh_au,zh2sh_8_aushau.wav,zh2sh_1_auzhau.wav,,FALSE,FALSE,,,,,,,,,,,,,,j,0.739,space,1.1883,,,,,,,,0,45,45,35,1,,
5e71ab071b6e9c0d4c356574,2023-06-16_19h22.08.656,phx_ver10,2022.2.5,Linux x86_64,60.0240096,,,,,,,,,,,,86,testing_3,j2x,e,j2x_e,j2x_8_exe.wav,j2x_8_exe.wav,,TRUE,FALSE,,,,,,,,,,,,,,f,0.6867,space,1.0606,,,,,,,,0,46,46,85,1,,
5e71ab071b6e9c0d4c356574,2023-06-16_19h22.08.656,phx_ver10,2022.2.5,Linux x86_64,60.0240096,,,,,,,,,,,,40,testing_3,zh2sh,e,zh2sh_e,zh2sh_8_eshe.wav,zh2sh_1_ezhe.wav,,FALSE,FALSE,,,,,,,,,,,,,,j,0.9539,space,1.3825,,,,,,,,0,47,47,39,1,,
5e71ab071b6e9c0d4c356574,2023-06-16_19h22.08.656,phx_ver10,2022.2.5,Linux x86_64,60.0240096,,,,,,,,,,,,129,testing_3,sh2j,au,sh2j_au,sh2j_1_aushau.wav,sh2j_1_aushau.wav,,TRUE,FALSE,,,,,,,,,,,,,,f,0.5845,space,0.9768,,,,,,,,0,48,48,128,1,,
5e71ab071b6e9c0d4c356574,2023-06-16_19h22.08.656,phx_ver10,2022.2.5,Linux x86_64,60.0240096,,,,,,,,,,,,132,testing_3,sh2j,au,sh2j_au,sh2j_8_aujau.wav,sh2j_1_aushau.wav,,FALSE,FALSE,,,,,,,,,,,,,,j,0.6017,space,0.9728,,,,,,,,0,49,49,131,1,,
5e71ab071b6e9c0d4c356574,2023-06-16_19h22.08.656,phx_ver10,2022.2.5,Linux x86_64,60.0240096,,,,,,,,,,,,34,testing_3,zh2sh,au,zh2sh_au,zh2sh_8_aushau.wav,zh2sh_8_aushau.wav,,TRUE,FALSE,,,,,,,,,,,,,,f,0.7112,space,1.0565,,,,,,,,0,50,50,33,1,,
5e71ab071b6e9c0d4c356574,2023-06-16_19h22.08.656,phx_ver10,2022.2.5,Linux x86_64,60.0240096,,,,,,,,,,,,33,testing_3,zh2sh,au,zh2sh_au,zh2sh_1_auzhau.wav,zh2sh_1_auzhau.wav,,TRUE,FALSE,,,,,,,,,,,,,,f,0.7893,space,1.1387,,,,,,,,0,51,51,32,1,,
5e71ab071b6e9c0d4c356574,2023-06-16_19h22.08.656,phx_ver10,2022.2.5,Linux x86_64,60.0240096,,,,,,,,,,,,139,testing_3,sh2j,ei,sh2j_ei,sh2j_1_eishei.wav,sh2j_8_eijei.wav,,FALSE,FALSE,,,,,,,,,,,,,,j,0.8512,space,1.2763,,,,,,,,0,52,52,138,1,,
5e71ab071b6e9c0d4c356574,2023-06-16_19h22.08.656,phx_ver10,2022.2.5,Linux x86_64,60.0240096,,,,,,,,,,,,76,testing_3,j2x,a,j2x_a,j2x_8_axa.wav,j2x_1_aja.wav,,FALSE,FALSE,,,,,,,,,,,,,,f,0.8061,space,1.1561,,,,,,,,0,53,53,75,1,,
5e71ab071b6e9c0d4c356574,2023-06-16_19h22.08.656,phx_ver10,2022.2.5,Linux x86_64,60.0240096,,,,,,,,,,,,68,testing_3,zh2j,ei,zh2j_ei,zh2j_8_eijei.wav,zh2j_1_eizhei.wav,,FALSE,FALSE,,,,,,,,,,,,,,f,0.8534,space,1.2286,,,,,,,,0,54,54,67,1,,
5e71ab071b6e9c0d4c356574,2023-06-16_19h22.08.656,phx_ver10,2022.2.5,Linux x86_64,60.0240096,,,,,,,,,,,,98,testing_3,sh2x,a,sh2x_a,sh2x_8_axa.wav,sh2x_8_axa.wav,,TRUE,FALSE,,,,,,,,,,,,,,f,0.503,space,0.8762,,,,,,,,0,55,55,97,1,,
5e71ab071b6e9c0d4c356574,2023-06-16_19h22.08.656,phx_ver10,2022.2.5,Linux x86_64,60.0240096,,,,,,,,,,,,45,testing_3,zh2sh,i,zh2sh_i,zh2sh_1_izhi.wav,zh2sh_1_izhi.wav,,TRUE,FALSE,,,,,,,,,,,,,,f,0.7684,space,1.1436,,,,,,,,0,56,56,44,1,,
5e71ab071b6e9c0d4c356574,2023-06-16_19h22.08.656,phx_ver10,2022.2.5,Linux x86_64,60.0240096,,,,,,,,,,,,2,testing_1,zh2x,a,zh2x_a,zh2x_8_axa.wav,zh2x_8_axa_copy.wav,,TRUE,TRUE,,,,,,,,,,,,,,f,0.7772,space,1.1258,,,,,,,,0,57,57,1,1,,
5e71ab071b6e9c0d4c356574,2023-06-16_19h22.08.656,phx_ver10,2022.2.5,Linux x86_64,60.0240096,,,,,,,,,,,,102,testing_3,sh2x,ai,sh2x_ai,sh2x_8_aixai.wav,sh2x_8_aixai.wav,,TRUE,FALSE,,,,,,,,,,,,,,f,0.6064,space,0.9532,,,,,,,,0,58,58,101,1,,
5e71ab071b6e9c0d4c356574,2023-06-16_19h22.08.656,phx_ver10,2022.2.5,Linux x86_64,60.0240096,,,,,,,,,,,,75,testing_3,j2x,a,j2x_a,j2x_1_aja.wav,j2x_8_axa.wav,,FALSE,FALSE,,,,,,,,,,,,,,f,1.6689,space,2.0345,,,,,,,,0,59,59,74,1,,
5e71ab071b6e9c0d4c356574,2023-06-16_19h22.08.656,phx_ver10,2022.2.5,Linux x86_64,60.0240096,,,,,,,,,,,,112,testing_3,sh2x,e,sh2x_e,sh2x_8_exe.wav,sh2x_1_eshe.wav,,FALSE,FALSE,,,,,,,,,,,,,,f,3.5414,space,3.8517,,,,,,,,0,60,60,111,1,,
5e71ab071b6e9c0d4c356574,2023-06-16_19h22.08.656,phx_ver10,2022.2.5,Linux x86_64,60.0240096,,,,,,,,,,,,71,testing_3,zh2j,i,zh2j_i,zh2j_1_izhi.wav,zh2j_8_iji.wav,,FALSE,FALSE,,,,,,,,,,,,,,j,3.0193,space,3.3852,,,,,,,,0,61,61,70,1,,
5e71ab071b6e9c0d4c356574,2023-06-16_19h22.08.656,phx_ver10,2022.2.5,Linux x86_64,60.0240096,,,,,,,,,,,,90,testing_3,j2x,ei,j2x_ei,j2x_8_eixei.wav,j2x_8_eixei.wav,,TRUE,FALSE,,,,,,,,,,,,,,f,0.5087,space,0.8456,,,,,,,,0,62,62,89,1,,
5e71ab071b6e9c0d4c356574,2023-06-16_19h22.08.656,phx_ver10,2022.2.5,Linux x86_64,60.0240096,,,,,,,,,,,,1,testing_1,zh2x,a,zh2x_a,zh2x_1_azha.wav,zh2x_1_azha_copy.wav,,TRUE,TRUE,,,,,,,,,,,,,,f,0.5709,space,0.9036,,,,,,,,0,63,63,0,1,,
5e71ab071b6e9c0d4c356574,2023-06-16_19h22.08.656,phx_ver10,2022.2.5,Linux x86_64,60.0240096,,,,,,,,,,,,24,testing_2,zh2x,ei,zh2x_ei,zh2x_8_eixei.wav,zh2x_1_eizhei.wav,,FALSE,FALSE,,,,,,,,,,,,,,j,0.8244,space,1.219,,,,,,,,0,64,64,23,1,,
5e71ab071b6e9c0d4c356574,2023-06-16_19h22.08.656,phx_ver10,2022.2.5,Linux x86_64,60.0240096,,,,,,,,,,,,27,testing_3,zh2sh,a,zh2sh_a,zh2sh_1_azha.wav,zh2sh_8_asha.wav,,FALSE,FALSE,,,,,,,,,,,,,,j,1.7109,space,2.3752,,,,,,,,0,65,65,26,1,,
5e71ab071b6e9c0d4c356574,2023-06-16_19h22.08.656,phx_ver10,2022.2.5,Linux x86_64,60.0240096,,,,,,,,,,,,79,testing_3,j2x,ai,j2x_ai,j2x_1_aijai.wav,j2x_8_aixai.wav,,FALSE,FALSE,,,,,,,,,,,,,,f,1.0486,space,1.4179,,,,,,,,0,66,66,78,1,,
5e71ab071b6e9c0d4c356574,2023-06-16_19h22.08.656,phx_ver10,2022.2.5,Linux x86_64,60.0240096,,,,,,,,,,,,53,testing_3,zh2j,ai,zh2j_ai,zh2j_1_aizhai.wav,zh2j_1_aizhai.wav,,TRUE,FALSE,,,,,,,,,,,,,,f,0.5058,space,0.8511,,,,,,,,0,67,67,52,1,,
5e71ab071b6e9c0d4c356574,2023-06-16_19h22.08.656,phx_ver10,2022.2.5,Linux x86_64,60.0240096,,,,,,,,,,,,84,testing_3,j2x,au,j2x_au,j2x_8_auxau.wav,j2x_1_aujau.wav,,FALSE,FALSE,,,,,,,,,,,,,,j,0.4428,space,0.8023,,,,,,,,0,68,68,83,1,,
5e71ab071b6e9c0d4c356574,2023-06-16_19h22.08.656,phx_ver10,2022.2.5,Linux x86_64,60.0240096,,,,,,,,,,,,65,testing_3,zh2j,ei,zh2j_ei,zh2j_1_eizhei.wav,zh2j_1_eizhei.wav,,TRUE,FALSE,,,,,,,,,,,,,,f,0.4847,space,0.8264,,,,,,,,0,69,69,64,1,,
5e71ab071b6e9c0d4c356574,2023-06-16_19h22.08.656,phx_ver10,2022.2.5,Linux x86_64,60.0240096,,,,,,,,,,,,105,testing_3,sh2x,au,sh2x_au,sh2x_1_aushau.wav,sh2x_1_aushau.wav,,TRUE,FALSE,,,,,,,,,,,,,,f,0.5032,space,0.8893,,,,,,,,0,70,70,104,1,,
5e71ab071b6e9c0d4c356574,2023-06-16_19h22.08.656,phx_ver10,2022.2.5,Linux x86_64,60.0240096,,,,,,,,,,,,137,testing_3,sh2j,ei,sh2j_ei,sh2j_1_eishei.wav,sh2j_1_eishei.wav,,TRUE,FALSE,,,,,,,,,,,,,,f,0.5404,space,0.8794,,,,,,,,0,71,71,136,1,,
5e71ab071b6e9c0d4c356574,2023-06-16_19h22.08.656,phx_ver10,2022.2.5,Linux x86_64,60.0240096,,,,,,,,,,,,135,testing_3,sh2j,e,sh2j_e,sh2j_1_eshe.wav,sh2j_8_eje.wav,,FALSE,FALSE,,,,,,,,,,,,,,j,0.5093,space,0.8583,,,,,,,,0,72,72,134,1,,
5e71ab071b6e9c0d4c356574,2023-06-16_19h22.08.656,phx_ver10,2022.2.5,Linux x86_64,60.0240096,,,,,,,,,,,,124,testing_3,sh2j,a,sh2j_a,sh2j_8_aja.wav,sh2j_1_asha.wav,,FALSE,FALSE,,,,,,,,,,,,,,j,0.5188,space,0.8683,,,,,,,,0,73,73,123,1,,
5e71ab071b6e9c0d4c356574,2023-06-16_19h22.08.656,phx_ver10,2022.2.5,Linux x86_64,60.0240096,,,,,,,,,,,,29,testing_3,zh2sh,ai,zh2sh_ai,zh2sh_1_aizhai.wav,zh2sh_1_aizhai.wav,,TRUE,FALSE,,,,,,,,,,,,,,f,0.4129,space,0.7459,,,,,,,,0,74,74,28,1,,
5e71ab071b6e9c0d4c356574,2023-06-16_19h22.08.656,phx_ver10,2022.2.5,Linux x86_64,60.0240096,,,,,,,,,,,,136,testing_3,sh2j,e,sh2j_e,sh2j_8_eje.wav,sh2j_1_eshe.wav,,FALSE,FALSE,,,,,,,,,,,,,,j,0.7271,space,1.0996,,,,,,,,0,75,75,135,1,,
5e71ab071b6e9c0d4c356574,2023-06-16_19h22.08.656,phx_ver10,2022.2.5,Linux x86_64,60.0240096,,,,,,,,,,,,50,testing_3,zh2j,a,zh2j_a,zh2j_8_aja.wav,zh2j_8_aja.wav,,TRUE,FALSE,,,,,,,,,,,,,,f,1.521,space,1.8686,,,,,,,,0,76,76,49,1,,
5e71ab071b6e9c0d4c356574,2023-06-16_19h22.08.656,phx_ver10,2022.2.5,Linux x86_64,60.0240096,,,,,,,,,,,,73,testing_3,j2x,a,j2x_a,j2x_1_aja.wav,j2x_1_aja.wav,,TRUE,FALSE,,,,,,,,,,,,,,f,0.6257,space,0.9941,,,,,,,,0,77,77,72,1,,
5e71ab071b6e9c0d4c356574,2023-06-16_19h22.08.656,phx_ver10,2022.2.5,Linux x86_64,60.0240096,,,,,,,,,,,,142,testing_3,sh2j,i,sh2j_i,sh2j_8_iji.wav,sh2j_8_iji.wav,,TRUE,FALSE,,,,,,,,,,,,,,f,0.6561,space,0.9775,,,,,,,,0,78,78,141,1,,
5e71ab071b6e9c0d4c356574,2023-06-16_19h22.08.656,phx_ver10,2022.2.5,Linux x86_64,60.0240096,,,,,,,,,,,,89,testing_3,j2x,ei,j2x_ei,j2x_1_eijei.wav,j2x_1_eijei.wav,,TRUE,FALSE,,,,,,,,,,,,,,f,0.5861,space,0.9363,,,,,,,,0,79,79,88,1,,
5e71ab071b6e9c0d4c356574,2023-06-16_19h22.08.656,phx_ver10,2022.2.5,Linux x86_64,60.0240096,,,,,,,,,,,,123,testing_3,sh2j,a,sh2j_a,sh2j_1_asha.wav,sh2j_8_aja.wav,,FALSE,FALSE,,,,,,,,,,,,,,j,0.6791,space,1.0367,,,,,,,,0,80,80,122,1,,
5e71ab071b6e9c0d4c356574,2023-06-16_19h22.08.656,phx_ver10,2022.2.5,Linux x86_64,60.0240096,,,,,,,,,,,,32,testing_3,zh2sh,ai,zh2sh_ai,zh2sh_8_aishai.wav,zh2sh_1_aizhai.wav,,FALSE,FALSE,,,,,,,,,,,,,,j,0.8162,space,1.1893,,,,,,,,0,81,81,31,1,,
5e71ab071b6e9c0d4c356574,2023-06-16_19h22.08.656,phx_ver10,2022.2.5,Linux x86_64,60.0240096,,,,,,,,,,,,15,testing_2,zh2x,ai,zh2x_ai,zh2x_1_aizhai.wav,zh2x_8_aixai.wav,,FALSE,FALSE,,,,,,,,,,,,,,j,0.4719,space,0.8195,,,,,,,,0,82,82,14,1,,
5e71ab071b6e9c0d4c356574,2023-06-16_19h22.08.656,phx_ver10,2022.2.5,Linux x86_64,60.0240096,,,,,,,,,,,,103,testing_3,sh2x,ai,sh2x_ai,sh2x_1_aishai.wav,sh2x_8_aixai.wav,,FALSE,FALSE,,,,,,,,,,,,,,j,0.4072,space,0.7536,,,,,,,,0,83,83,102,1,,
5e71ab071b6e9c0d4c356574,2023-06-16_19h22.08.656,phx_ver10,2022.2.5,Linux x86_64,60.0240096,,,,,,,,,,,,87,testing_3,j2x,e,j2x_e,j2x_1_eje.wav,j2x_8_exe.wav,,FALSE,FALSE,,,,,,,,,,,,,,j,1.7829,space,2.0992,,,,,,,,0,84,84,86,1,,
5e71ab071b6e9c0d4c356574,2023-06-16_19h22.08.656,phx_ver10,2022.2.5,Linux x86_64,60.0240096,,,,,,,,,,,,62,testing_3,zh2j,e,zh2j_e,zh2j_8_eje.wav,zh2j_8_eje.wav,,TRUE,FALSE,,,,,,,,,,,,,,f,0.2432,space,0.5791,,,,,,,,0,85,85,61,1,,
5e71ab071b6e9c0d4c356574,2023-06-16_19h22.08.656,phx_ver10,2022.2.5,Linux x86_64,60.0240096,,,,,,,,,,,,25,testing_3,zh2sh,a,zh2sh_a,zh2sh_1_azha.wav,zh2sh_1_azha.wav,,TRUE,FALSE,,,,,,,,,,,,,,f,0.6332,space,0.976,,,,,,,,0,86,86,24,1,,
5e71ab071b6e9c0d4c356574,2023-06-16_19h22.08.656,phx_ver10,2022.2.5,Linux x86_64,60.0240096,,,,,,,,,,,,57,testing_3,zh2j,au,zh2j_au,zh2j_1_auzhau.wav,zh2j_1_auzhau.wav,,TRUE,FALSE,,,,,,,,,,,,,,f,0.4263,space,0.7759,,,,,,,,0,87,87,56,1,,
5e71ab071b6e9c0d4c356574,2023-06-16_19h22.08.656,phx_ver10,2022.2.5,Linux x86_64,60.0240096,,,,,,,,,,,,5,testing_1,zh2x,e,zh2x_e,zh2x_1_ezhe.wav,zh2x_1_ezhe_copy.wav,,TRUE,TRUE,,,,,,,,,,,,,,f,0.4838,space,0.8178,,,,,,,,0,88,88,4,1,,
5e71ab071b6e9c0d4c356574,2023-06-16_19h22.08.656,phx_ver10,2022.2.5,Linux x86_64,60.0240096,,,,,,,,,,,,108,testing_3,sh2x,au,sh2x_au,sh2x_8_auxau.wav,sh2x_1_aushau.wav,,FALSE,FALSE,,,,,,,,,,,,,,j,0.486,space,0.8511,,,,,,,,0,89,89,107,1,,
5e71ab071b6e9c0d4c356574,2023-06-16_19h22.08.656,phx_ver10,2022.2.5,Linux x86_64,60.0240096,,,,,,,,,,,,56,testing_3,zh2j,ai,zh2j_ai,zh2j_8_aijai.wav,zh2j_1_aizhai.wav,,FALSE,FALSE,,,,,,,,,,,,,,j,1.5691,space,1.9706,,,,,,,,0,90,90,55,1,,
5e71ab071b6e9c0d4c356574,2023-06-16_19h22.08.656,phx_ver10,2022.2.5,Linux x86_64,60.0240096,,,,,,,,,,,,99,testing_3,sh2x,a,sh2x_a,sh2x_1_asha.wav,sh2x_8_axa.wav,,FALSE,FALSE,,,,,,,,,,,,,,j,0.5379,space,0.8915,,,,,,,,0,91,91,98,1,,
5e71ab071b6e9c0d4c356574,2023-06-16_19h22.08.656,phx_ver10,2022.2.5,Linux x86_64,60.0240096,,,,,,,,,,,,111,testing_3,sh2x,e,sh2x_e,sh2x_1_eshe.wav,sh2x_8_exe.wav,,FALSE,FALSE,,,,,,,,,,,,,,j,0.82,space,1.1956,,,,,,,,0,92,92,110,1,,
5e71ab071b6e9c0d4c356574,2023-06-16_19h22.08.656,phx_ver10,2022.2.5,Linux x86_64,60.0240096,,,,,,,,,,,,47,testing_3,zh2sh,i,zh2sh_i,zh2sh_1_izhi.wav,zh2sh_8_ishi.wav,,FALSE,FALSE,,,,,,,,,,,,,,j,0.3022,space,0.6755,,,,,,,,0,93,93,46,1,,
5e71ab071b6e9c0d4c356574,2023-06-16_19h22.08.656,phx_ver10,2022.2.5,Linux x86_64,60.0240096,,,,,,,,,,,,106,testing_3,sh2x,au,sh2x_au,sh2x_8_auxau.wav,sh2x_8_auxau.wav,,TRUE,FALSE,,,,,,,,,,,,,,f,0.527,space,0.8689,,,,,,,,0,94,94,105,1,,
5e71ab071b6e9c0d4c356574,2023-06-16_19h22.08.656,phx_ver10,2022.2.5,Linux x86_64,60.0240096,,,,,,,,,,,,17,testing_2,zh2x,au,zh2x_au,zh2x_1_auzhau.wav,zh2x_1_auzhau.wav,,TRUE,FALSE,,,,,,,,,,,,,,f,0.6132,space,0.9547,,,,,,,,0,95,95,16,1,,
5e71ab071b6e9c0d4c356574,2023-06-16_19h22.08.656,phx_ver10,2022.2.5,Linux x86_64,60.0240096,,,,,,,,,,,,49,testing_3,zh2j,a,zh2j_a,zh2j_1_azha.wav,zh2j_1_azha.wav,,TRUE,FALSE,,,,,,,,,,,,,,f,0.6634,space,0.987,,,,,,,,0,96,96,48,1,,
5e71ab071b6e9c0d4c356574,2023-06-16_19h22.08.656,phx_ver10,2022.2.5,Linux x86_64,60.0240096,,,,,,,,,,,,130,testing_3,sh2j,au,sh2j_au,sh2j_8_aujau.wav,sh2j_8_aujau.wav,,TRUE,FALSE,,,,,,,,,,,,,,f,0.4182,space,0.7364,,,,,,,,0,97,97,129,1,,
5e71ab071b6e9c0d4c356574,2023-06-16_19h22.08.656,phx_ver10,2022.2.5,Linux x86_64,60.0240096,,,,,,,,,,,,69,testing_3,zh2j,i,zh2j_i,zh2j_1_izhi.wav,zh2j_1_izhi.wav,,TRUE,FALSE,,,,,,,,,,,,,,f,0.4199,space,0.735,,,,,,,,0,98,98,68,1,,
5e71ab071b6e9c0d4c356574,2023-06-16_19h22.08.656,phx_ver10,2022.2.5,Linux x86_64,60.0240096,,,,,,,,,,,,138,testing_3,sh2j,ei,sh2j_ei,sh2j_8_eijei.wav,sh2j_8_eijei.wav,,TRUE,FALSE,,,,,,,,,,,,,,f,0.3707,space,0.7118,,,,,,,,0,99,99,137,1,,
5e71ab071b6e9c0d4c356574,2023-06-16_19h22.08.656,phx_ver10,2022.2.5,Linux x86_64,60.0240096,,,,,,,,,,,,46,testing_3,zh2sh,i,zh2sh_i,zh2sh_8_ishi.wav,zh2sh_8_ishi.wav,,TRUE,FALSE,,,,,,,,,,,,,,f,0.3109,space,0.7771,,,,,,,,0,100,100,45,1,,
5e71ab071b6e9c0d4c356574,2023-06-16_19h22.08.656,phx_ver10,2022.2.5,Linux x86_64,60.0240096,,,,,,,,,,,,93,testing_3,j2x,i,j2x_i,j2x_1_iji.wav,j2x_1_iji.wav,,TRUE,FALSE,,,,,,,,,,,,,,f,0.2555,space,0.6798,,,,,,,,0,101,101,92,1,,
5e71ab071b6e9c0d4c356574,2023-06-16_19h22.08.656,phx_ver10,2022.2.5,Linux x86_64,60.0240096,,,,,,,,,,,,127,testing_3,sh2j,ai,sh2j_ai,sh2j_1_aishai.wav,sh2j_8_aijai.wav,,FALSE,FALSE,,,,,,,,,,,,,,j,0.2941,space,0.6202,,,,,,,,0,102,102,126,1,,
5e71ab071b6e9c0d4c356574,2023-06-16_19h22.08.656,phx_ver10,2022.2.5,Linux x86_64,60.0240096,,,,,,,,,,,,72,testing_3,zh2j,i,zh2j_i,zh2j_8_iji.wav,zh2j_1_izhi.wav,,FALSE,FALSE,,,,,,,,,,,,,,j,1.2844,space,1.5988,,,,,,,,0,103,103,71,1,,
5e71ab071b6e9c0d4c356574,2023-06-16_19h22.08.656,phx_ver10,2022.2.5,Linux x86_64,60.0240096,,,,,,,,,,,,82,testing_3,j2x,au,j2x_au,j2x_8_auxau.wav,j2x_8_auxau.wav,,TRUE,FALSE,,,,,,,,,,,,,,f,0.5997,space,0.908,,,,,,,,0,104,104,81,1,,
5e71ab071b6e9c0d4c356574,2023-06-16_19h22.08.656,phx_ver10,2022.2.5,Linux x86_64,60.0240096,,,,,,,,,,,,143,testing_3,sh2j,i,sh2j_i,sh2j_1_ishi.wav,sh2j_8_iji.wav,,FALSE,FALSE,,,,,,,,,,,,,,j,0.5216,space,0.8119,,,,,,,,0,105,105,142,1,,
5e71ab071b6e9c0d4c356574,2023-06-16_19h22.08.656,phx_ver10,2022.2.5,Linux x86_64,60.0240096,,,,,,,,,,,,6,testing_1,zh2x,e,zh2x_e,zh2x_8_exe.wav,zh2x_8_exe_copy.wav,,TRUE,TRUE,,,,,,,,,,,,,,f,0.1898,space,0.5443,,,,,,,,0,106,106,5,1,,
5e71ab071b6e9c0d4c356574,2023-06-16_19h22.08.656,phx_ver10,2022.2.5,Linux x86_64,60.0240096,,,,,,,,,,,,131,testing_3,sh2j,au,sh2j_au,sh2j_1_aushau.wav,sh2j_8_aujau.wav,,FALSE,FALSE,,,,,,,,,,,,,,j,0.4256,space,0.7047,,,,,,,,0,107,107,130,1,,
5e71ab071b6e9c0d4c356574,2023-06-16_19h22.08.656,phx_ver10,2022.2.5,Linux x86_64,60.0240096,,,,,,,,,,,,140,testing_3,sh2j,ei,sh2j_ei,sh2j_8_eijei.wav,sh2j_1_eishei.wav,,FALSE,FALSE,,,,,,,,,,,,,,j,0.6356,space,0.9037,,,,,,,,0,108,108,139,1,,
5e71ab071b6e9c0d4c356574,2023-06-16_19h22.08.656,phx_ver10,2022.2.5,Linux x86_64,60.0240096,,,,,,,,,,,,58,testing_3,zh2j,au,zh2j_au,zh2j_8_aujau.wav,zh2j_8_aujau.wav,,TRUE,FALSE,,,,,,,,,,,,,,f,0.3688,space,0.6756,,,,,,,,0,109,109,57,1,,
5e71ab071b6e9c0d4c356574,2023-06-16_19h22.08.656,phx_ver10,2022.2.5,Linux x86_64,60.0240096,,,,,,,,,,,,11,testing_1,zh2x,i,zh2x_i,zh2x_1_izhi.wav,zh2x_8_ixi.wav,,FALSE,TRUE,,,,,,,,,,,,,,j,0.454,space,0.7167,,,,,,,,0,110,110,10,1,,
5e71ab071b6e9c0d4c356574,2023-06-16_19h22.08.656,phx_ver10,2022.2.5,Linux x86_64,60.0240096,,,,,,,,,,,,54,testing_3,zh2j,ai,zh2j_ai,zh2j_8_aijai.wav,zh2j_8_aijai.wav,,TRUE,FALSE,,,,,,,,,,,,,,f,0.4519,space,0.7455,,,,,,,,0,111,111,53,1,,
5e71ab071b6e9c0d4c356574,2023-06-16_19h22.08.656,phx_ver10,2022.2.5,Linux x86_64,60.0240096,,,,,,,,,,,,101,testing_3,sh2x,ai,sh2x_ai,sh2x_1_aishai.wav,sh2x_1_aishai.wav,,TRUE,FALSE,,,,,,,,,,,,,,f,0.1683,space,0.5132,,,,,,,,0,112,112,100,1,,
5e71ab071b6e9c0d4c356574,2023-06-16_19h22.08.656,phx_ver10,2022.2.5,Linux x86_64,60.0240096,,,,,,,,,,,,100,testing_3,sh2x,a,sh2x_a,sh2x_8_axa.wav,sh2x_1_asha.wav,,FALSE,FALSE,,,,,,,,,,,,,,j,0.2105,space,0.5192,,,,,,,,0,113,113,99,1,,
5e71ab071b6e9c0d4c356574,2023-06-16_19h22.08.656,phx_ver10,2022.2.5,Linux x86_64,60.0240096,,,,,,,,,,,,8,testing_1,zh2x,e,zh2x_e,zh2x_8_exe.wav,zh2x_1_ezhe.wav,,FALSE,TRUE,,,,,,,,,,,,,,j,0.4363,space,0.741,,,,,,,,0,114,114,7,1,,
5e71ab071b6e9c0d4c356574,2023-06-16_19h22.08.656,phx_ver10,2022.2.5,Linux x86_64,60.0240096,,,,,,,,,,,,78,testing_3,j2x,ai,j2x_ai,j2x_8_aixai.wav,j2x_8_aixai.wav,,TRUE,FALSE,,,,,,,,,,,,,,f,0.3789,space,0.6699,,,,,,,,0,115,115,77,1,,
5e71ab071b6e9c0d4c356574,2023-06-16_19h22.08.656,phx_ver10,2022.2.5,Linux x86_64,60.0240096,,,,,,,,,,,,115,testing_3,sh2x,ei,sh2x_ei,sh2x_1_eishei.wav,sh2x_8_eixei.wav,,FALSE,FALSE,,,,,,,,,,,,,,j,0.155,space,0.4186,,,,,,,,0,116,116,114,1,,
5e71ab071b6e9c0d4c356574,2023-06-16_19h22.08.656,phx_ver10,2022.2.5,Linux x86_64,60.0240096,,,,,,,,,,,,48,testing_3,zh2sh,i,zh2sh_i,zh2sh_8_ishi.wav,zh2sh_1_izhi.wav,,FALSE,FALSE,,,,,,,,,,,,,,j,0.1553,space,0.4193,,,,,,,,0,117,117,47,1,,
5e71ab071b6e9c0d4c356574,2023-06-16_19h22.08.656,phx_ver10,2022.2.5,Linux x86_64,60.0240096,,,,,,,,,,,,97,testing_3,sh2x,a,sh2x_a,sh2x_1_asha.wav,sh2x_1_asha.wav,,TRUE,FALSE,,,,,,,,,,,,,,f,0.34,space,0.6291,,,,,,,,0,118,118,96,1,,
5e71ab071b6e9c0d4c356574,2023-06-16_19h22.08.656,phx_ver10,2022.2.5,Linux x86_64,60.0240096,,,,,,,,,,,,81,testing_3,j2x,au,j2x_au,j2x_1_aujau.wav,j2x_1_aujau.wav,,TRUE,FALSE,,,,,,,,,,,,,,f,0.3948,space,0.6923,,,,,,,,0,119,119,80,1,,
5e71ab071b6e9c0d4c356574,2023-06-16_19h22.08.656,phx_ver10,2022.2.5,Linux x86_64,60.0240096,,,,,,,,,,,,37,testing_3,zh2sh,e,zh2sh_e,zh2sh_1_ezhe.wav,zh2sh_1_ezhe.wav,,TRUE,FALSE,,,,,,,,,,,,,,f,0.6573,space,0.9286,,,,,,,,0,120,120,36,1,,
5e71ab071b6e9c0d4c356574,2023-06-16_19h22.08.656,phx_ver10,2022.2.5,Linux x86_64,60.0240096,,,,,,,,,,,,59,testing_3,zh2j,au,zh2j_au,zh2j_1_auzhau.wav,zh2j_8_aujau.wav,,FALSE,FALSE,,,,,,,,,,,,,,j,0.5865,space,0.8407,,,,,,,,0,121,121,58,1,,
5e71ab071b6e9c0d4c356574,2023-06-16_19h22.08.656,phx_ver10,2022.2.5,Linux x86_64,60.0240096,,,,,,,,,,,,120,testing_3,sh2x,i,sh2x_i,sh2x_8_ixi.wav,sh2x_1_ishi.wav,,FALSE,FALSE,,,,,,,,,,,,,,j,0.2066,space,0.553,,,,,,,,0,122,122,119,1,,
5e71ab071b6e9c0d4c356574,2023-06-16_19h22.08.656,phx_ver10,2022.2.5,Linux x86_64,60.0240096,,,,,,,,,,,,31,testing_3,zh2sh,ai,zh2sh_ai,zh2sh_1_aizhai.wav,zh2sh_8_aishai.wav,,FALSE,FALSE,,,,,,,,,,,,,,j,0.386,space,0.6735,,,,,,,,0,123,123,30,1,,
5e71ab071b6e9c0d4c356574,2023-06-16_19h22.08.656,phx_ver10,2022.2.5,Linux x86_64,60.0240096,,,,,,,,,,,,52,testing_3,zh2j,a,zh2j_a,zh2j_8_aja.wav,zh2j_1_azha.wav,,FALSE,FALSE,,,,,,,,,,,,,,j,0.3338,space,0.6162,,,,,,,,0,124,124,51,1,,
5e71ab071b6e9c0d4c356574,2023-06-16_19h22.08.656,phx_ver10,2022.2.5,Linux x86_64,60.0240096,,,,,,,,,,,,116,testing_3,sh2x,ei,sh2x_ei,sh2x_8_eixei.wav,sh2x_1_eishei.wav,,FALSE,FALSE,,,,,,,,,,,,,,j,0.2423,space,0.5081,,,,,,,,0,125,125,115,1,,
5e71ab071b6e9c0d4c356574,2023-06-16_19h22.08.656,phx_ver10,2022.2.5,Linux x86_64,60.0240096,,,,,,,,,,,,128,testing_3,sh2j,ai,sh2j_ai,sh2j_8_aijai.wav,sh2j_1_aishai.wav,,FALSE,FALSE,,,,,,,,,,,,,,j,0.2873,space,0.5703,,,,,,,,0,126,126,127,1,,
5e71ab071b6e9c0d4c356574,2023-06-16_19h22.08.656,phx_ver10,2022.2.5,Linux x86_64,60.0240096,,,,,,,,,,,,104,testing_3,sh2x,ai,sh2x_ai,sh2x_8_aixai.wav,sh2x_1_aishai.wav,,FALSE,FALSE,,,,,,,,,,,,,,j,0.3343,space,0.6391,,,,,,,,0,127,127,103,1,,
5e71ab071b6e9c0d4c356574,2023-06-16_19h22.08.656,phx_ver10,2022.2.5,Linux x86_64,60.0240096,,,,,,,,,,,,95,testing_3,j2x,i,j2x_i,j2x_1_iji.wav,j2x_8_ixi.wav,,FALSE,FALSE,,,,,,,,,,,,,,f,0.4666,space,0.7583,,,,,,,,0,128,128,94,1,,
5e71ab071b6e9c0d4c356574,2023-06-16_19h22.08.656,phx_ver10,2022.2.5,Linux x86_64,60.0240096,,,,,,,,,,,,19,testing_2,zh2x,au,zh2x_au,zh2x_1_auzhau.wav,zh2x_8_auxau.wav,,FALSE,FALSE,,,,,,,,,,,,,,j,0.3685,space,0.6692,,,,,,,,0,129,129,18,1,,
5e71ab071b6e9c0d4c356574,2023-06-16_19h22.08.656,phx_ver10,2022.2.5,Linux x86_64,60.0240096,,,,,,,,,,,,60,testing_3,zh2j,au,zh2j_au,zh2j_8_aujau.wav,zh2j_1_auzhau.wav,,FALSE,FALSE,,,,,,,,,,,,,,j,0.2927,space,0.5759,,,,,,,,0,130,130,59,1,,
5e71ab071b6e9c0d4c356574,2023-06-16_19h22.08.656,phx_ver10,2022.2.5,Linux x86_64,60.0240096,,,,,,,,,,,,41,testing_3,zh2sh,ei,zh2sh_ei,zh2sh_1_eizhei.wav,zh2sh_1_eizhei.wav,,TRUE,FALSE,,,,,,,,,,,,,,f,0.5179,space,0.7953,,,,,,,,0,131,131,40,1,,
5e71ab071b6e9c0d4c356574,2023-06-16_19h22.08.656,phx_ver10,2022.2.5,Linux x86_64,60.0240096,,,,,,,,,,,,119,testing_3,sh2x,i,sh2x_i,sh2x_1_ishi.wav,sh2x_8_ixi.wav,,FALSE,FALSE,,,,,,,,,,,,,,j,0.3011,space,0.5532,,,,,,,,0,132,132,118,1,,
5e71ab071b6e9c0d4c356574,2023-06-16_19h22.08.656,phx_ver10,2022.2.5,Linux x86_64,60.0240096,,,,,,,,,,,,77,testing_3,j2x,ai,j2x_ai,j2x_1_aijai.wav,j2x_1_aijai.wav,,TRUE,FALSE,,,,,,,,,,,,,,f,0.5835,space,0.867,,,,,,,,0,133,133,76,1,,
5e71ab071b6e9c0d4c356574,2023-06-16_19h22.08.656,phx_ver10,2022.2.5,Linux x86_64,60.0240096,,,,,,,,,,,,144,testing_3,sh2j,i,sh2j_i,sh2j_8_iji.wav,sh2j_1_ishi.wav,,FALSE,FALSE,,,,,,,,,,,,,,j,0.2877,space,0.5841,,,,,,,,0,134,134,143,1,,
5e71ab071b6e9c0d4c356574,2023-06-16_19h22.08.656,phx_ver10,2022.2.5,Linux x86_64,60.0240096,,,,,,,,,,,,125,testing_3,sh2j,ai,sh2j_ai,sh2j_1_aishai.wav,sh2j_1_aishai.wav,,TRUE,FALSE,,,,,,,,,,,,,,f,0.2023,space,0.5544,,,,,,,,0,135,135,124,1,,
5e71ab071b6e9c0d4c356574,2023-06-16_19h22.08.656,phx_ver10,2022.2.5,Linux x86_64,60.0240096,,,,,,,,,,,,42,testing_3,zh2sh,ei,zh2sh_ei,zh2sh_8_eishei.wav,zh2sh_8_eishei.wav,,TRUE,FALSE,,,,,,,,,,,,,,f,0.3333,space,0.6388,,,,,,,,0,136,136,41,1,,
5e71ab071b6e9c0d4c356574,2023-06-16_19h22.08.656,phx_ver10,2022.2.5,Linux x86_64,60.0240096,,,,,,,,,,,,70,testing_3,zh2j,i,zh2j_i,zh2j_8_iji.wav,zh2j_8_iji.wav,,TRUE,FALSE,,,,,,,,,,,,,,f,0.3041,space,0.605,,,,,,,,0,137,137,69,1,,
5e71ab071b6e9c0d4c356574,2023-06-16_19h22.08.656,phx_ver10,2022.2.5,Linux x86_64,60.0240096,,,,,,,,,,,,43,testing_3,zh2sh,ei,zh2sh_ei,zh2sh_1_eizhei.wav,zh2sh_8_eishei.wav,,FALSE,FALSE,,,,,,,,,,,,,,j,0.7914,space,1.0682,,,,,,,,0,138,138,42,1,,
5e71ab071b6e9c0d4c356574,2023-06-16_19h22.08.656,phx_ver10,2022.2.5,Linux x86_64,60.0240096,,,,,,,,,,,,63,testing_3,zh2j,e,zh2j_e,zh2j_1_ezhe.wav,zh2j_8_eje.wav,,FALSE,FALSE,,,,,,,,,,,,,,j,1.9712,space,2.216,,,,,,,,0,139,139,62,1,,
5e71ab071b6e9c0d4c356574,2023-06-16_19h22.08.656,phx_ver10,2022.2.5,Linux x86_64,60.0240096,,,,,,,,,,,,83,testing_3,j2x,au,j2x_au,j2x_1_aujau.wav,j2x_8_auxau.wav,,FALSE,FALSE,,,,,,,,,,,,,,f,0.7868,space,1.067,,,,,,,,0,140,140,82,1,,
5e71ab071b6e9c0d4c356574,2023-06-16_19h22.08.656,phx_ver10,2022.2.5,Linux x86_64,60.0240096,,,,,,,,,,,,91,testing_3,j2x,ei,j2x_ei,j2x_1_eijei.wav,j2x_8_eixei.wav,,FALSE,FALSE,,,,,,,,,,,,,,j,0.3576,space,0.6059,,,,,,,,0,141,141,90,1,,
5e71ab071b6e9c0d4c356574,2023-06-16_19h22.08.656,phx_ver10,2022.2.5,Linux x86_64,60.0240096,,,,,,,,,,,,92,testing_3,j2x,ei,j2x_ei,j2x_8_eixei.wav,j2x_1_eijei.wav,,FALSE,FALSE,,,,,,,,,,,,,,f,0.4525,space,0.7422,,,,,,,,0,142,142,91,1,,
5e71ab071b6e9c0d4c356574,2023-06-16_19h22.08.656,phx_ver10,2022.2.5,Linux x86_64,60.0240096,,,,,,,,,,,,64,testing_3,zh2j,e,zh2j_e,zh2j_8_eje.wav,zh2j_1_ezhe.wav,,FALSE,FALSE,,,,,,,,,,,,,,f,0.2759,space,0.5604,,,,,,,,0,143,143,63,1,,
5e71ab071b6e9c0d4c356574,2023-06-16_19h22.08.656,phx_ver10,2022.2.5,Linux x86_64,60.0240096,,,,,,,,,,,,,,,,,,,,,,,,,,,,,,,,,,,,,,,,,,,,,,,,,,,space,6.7095
