participant,date,expName,psychopyVersion,OS,frameRate,space_1.keys,space_1.rt,space_2.keys,space_2.rt,space_train.keys,space_train.rt,training.thisRepN,training.thisTrialN,training.thisN,training.thisIndex,training.ran,token_id,task,continuum,vowel,series,sound_1,sound_2,img,same,trained,FJ_attn.keys,FJ_attn.rt,space_attn.keys,space_attn.rt,if_attn_test.thisRepN,if_attn_test.thisTrialN,if_attn_test.thisN,if_attn_test.thisIndex,if_attn_test.ran,space_trans_1.keys,space_trans_1.rt,space_trans_11.keys,space_trans_11.rt,FJ_test.keys,FJ_test.rt,space_test.keys,space_test.rt,testing_pre.thisRepN,testing_pre.thisTrialN,testing_pre.thisN,testing_pre.thisIndex,testing_pre.ran,space_trans_2.keys,space_trans_2.rt,testing_all.thisRepN,testing_all.thisTrialN,testing_all.thisN,testing_all.thisIndex,testing_all.ran,space_ending.keys,space_ending.rt
5ea0627f31802801d5675c08,2023-06-16_10h15.00.826,phx_ver10,2022.2.5,MacIntel,59.81934558,,,,,,,,,,,,,,,,,,,,,,,,,,,,,,,,,,,,,,,,,,,,,,,,,,,,
5ea0627f31802801d5675c08,2023-06-16_10h15.00.826,phx_ver10,2022.2.5,MacIntel,59.81934558,space,3.1709,,,,,,,,,,,,,,,,,,,,,,,,,,,,,,,,,,,,,,,,,,,,,,,,,,
5ea0627f31802801d5675c08,2023-06-16_10h15.00.826,phx_ver10,2022.2.5,MacIntel,59.81934558,,,space,1.5176,,,,,,,,,,,,,,,,,,,,,,,,,,,,,,,,,,,,,,,,,,,,,,,,
5ea0627f31802801d5675c08,2023-06-16_10h15.00.826,phx_ver10,2022.2.5,MacIntel,59.81934558,,,,,space,4.1958,0,0,0,36,1,37,training,zh2x,i,zh2x_i,zh2x_2_izhi.wav,,izhi.jpg,,,,,,,,,,,,,,,,,,,,,,,,,,,,,,,,,
5ea0627f31802801d5675c08,2023-06-16_10h15.00.826,phx_ver10,2022.2.5,MacIntel,59.81934558,,,,,space,2.9103,0,1,1,6,1,7,training,zh2x,a,zh2x_a,zh2x_3_azha.wav,,azha.jpg,,,,,,,,,,,,,,,,,,,,,,,,,,,,,,,,,
5ea0627f31802801d5675c08,2023-06-16_10h15.00.826,phx_ver10,2022.2.5,MacIntel,59.81934558,,,,,space,1.7371,0,2,2,28,1,29,training,zh2x,e,zh2x_e,zh2x_7_exe.wav,,exe.jpg,,,,,,,,,,,,,,,,,,,,,,,,,,,,,,,,,
5ea0627f31802801d5675c08,2023-06-16_10h15.00.826,phx_ver10,2022.2.5,MacIntel,59.81934558,,,,,space,4.0862,0,3,3,13,1,14,training,zh2x,a,zh2x_a,zh2x_7_axa.wav,,axa.jpg,,,,,,,,,,,,,,,,,,,,,,,,,,,,,,,,,
5ea0627f31802801d5675c08,2023-06-16_10h15.00.826,phx_ver10,2022.2.5,MacIntel,59.81934558,,,,,space,2.4561,0,4,4,23,1,24,training,zh2x,e,zh2x_e,zh2x_4_ezhe.wav,,ezhe.jpg,,,,,,,,,,,,,,,,,,,,,,,,,,,,,,,,,
5ea0627f31802801d5675c08,2023-06-16_10h15.00.826,phx_ver10,2022.2.5,MacIntel,59.81934558,,,,,space,2.4563,0,5,5,32,1,33,training,zh2x,i,zh2x_i,zh2x_1_izhi.wav,,izhi.jpg,,,,,,,,,,,,,,,,,,,,,,,,,,,,,,,,,
5ea0627f31802801d5675c08,2023-06-16_10h15.00.826,phx_ver10,2022.2.5,MacIntel,59.81934558,,,,,,,,,,,,,attn_test,,,,zh2x_1_azha.wav,zh2x_1_izhi.wav,azha.jpg,LEFT,,f,17.7203,space,24.9901,0,0,0,0,1,,,,,,,,,,,,,,,,,,,,,,
5ea0627f31802801d5675c08,2023-06-16_10h15.00.826,phx_ver10,2022.2.5,MacIntel,59.81934558,,,,,space,2.4606,0,6,6,26,1,27,training,zh2x,e,zh2x_e,zh2x_6_exe.wav,,exe.jpg,,,,,,,,,,,,,,,,,,,,,,,,,,,,,,,,,
5ea0627f31802801d5675c08,2023-06-16_10h15.00.826,phx_ver10,2022.2.5,MacIntel,59.81934558,,,,,space,5.2117,0,7,7,46,1,47,training,zh2x,i,zh2x_i,zh2x_7_ixi.wav,,ixi.jpg,,,,,,,,,,,,,,,,,,,,,,,,,,,,,,,,,
5ea0627f31802801d5675c08,2023-06-16_10h15.00.826,phx_ver10,2022.2.5,MacIntel,59.81934558,,,,,space,0.8207,0,8,8,39,1,40,training,zh2x,i,zh2x_i,zh2x_4_izhi.wav,,izhi.jpg,,,,,,,,,,,,,,,,,,,,,,,,,,,,,,,,,
5ea0627f31802801d5675c08,2023-06-16_10h15.00.826,phx_ver10,2022.2.5,MacIntel,59.81934558,,,,,space,0.5733,0,9,9,45,1,46,training,zh2x,i,zh2x_i,zh2x_7_ixi.wav,,ixi.jpg,,,,,,,,,,,,,,,,,,,,,,,,,,,,,,,,,
5ea0627f31802801d5675c08,2023-06-16_10h15.00.826,phx_ver10,2022.2.5,MacIntel,59.81934558,,,,,space,0.2236,0,10,10,40,1,41,training,zh2x,i,zh2x_i,zh2x_5_ixi.wav,,ixi.jpg,,,,,,,,,,,,,,,,,,,,,,,,,,,,,,,,,
5ea0627f31802801d5675c08,2023-06-16_10h15.00.826,phx_ver10,2022.2.5,MacIntel,59.81934558,,,,,space,0.8364,0,11,11,4,1,5,training,zh2x,a,zh2x_a,zh2x_2_azha.wav,,azha.jpg,,,,,,,,,,,,,,,,,,,,,,,,,,,,,,,,,
5ea0627f31802801d5675c08,2023-06-16_10h15.00.826,phx_ver10,2022.2.5,MacIntel,59.81934558,,,,,,,,,,,,,attn_test,,,,zh2x_1_ezhe.wav,zh2x_8_exe.wav,exe.jpg,RIGHT,,f,7.9411,space,13.5068,0,0,0,0,1,,,,,,,,,,,,,,,,,,,,,,
5ea0627f31802801d5675c08,2023-06-16_10h15.00.826,phx_ver10,2022.2.5,MacIntel,59.81934558,,,,,space,1.9718,0,12,12,2,1,3,training,zh2x,a,zh2x_a,zh2x_2_azha.wav,,azha.jpg,,,,,,,,,,,,,,,,,,,,,,,,,,,,,,,,,
5ea0627f31802801d5675c08,2023-06-16_10h15.00.826,phx_ver10,2022.2.5,MacIntel,59.81934558,,,,,space,0.8509,0,13,13,15,1,16,training,zh2x,a,zh2x_a,zh2x_8_axa.wav,,axa.jpg,,,,,,,,,,,,,,,,,,,,,,,,,,,,,,,,,
5ea0627f31802801d5675c08,2023-06-16_10h15.00.826,phx_ver10,2022.2.5,MacIntel,59.81934558,,,,,space,0.7853,0,14,14,9,1,10,training,zh2x,a,zh2x_a,zh2x_6_axa.wav,,axa.jpg,,,,,,,,,,,,,,,,,,,,,,,,,,,,,,,,,
5ea0627f31802801d5675c08,2023-06-16_10h15.00.826,phx_ver10,2022.2.5,MacIntel,59.81934558,,,,,space,1.7408,0,15,15,30,1,31,training,zh2x,e,zh2x_e,zh2x_7_exe.wav,,exe.jpg,,,,,,,,,,,,,,,,,,,,,,,,,,,,,,,,,
5ea0627f31802801d5675c08,2023-06-16_10h15.00.826,phx_ver10,2022.2.5,MacIntel,59.81934558,,,,,space,0.4171,0,16,16,24,1,25,training,zh2x,e,zh2x_e,zh2x_5_exe.wav,,exe.jpg,,,,,,,,,,,,,,,,,,,,,,,,,,,,,,,,,
5ea0627f31802801d5675c08,2023-06-16_10h15.00.826,phx_ver10,2022.2.5,MacIntel,59.81934558,,,,,space,0.2674,0,17,17,17,1,18,training,zh2x,e,zh2x_e,zh2x_2_ezhe.wav,,ezhe.jpg,,,,,,,,,,,,,,,,,,,,,,,,,,,,,,,,,
5ea0627f31802801d5675c08,2023-06-16_10h15.00.826,phx_ver10,2022.2.5,MacIntel,59.81934558,,,,,,,,,,,,,attn_test,,,,zh2x_1_azha.wav,zh2x_8_axa.wav,axa.jpg,RIGHT,,f,2.1937,space,3.1307,0,0,0,0,1,,,,,,,,,,,,,,,,,,,,,,
5ea0627f31802801d5675c08,2023-06-16_10h15.00.826,phx_ver10,2022.2.5,MacIntel,59.81934558,,,,,space,0.7852,0,18,18,22,1,23,training,zh2x,e,zh2x_e,zh2x_3_ezhe.wav,,ezhe.jpg,,,,,,,,,,,,,,,,,,,,,,,,,,,,,,,,,
5ea0627f31802801d5675c08,2023-06-16_10h15.00.826,phx_ver10,2022.2.5,MacIntel,59.81934558,,,,,space,0.3853,0,19,19,42,1,43,training,zh2x,i,zh2x_i,zh2x_6_ixi.wav,,ixi.jpg,,,,,,,,,,,,,,,,,,,,,,,,,,,,,,,,,
5ea0627f31802801d5675c08,2023-06-16_10h15.00.826,phx_ver10,2022.2.5,MacIntel,59.81934558,,,,,space,1.0563,0,20,20,29,1,30,training,zh2x,e,zh2x_e,zh2x_7_exe.wav,,exe.jpg,,,,,,,,,,,,,,,,,,,,,,,,,,,,,,,,,
5ea0627f31802801d5675c08,2023-06-16_10h15.00.826,phx_ver10,2022.2.5,MacIntel,59.81934558,,,,,space,0.1355,0,21,21,25,1,26,training,zh2x,e,zh2x_e,zh2x_6_exe.wav,,exe.jpg,,,,,,,,,,,,,,,,,,,,,,,,,,,,,,,,,
5ea0627f31802801d5675c08,2023-06-16_10h15.00.826,phx_ver10,2022.2.5,MacIntel,59.81934558,,,,,space,0.2182,0,22,22,19,1,20,training,zh2x,e,zh2x_e,zh2x_2_ezhe.wav,,ezhe.jpg,,,,,,,,,,,,,,,,,,,,,,,,,,,,,,,,,
5ea0627f31802801d5675c08,2023-06-16_10h15.00.826,phx_ver10,2022.2.5,MacIntel,59.81934558,,,,,space,0.0823,0,23,23,8,1,9,training,zh2x,a,zh2x_a,zh2x_5_axa.wav,,axa.jpg,,,,,,,,,,,,,,,,,,,,,,,,,,,,,,,,,
5ea0627f31802801d5675c08,2023-06-16_10h15.00.826,phx_ver10,2022.2.5,MacIntel,59.81934558,,,,,,,,,,,,,attn_test,,,,zh2x_8_exe.wav,zh2x_1_izhi.wav,exe.jpg,LEFT,,f,1.9419,space,3.5284,0,0,0,0,1,,,,,,,,,,,,,,,,,,,,,,
5ea0627f31802801d5675c08,2023-06-16_10h15.00.826,phx_ver10,2022.2.5,MacIntel,59.81934558,,,,,space,0.6036,0,24,24,34,1,35,training,zh2x,i,zh2x_i,zh2x_2_izhi.wav,,izhi.jpg,,,,,,,,,,,,,,,,,,,,,,,,,,,,,,,,,
5ea0627f31802801d5675c08,2023-06-16_10h15.00.826,phx_ver10,2022.2.5,MacIntel,59.81934558,,,,,space,0.3218,0,25,25,18,1,19,training,zh2x,e,zh2x_e,zh2x_2_ezhe.wav,,ezhe.jpg,,,,,,,,,,,,,,,,,,,,,,,,,,,,,,,,,
5ea0627f31802801d5675c08,2023-06-16_10h15.00.826,phx_ver10,2022.2.5,MacIntel,59.81934558,,,,,space,0.0243,0,26,26,10,1,11,training,zh2x,a,zh2x_a,zh2x_6_axa.wav,,axa.jpg,,,,,,,,,,,,,,,,,,,,,,,,,,,,,,,,,
5ea0627f31802801d5675c08,2023-06-16_10h15.00.826,phx_ver10,2022.2.5,MacIntel,59.81934558,,,,,space,0.1056,0,27,27,21,1,22,training,zh2x,e,zh2x_e,zh2x_3_ezhe.wav,,ezhe.jpg,,,,,,,,,,,,,,,,,,,,,,,,,,,,,,,,,
5ea0627f31802801d5675c08,2023-06-16_10h15.00.826,phx_ver10,2022.2.5,MacIntel,59.81934558,,,,,space,0.1338,0,28,28,35,1,36,training,zh2x,i,zh2x_i,zh2x_2_izhi.wav,,izhi.jpg,,,,,,,,,,,,,,,,,,,,,,,,,,,,,,,,,
5ea0627f31802801d5675c08,2023-06-16_10h15.00.826,phx_ver10,2022.2.5,MacIntel,59.81934558,,,,,space,1.3878,0,29,29,31,1,32,training,zh2x,e,zh2x_e,zh2x_8_exe.wav,,exe.jpg,,,,,,,,,,,,,,,,,,,,,,,,,,,,,,,,,
5ea0627f31802801d5675c08,2023-06-16_10h15.00.826,phx_ver10,2022.2.5,MacIntel,59.81934558,,,,,,,,,,,,,attn_test,,,,zh2x_8_exe.wav,zh2x_1_ezhe.wav,ezhe.jpg,RIGHT,,f,1.4221,space,2.3565,0,0,0,0,1,,,,,,,,,,,,,,,,,,,,,,
5ea0627f31802801d5675c08,2023-06-16_10h15.00.826,phx_ver10,2022.2.5,MacIntel,59.81934558,,,,,space,1.4706,0,30,30,0,1,1,training,zh2x,a,zh2x_a,zh2x_1_azha.wav,,azha.jpg,,,,,,,,,,,,,,,,,,,,,,,,,,,,,,,,,
5ea0627f31802801d5675c08,2023-06-16_10h15.00.826,phx_ver10,2022.2.5,MacIntel,59.81934558,,,,,space,0.0991,0,31,31,33,1,34,training,zh2x,i,zh2x_i,zh2x_2_izhi.wav,,izhi.jpg,,,,,,,,,,,,,,,,,,,,,,,,,,,,,,,,,
5ea0627f31802801d5675c08,2023-06-16_10h15.00.826,phx_ver10,2022.2.5,MacIntel,59.81934558,,,,,space,0.6529,0,32,32,1,1,2,training,zh2x,a,zh2x_a,zh2x_2_azha.wav,,azha.jpg,,,,,,,,,,,,,,,,,,,,,,,,,,,,,,,,,
5ea0627f31802801d5675c08,2023-06-16_10h15.00.826,phx_ver10,2022.2.5,MacIntel,59.81934558,,,,,space,0.0507,0,33,33,16,1,17,training,zh2x,e,zh2x_e,zh2x_1_ezhe.wav,,ezhe.jpg,,,,,,,,,,,,,,,,,,,,,,,,,,,,,,,,,
5ea0627f31802801d5675c08,2023-06-16_10h15.00.826,phx_ver10,2022.2.5,MacIntel,59.81934558,,,,,space,0.0376,0,34,34,47,1,48,training,zh2x,i,zh2x_i,zh2x_8_ixi.wav,,ixi.jpg,,,,,,,,,,,,,,,,,,,,,,,,,,,,,,,,,
5ea0627f31802801d5675c08,2023-06-16_10h15.00.826,phx_ver10,2022.2.5,MacIntel,59.81934558,,,,,space,0.4672,0,35,35,11,1,12,training,zh2x,a,zh2x_a,zh2x_7_axa.wav,,axa.jpg,,,,,,,,,,,,,,,,,,,,,,,,,,,,,,,,,
5ea0627f31802801d5675c08,2023-06-16_10h15.00.826,phx_ver10,2022.2.5,MacIntel,59.81934558,,,,,,,,,,,,,attn_test,,,,zh2x_1_azha.wav,zh2x_8_exe.wav,azha.jpg,LEFT,,f,2.1432,space,2.712,0,0,0,0,1,,,,,,,,,,,,,,,,,,,,,,
5ea0627f31802801d5675c08,2023-06-16_10h15.00.826,phx_ver10,2022.2.5,MacIntel,59.81934558,,,,,space,0.4257,0,36,36,27,1,28,training,zh2x,e,zh2x_e,zh2x_7_exe.wav,,exe.jpg,,,,,,,,,,,,,,,,,,,,,,,,,,,,,,,,,
5ea0627f31802801d5675c08,2023-06-16_10h15.00.826,phx_ver10,2022.2.5,MacIntel,59.81934558,,,,,space,0.4347,0,37,37,41,1,42,training,zh2x,i,zh2x_i,zh2x_6_ixi.wav,,ixi.jpg,,,,,,,,,,,,,,,,,,,,,,,,,,,,,,,,,
5ea0627f31802801d5675c08,2023-06-16_10h15.00.826,phx_ver10,2022.2.5,MacIntel,59.81934558,,,,,space,0.3768,0,38,38,37,1,38,training,zh2x,i,zh2x_i,zh2x_3_izhi.wav,,izhi.jpg,,,,,,,,,,,,,,,,,,,,,,,,,,,,,,,,,
5ea0627f31802801d5675c08,2023-06-16_10h15.00.826,phx_ver10,2022.2.5,MacIntel,59.81934558,,,,,space,0.4543,0,39,39,7,1,8,training,zh2x,a,zh2x_a,zh2x_4_azha.wav,,azha.jpg,,,,,,,,,,,,,,,,,,,,,,,,,,,,,,,,,
5ea0627f31802801d5675c08,2023-06-16_10h15.00.826,phx_ver10,2022.2.5,MacIntel,59.81934558,,,,,space,0.3163,0,40,40,38,1,39,training,zh2x,i,zh2x_i,zh2x_3_izhi.wav,,izhi.jpg,,,,,,,,,,,,,,,,,,,,,,,,,,,,,,,,,
5ea0627f31802801d5675c08,2023-06-16_10h15.00.826,phx_ver10,2022.2.5,MacIntel,59.81934558,,,,,space,0.0809,0,41,41,5,1,6,training,zh2x,a,zh2x_a,zh2x_3_azha.wav,,azha.jpg,,,,,,,,,,,,,,,,,,,,,,,,,,,,,,,,,
5ea0627f31802801d5675c08,2023-06-16_10h15.00.826,phx_ver10,2022.2.5,MacIntel,59.81934558,,,,,,,,,,,,,attn_test,,,,zh2x_8_exe.wav,zh2x_8_ixi.wav,exe.jpg,LEFT,,f,2.4582,space,3.1113,0,0,0,0,1,,,,,,,,,,,,,,,,,,,,,,
5ea0627f31802801d5675c08,2023-06-16_10h15.00.826,phx_ver10,2022.2.5,MacIntel,59.81934558,,,,,space,0.8235,0,42,42,44,1,45,training,zh2x,i,zh2x_i,zh2x_7_ixi.wav,,ixi.jpg,,,,,,,,,,,,,,,,,,,,,,,,,,,,,,,,,
5ea0627f31802801d5675c08,2023-06-16_10h15.00.826,phx_ver10,2022.2.5,MacIntel,59.81934558,,,,,space,0.3512,0,43,43,3,1,4,training,zh2x,a,zh2x_a,zh2x_2_azha.wav,,azha.jpg,,,,,,,,,,,,,,,,,,,,,,,,,,,,,,,,,
5ea0627f31802801d5675c08,2023-06-16_10h15.00.826,phx_ver10,2022.2.5,MacIntel,59.81934558,,,,,space,1.5718,0,44,44,20,1,21,training,zh2x,e,zh2x_e,zh2x_2_ezhe.wav,,ezhe.jpg,,,,,,,,,,,,,,,,,,,,,,,,,,,,,,,,,
5ea0627f31802801d5675c08,2023-06-16_10h15.00.826,phx_ver10,2022.2.5,MacIntel,59.81934558,,,,,space,0.6916,0,45,45,43,1,44,training,zh2x,i,zh2x_i,zh2x_7_ixi.wav,,ixi.jpg,,,,,,,,,,,,,,,,,,,,,,,,,,,,,,,,,
5ea0627f31802801d5675c08,2023-06-16_10h15.00.826,phx_ver10,2022.2.5,MacIntel,59.81934558,,,,,space,0.4591,0,46,46,14,1,15,training,zh2x,a,zh2x_a,zh2x_7_axa.wav,,axa.jpg,,,,,,,,,,,,,,,,,,,,,,,,,,,,,,,,,
5ea0627f31802801d5675c08,2023-06-16_10h15.00.826,phx_ver10,2022.2.5,MacIntel,59.81934558,,,,,space,0.1712,0,47,47,12,1,13,training,zh2x,a,zh2x_a,zh2x_7_axa.wav,,axa.jpg,,,,,,,,,,,,,,,,,,,,,,,,,,,,,,,,,
5ea0627f31802801d5675c08,2023-06-16_10h15.00.826,phx_ver10,2022.2.5,MacIntel,59.81934558,,,,,,,,,,,,,attn_test,,,,zh2x_1_ezhe.wav,zh2x_1_azha.wav,ezhe.jpg,LEFT,,f,5.2011,space,5.8014,,,,,,,,,,,,,,,,,,,,,,,,,,,
5ea0627f31802801d5675c08,2023-06-16_10h15.00.826,phx_ver10,2022.2.5,MacIntel,59.81934558,,,,,,,,,,,,,,,,,,,,,,,,,,,,,,,space,16.2211,,,,,,,,,,,,,,,,,,,,
5ea0627f31802801d5675c08,2023-06-16_10h15.00.826,phx_ver10,2022.2.5,MacIntel,59.81934558,,,,,,,,,,,,,,,,,,,,,,,,,,,,,,,,,space,7.6862,,,,,,,,,,,,,,,,,,
5ea0627f31802801d5675c08,2023-06-16_10h15.00.826,phx_ver10,2022.2.5,MacIntel,59.81934558,,,,,,,,,,,,5,testing_pre,,,,ihi.wav,ifi.wav,,FALSE,,,,,,,,,,,,,,,j,4.3453,space,5.9344,0,0,0,4,1,,,,,,,,,
5ea0627f31802801d5675c08,2023-06-16_10h15.00.826,phx_ver10,2022.2.5,MacIntel,59.81934558,,,,,,,,,,,,2,testing_pre,,,,auhau.wav,aufau.wav,,FALSE,,,,,,,,,,,,,,,j,1.2896,space,2.0732,0,1,1,1,1,,,,,,,,,
5ea0627f31802801d5675c08,2023-06-16_10h15.00.826,phx_ver10,2022.2.5,MacIntel,59.81934558,,,,,,,,,,,,1,testing_pre,,,,ifi.wav,ifi.wav,,TRUE,,,,,,,,,,,,,,,f,1.0206,space,1.655,0,2,2,0,1,,,,,,,,,
5ea0627f31802801d5675c08,2023-06-16_10h15.00.826,phx_ver10,2022.2.5,MacIntel,59.81934558,,,,,,,,,,,,4,testing_pre,,,,eihei.wav,eihei.wav,,TRUE,,,,,,,,,,,,,,,f,1.1917,space,1.6737,0,3,3,3,1,,,,,,,,,
5ea0627f31802801d5675c08,2023-06-16_10h15.00.826,phx_ver10,2022.2.5,MacIntel,59.81934558,,,,,,,,,,,,3,testing_pre,,,,afa.wav,aha.wav,,FALSE,,,,,,,,,,,,,,,j,1.0016,space,2.0392,0,4,4,2,1,,,,,,,,,
5ea0627f31802801d5675c08,2023-06-16_10h15.00.826,phx_ver10,2022.2.5,MacIntel,59.81934558,,,,,,,,,,,,,,,,,,,,,,,,,,,,,,,,,,,,,,,,,,,,space,2.5268,,,,,,,
5ea0627f31802801d5675c08,2023-06-16_10h15.00.826,phx_ver10,2022.2.5,MacIntel,59.81934558,,,,,,,,,,,,67,testing_3,zh2j,ei,zh2j_ei,zh2j_1_eizhei.wav,zh2j_8_eijei.wav,,FALSE,FALSE,,,,,,,,,,,,,,f,3.3954,space,4.0461,,,,,,,,0,0,0,66,1,,
5ea0627f31802801d5675c08,2023-06-16_10h15.00.826,phx_ver10,2022.2.5,MacIntel,59.81934558,,,,,,,,,,,,83,testing_3,j2x,au,j2x_au,j2x_1_aujau.wav,j2x_8_auxau.wav,,FALSE,FALSE,,,,,,,,,,,,,,j,3.7464,space,5.0669,,,,,,,,0,1,1,82,1,,
5ea0627f31802801d5675c08,2023-06-16_10h15.00.826,phx_ver10,2022.2.5,MacIntel,59.81934558,,,,,,,,,,,,97,testing_3,sh2x,a,sh2x_a,sh2x_1_asha.wav,sh2x_1_asha.wav,,TRUE,FALSE,,,,,,,,,,,,,,f,0.8535,space,5.2494,,,,,,,,0,2,2,96,1,,
5ea0627f31802801d5675c08,2023-06-16_10h15.00.826,phx_ver10,2022.2.5,MacIntel,59.81934558,,,,,,,,,,,,6,testing_1,zh2x,e,zh2x_e,zh2x_8_exe.wav,zh2x_8_exe_copy.wav,,TRUE,TRUE,,,,,,,,,,,,,,f,0.6188,space,1.2527,,,,,,,,0,3,3,5,1,,
5ea0627f31802801d5675c08,2023-06-16_10h15.00.826,phx_ver10,2022.2.5,MacIntel,59.81934558,,,,,,,,,,,,8,testing_1,zh2x,e,zh2x_e,zh2x_8_exe.wav,zh2x_1_ezhe.wav,,FALSE,TRUE,,,,,,,,,,,,,,j,0.8363,space,1.239,,,,,,,,0,4,4,7,1,,
5ea0627f31802801d5675c08,2023-06-16_10h15.00.826,phx_ver10,2022.2.5,MacIntel,59.81934558,,,,,,,,,,,,135,testing_3,sh2j,e,sh2j_e,sh2j_1_eshe.wav,sh2j_8_eje.wav,,FALSE,FALSE,,,,,,,,,,,,,,j,1.1034,space,1.6879,,,,,,,,0,5,5,134,1,,
5ea0627f31802801d5675c08,2023-06-16_10h15.00.826,phx_ver10,2022.2.5,MacIntel,59.81934558,,,,,,,,,,,,115,testing_3,sh2x,ei,sh2x_ei,sh2x_1_eishei.wav,sh2x_8_eixei.wav,,FALSE,FALSE,,,,,,,,,,,,,,j,0.7683,space,1.2225,,,,,,,,0,6,6,114,1,,
5ea0627f31802801d5675c08,2023-06-16_10h15.00.826,phx_ver10,2022.2.5,MacIntel,59.81934558,,,,,,,,,,,,51,testing_3,zh2j,a,zh2j_a,zh2j_1_azha.wav,zh2j_8_aja.wav,,FALSE,FALSE,,,,,,,,,,,,,,f,1.7572,space,2.1415,,,,,,,,0,7,7,50,1,,
5ea0627f31802801d5675c08,2023-06-16_10h15.00.826,phx_ver10,2022.2.5,MacIntel,59.81934558,,,,,,,,,,,,139,testing_3,sh2j,ei,sh2j_ei,sh2j_1_eishei.wav,sh2j_8_eijei.wav,,FALSE,FALSE,,,,,,,,,,,,,,j,0.8846,space,1.3892,,,,,,,,0,8,8,138,1,,
5ea0627f31802801d5675c08,2023-06-16_10h15.00.826,phx_ver10,2022.2.5,MacIntel,59.81934558,,,,,,,,,,,,42,testing_3,zh2sh,ei,zh2sh_ei,zh2sh_8_eishei.wav,zh2sh_8_eishei.wav,,TRUE,FALSE,,,,,,,,,,,,,,f,0.821,space,1.321,,,,,,,,0,9,9,41,1,,
5ea0627f31802801d5675c08,2023-06-16_10h15.00.826,phx_ver10,2022.2.5,MacIntel,59.81934558,,,,,,,,,,,,18,testing_2,zh2x,au,zh2x_au,zh2x_8_auxau.wav,zh2x_8_auxau.wav,,TRUE,FALSE,,,,,,,,,,,,,,f,0.8562,space,1.1701,,,,,,,,0,10,10,17,1,,
5ea0627f31802801d5675c08,2023-06-16_10h15.00.826,phx_ver10,2022.2.5,MacIntel,59.81934558,,,,,,,,,,,,140,testing_3,sh2j,ei,sh2j_ei,sh2j_8_eijei.wav,sh2j_1_eishei.wav,,FALSE,FALSE,,,,,,,,,,,,,,j,0.7712,space,1.188,,,,,,,,0,11,11,139,1,,
5ea0627f31802801d5675c08,2023-06-16_10h15.00.826,phx_ver10,2022.2.5,MacIntel,59.81934558,,,,,,,,,,,,119,testing_3,sh2x,i,sh2x_i,sh2x_1_ishi.wav,sh2x_8_ixi.wav,,FALSE,FALSE,,,,,,,,,,,,,,f,0.6841,space,1.0359,,,,,,,,0,12,12,118,1,,
5ea0627f31802801d5675c08,2023-06-16_10h15.00.826,phx_ver10,2022.2.5,MacIntel,59.81934558,,,,,,,,,,,,62,testing_3,zh2j,e,zh2j_e,zh2j_8_eje.wav,zh2j_8_eje.wav,,TRUE,FALSE,,,,,,,,,,,,,,f,0.3196,space,0.8223,,,,,,,,0,13,13,61,1,,
5ea0627f31802801d5675c08,2023-06-16_10h15.00.826,phx_ver10,2022.2.5,MacIntel,59.81934558,,,,,,,,,,,,59,testing_3,zh2j,au,zh2j_au,zh2j_1_auzhau.wav,zh2j_8_aujau.wav,,FALSE,FALSE,,,,,,,,,,,,,,f,0.5192,space,0.8035,,,,,,,,0,14,14,58,1,,
5ea0627f31802801d5675c08,2023-06-16_10h15.00.826,phx_ver10,2022.2.5,MacIntel,59.81934558,,,,,,,,,,,,133,testing_3,sh2j,e,sh2j_e,sh2j_1_eshe.wav,sh2j_1_eshe.wav,,TRUE,FALSE,,,,,,,,,,,,,,f,0.1166,space,0.4868,,,,,,,,0,15,15,132,1,,
5ea0627f31802801d5675c08,2023-06-16_10h15.00.826,phx_ver10,2022.2.5,MacIntel,59.81934558,,,,,,,,,,,,96,testing_3,j2x,i,j2x_i,j2x_8_ixi.wav,j2x_1_iji.wav,,FALSE,FALSE,,,,,,,,,,,,,,j,1.3205,space,1.8224,,,,,,,,0,16,16,95,1,,
5ea0627f31802801d5675c08,2023-06-16_10h15.00.826,phx_ver10,2022.2.5,MacIntel,59.81934558,,,,,,,,,,,,114,testing_3,sh2x,ei,sh2x_ei,sh2x_8_eixei.wav,sh2x_8_eixei.wav,,TRUE,FALSE,,,,,,,,,,,,,,f,0.7542,space,0.9714,,,,,,,,0,17,17,113,1,,
5ea0627f31802801d5675c08,2023-06-16_10h15.00.826,phx_ver10,2022.2.5,MacIntel,59.81934558,,,,,,,,,,,,120,testing_3,sh2x,i,sh2x_i,sh2x_8_ixi.wav,sh2x_1_ishi.wav,,FALSE,FALSE,,,,,,,,,,,,,,j,0.7888,space,1.2927,,,,,,,,0,18,18,119,1,,
5ea0627f31802801d5675c08,2023-06-16_10h15.00.826,phx_ver10,2022.2.5,MacIntel,59.81934558,,,,,,,,,,,,20,testing_2,zh2x,au,zh2x_au,zh2x_8_auxau.wav,zh2x_1_auzhau.wav,,FALSE,FALSE,,,,,,,,,,,,,,j,1.4547,space,2.023,,,,,,,,0,19,19,19,1,,
5ea0627f31802801d5675c08,2023-06-16_10h15.00.826,phx_ver10,2022.2.5,MacIntel,59.81934558,,,,,,,,,,,,71,testing_3,zh2j,i,zh2j_i,zh2j_1_izhi.wav,zh2j_8_iji.wav,,FALSE,FALSE,,,,,,,,,,,,,,f,1.3685,space,1.6282,,,,,,,,0,20,20,70,1,,
5ea0627f31802801d5675c08,2023-06-16_10h15.00.826,phx_ver10,2022.2.5,MacIntel,59.81934558,,,,,,,,,,,,144,testing_3,sh2j,i,sh2j_i,sh2j_8_iji.wav,sh2j_1_ishi.wav,,FALSE,FALSE,,,,,,,,,,,,,,j,0.4833,space,0.9196,,,,,,,,0,21,21,143,1,,
5ea0627f31802801d5675c08,2023-06-16_10h15.00.826,phx_ver10,2022.2.5,MacIntel,59.81934558,,,,,,,,,,,,72,testing_3,zh2j,i,zh2j_i,zh2j_8_iji.wav,zh2j_1_izhi.wav,,FALSE,FALSE,,,,,,,,,,,,,,f,0.6689,space,0.9235,,,,,,,,0,22,22,71,1,,
5ea0627f31802801d5675c08,2023-06-16_10h15.00.826,phx_ver10,2022.2.5,MacIntel,59.81934558,,,,,,,,,,,,29,testing_3,zh2sh,ai,zh2sh_ai,zh2sh_1_aizhai.wav,zh2sh_1_aizhai.wav,,TRUE,FALSE,,,,,,,,,,,,,,f,0.6572,space,0.8894,,,,,,,,0,23,23,28,1,,
5ea0627f31802801d5675c08,2023-06-16_10h15.00.826,phx_ver10,2022.2.5,MacIntel,59.81934558,,,,,,,,,,,,66,testing_3,zh2j,ei,zh2j_ei,zh2j_8_eijei.wav,zh2j_8_eijei.wav,,TRUE,FALSE,,,,,,,,,,,,,,f,0.2515,space,0.5573,,,,,,,,0,24,24,65,1,,
5ea0627f31802801d5675c08,2023-06-16_10h15.00.826,phx_ver10,2022.2.5,MacIntel,59.81934558,,,,,,,,,,,,16,testing_2,zh2x,ai,zh2x_ai,zh2x_8_aixai.wav,zh2x_1_aizhai.wav,,FALSE,FALSE,,,,,,,,,,,,,,j,0.5218,space,1.1616,,,,,,,,0,25,25,15,1,,
5ea0627f31802801d5675c08,2023-06-16_10h15.00.826,phx_ver10,2022.2.5,MacIntel,59.81934558,,,,,,,,,,,,123,testing_3,sh2j,a,sh2j_a,sh2j_1_asha.wav,sh2j_8_aja.wav,,FALSE,FALSE,,,,,,,,,,,,,,j,1.202,space,1.5218,,,,,,,,0,26,26,122,1,,
5ea0627f31802801d5675c08,2023-06-16_10h15.00.826,phx_ver10,2022.2.5,MacIntel,59.81934558,,,,,,,,,,,,73,testing_3,j2x,a,j2x_a,j2x_1_aja.wav,j2x_1_aja.wav,,TRUE,FALSE,,,,,,,,,,,,,,f,0.4327,space,0.7014,,,,,,,,0,27,27,72,1,,
5ea0627f31802801d5675c08,2023-06-16_10h15.00.826,phx_ver10,2022.2.5,MacIntel,59.81934558,,,,,,,,,,,,54,testing_3,zh2j,ai,zh2j_ai,zh2j_8_aijai.wav,zh2j_8_aijai.wav,,TRUE,FALSE,,,,,,,,,,,,,,f,0.172,space,0.4378,,,,,,,,0,28,28,53,1,,
5ea0627f31802801d5675c08,2023-06-16_10h15.00.826,phx_ver10,2022.2.5,MacIntel,59.81934558,,,,,,,,,,,,87,testing_3,j2x,e,j2x_e,j2x_1_eje.wav,j2x_8_exe.wav,,FALSE,FALSE,,,,,,,,,,,,,,j,0.9413,space,1.2911,,,,,,,,0,29,29,86,1,,
5ea0627f31802801d5675c08,2023-06-16_10h15.00.826,phx_ver10,2022.2.5,MacIntel,59.81934558,,,,,,,,,,,,2,testing_1,zh2x,a,zh2x_a,zh2x_8_axa.wav,zh2x_8_axa_copy.wav,,TRUE,TRUE,,,,,,,,,,,,,,f,0.9353,space,1.1686,,,,,,,,0,30,30,1,1,,
5ea0627f31802801d5675c08,2023-06-16_10h15.00.826,phx_ver10,2022.2.5,MacIntel,59.81934558,,,,,,,,,,,,122,testing_3,sh2j,a,sh2j_a,sh2j_8_aja.wav,sh2j_8_aja.wav,,TRUE,FALSE,,,,,,,,,,,,,,f,0.3836,space,0.6698,,,,,,,,0,31,31,121,1,,
5ea0627f31802801d5675c08,2023-06-16_10h15.00.826,phx_ver10,2022.2.5,MacIntel,59.81934558,,,,,,,,,,,,126,testing_3,sh2j,ai,sh2j_ai,sh2j_8_aijai.wav,sh2j_8_aijai.wav,,TRUE,FALSE,,,,,,,,,,,,,,f,0.1345,space,0.4761,,,,,,,,0,32,32,125,1,,
5ea0627f31802801d5675c08,2023-06-16_10h15.00.826,phx_ver10,2022.2.5,MacIntel,59.81934558,,,,,,,,,,,,15,testing_2,zh2x,ai,zh2x_ai,zh2x_1_aizhai.wav,zh2x_8_aixai.wav,,FALSE,FALSE,,,,,,,,,,,,,,j,0.4009,space,0.8854,,,,,,,,0,33,33,14,1,,
5ea0627f31802801d5675c08,2023-06-16_10h15.00.826,phx_ver10,2022.2.5,MacIntel,59.81934558,,,,,,,,,,,,49,testing_3,zh2j,a,zh2j_a,zh2j_1_azha.wav,zh2j_1_azha.wav,,TRUE,FALSE,,,,,,,,,,,,,,f,0.4212,space,0.6555,,,,,,,,0,34,34,48,1,,
5ea0627f31802801d5675c08,2023-06-16_10h15.00.826,phx_ver10,2022.2.5,MacIntel,59.81934558,,,,,,,,,,,,70,testing_3,zh2j,i,zh2j_i,zh2j_8_iji.wav,zh2j_8_iji.wav,,TRUE,FALSE,,,,,,,,,,,,,,f,0.6992,space,1.0196,,,,,,,,0,35,35,69,1,,
5ea0627f31802801d5675c08,2023-06-16_10h15.00.826,phx_ver10,2022.2.5,MacIntel,59.81934558,,,,,,,,,,,,116,testing_3,sh2x,ei,sh2x_ei,sh2x_8_eixei.wav,sh2x_1_eishei.wav,,FALSE,FALSE,,,,,,,,,,,,,,j,0.4846,space,0.9036,,,,,,,,0,36,36,115,1,,
5ea0627f31802801d5675c08,2023-06-16_10h15.00.826,phx_ver10,2022.2.5,MacIntel,59.81934558,,,,,,,,,,,,35,testing_3,zh2sh,au,zh2sh_au,zh2sh_1_auzhau.wav,zh2sh_8_aushau.wav,,FALSE,FALSE,,,,,,,,,,,,,,j,0.4682,space,0.8889,,,,,,,,0,37,37,34,1,,
5ea0627f31802801d5675c08,2023-06-16_10h15.00.826,phx_ver10,2022.2.5,MacIntel,59.81934558,,,,,,,,,,,,3,testing_1,zh2x,a,zh2x_a,zh2x_1_azha.wav,zh2x_8_axa.wav,,FALSE,TRUE,,,,,,,,,,,,,,j,1.2075,space,1.4546,,,,,,,,0,38,38,2,1,,
5ea0627f31802801d5675c08,2023-06-16_10h15.00.826,phx_ver10,2022.2.5,MacIntel,59.81934558,,,,,,,,,,,,56,testing_3,zh2j,ai,zh2j_ai,zh2j_8_aijai.wav,zh2j_1_aizhai.wav,,FALSE,FALSE,,,,,,,,,,,,,,f,1.9588,space,2.1745,,,,,,,,0,39,39,55,1,,
5ea0627f31802801d5675c08,2023-06-16_10h15.00.826,phx_ver10,2022.2.5,MacIntel,59.81934558,,,,,,,,,,,,75,testing_3,j2x,a,j2x_a,j2x_1_aja.wav,j2x_8_axa.wav,,FALSE,FALSE,,,,,,,,,,,,,,j,0.3529,space,0.7374,,,,,,,,0,40,40,74,1,,
5ea0627f31802801d5675c08,2023-06-16_10h15.00.826,phx_ver10,2022.2.5,MacIntel,59.81934558,,,,,,,,,,,,81,testing_3,j2x,au,j2x_au,j2x_1_aujau.wav,j2x_1_aujau.wav,,TRUE,FALSE,,,,,,,,,,,,,,f,0.7355,space,0.9235,,,,,,,,0,41,41,80,1,,
5ea0627f31802801d5675c08,2023-06-16_10h15.00.826,phx_ver10,2022.2.5,MacIntel,59.81934558,,,,,,,,,,,,5,testing_1,zh2x,e,zh2x_e,zh2x_1_ezhe.wav,zh2x_1_ezhe_copy.wav,,TRUE,TRUE,,,,,,,,,,,,,,f,0.1502,space,0.416,,,,,,,,0,42,42,4,1,,
5ea0627f31802801d5675c08,2023-06-16_10h15.00.826,phx_ver10,2022.2.5,MacIntel,59.81934558,,,,,,,,,,,,27,testing_3,zh2sh,a,zh2sh_a,zh2sh_1_azha.wav,zh2sh_8_asha.wav,,FALSE,FALSE,,,,,,,,,,,,,,j,0.3313,space,0.7529,,,,,,,,0,43,43,26,1,,
5ea0627f31802801d5675c08,2023-06-16_10h15.00.826,phx_ver10,2022.2.5,MacIntel,59.81934558,,,,,,,,,,,,60,testing_3,zh2j,au,zh2j_au,zh2j_8_aujau.wav,zh2j_1_auzhau.wav,,FALSE,FALSE,,,,,,,,,,,,,,f,0.6868,space,0.924,,,,,,,,0,44,44,59,1,,
5ea0627f31802801d5675c08,2023-06-16_10h15.00.826,phx_ver10,2022.2.5,MacIntel,59.81934558,,,,,,,,,,,,58,testing_3,zh2j,au,zh2j_au,zh2j_8_aujau.wav,zh2j_8_aujau.wav,,TRUE,FALSE,,,,,,,,,,,,,,f,0.9868,space,1.2231,,,,,,,,0,45,45,57,1,,
5ea0627f31802801d5675c08,2023-06-16_10h15.00.826,phx_ver10,2022.2.5,MacIntel,59.81934558,,,,,,,,,,,,80,testing_3,j2x,ai,j2x_ai,j2x_8_aixai.wav,j2x_1_aijai.wav,,FALSE,FALSE,,,,,,,,,,,,,,j,0.3678,space,0.7504,,,,,,,,0,46,46,79,1,,
5ea0627f31802801d5675c08,2023-06-16_10h15.00.826,phx_ver10,2022.2.5,MacIntel,59.81934558,,,,,,,,,,,,82,testing_3,j2x,au,j2x_au,j2x_8_auxau.wav,j2x_8_auxau.wav,,TRUE,FALSE,,,,,,,,,,,,,,f,0.8714,space,1.1034,,,,,,,,0,47,47,81,1,,
5ea0627f31802801d5675c08,2023-06-16_10h15.00.826,phx_ver10,2022.2.5,MacIntel,59.81934558,,,,,,,,,,,,76,testing_3,j2x,a,j2x_a,j2x_8_axa.wav,j2x_1_aja.wav,,FALSE,FALSE,,,,,,,,,,,,,,j,0.3845,space,0.6864,,,,,,,,0,48,48,75,1,,
5ea0627f31802801d5675c08,2023-06-16_10h15.00.826,phx_ver10,2022.2.5,MacIntel,59.81934558,,,,,,,,,,,,100,testing_3,sh2x,a,sh2x_a,sh2x_8_axa.wav,sh2x_1_asha.wav,,FALSE,FALSE,,,,,,,,,,,,,,j,1.9397,space,2.2913,,,,,,,,0,49,49,99,1,,
5ea0627f31802801d5675c08,2023-06-16_10h15.00.826,phx_ver10,2022.2.5,MacIntel,59.81934558,,,,,,,,,,,,4,testing_1,zh2x,a,zh2x_a,zh2x_8_axa.wav,zh2x_1_azha.wav,,FALSE,TRUE,,,,,,,,,,,,,,j,0.5377,space,0.742,,,,,,,,0,50,50,3,1,,
5ea0627f31802801d5675c08,2023-06-16_10h15.00.826,phx_ver10,2022.2.5,MacIntel,59.81934558,,,,,,,,,,,,86,testing_3,j2x,e,j2x_e,j2x_8_exe.wav,j2x_8_exe.wav,,TRUE,FALSE,,,,,,,,,,,,,,f,0.3189,space,0.4823,,,,,,,,0,51,51,85,1,,
5ea0627f31802801d5675c08,2023-06-16_10h15.00.826,phx_ver10,2022.2.5,MacIntel,59.81934558,,,,,,,,,,,,13,testing_2,zh2x,ai,zh2x_ai,zh2x_1_aizhai.wav,zh2x_1_aizhai.wav,,TRUE,FALSE,,,,,,,,,,,,,,f,0.6337,space,0.9496,,,,,,,,0,52,52,12,1,,
5ea0627f31802801d5675c08,2023-06-16_10h15.00.826,phx_ver10,2022.2.5,MacIntel,59.81934558,,,,,,,,,,,,39,testing_3,zh2sh,e,zh2sh_e,zh2sh_1_ezhe.wav,zh2sh_8_eshe.wav,,FALSE,FALSE,,,,,,,,,,,,,,j,0.4688,space,0.8054,,,,,,,,0,53,53,38,1,,
5ea0627f31802801d5675c08,2023-06-16_10h15.00.826,phx_ver10,2022.2.5,MacIntel,59.81934558,,,,,,,,,,,,78,testing_3,j2x,ai,j2x_ai,j2x_8_aixai.wav,j2x_8_aixai.wav,,TRUE,FALSE,,,,,,,,,,,,,,f,0.6654,space,0.8848,,,,,,,,0,54,54,77,1,,
5ea0627f31802801d5675c08,2023-06-16_10h15.00.826,phx_ver10,2022.2.5,MacIntel,59.81934558,,,,,,,,,,,,107,testing_3,sh2x,au,sh2x_au,sh2x_1_aushau.wav,sh2x_8_auxau.wav,,FALSE,FALSE,,,,,,,,,,,,,,f,0.3559,space,0.6009,,,,,,,,0,55,55,106,1,,
5ea0627f31802801d5675c08,2023-06-16_10h15.00.826,phx_ver10,2022.2.5,MacIntel,59.81934558,,,,,,,,,,,,63,testing_3,zh2j,e,zh2j_e,zh2j_1_ezhe.wav,zh2j_8_eje.wav,,FALSE,FALSE,,,,,,,,,,,,,,f,0.1511,space,0.4855,,,,,,,,0,56,56,62,1,,
5ea0627f31802801d5675c08,2023-06-16_10h15.00.826,phx_ver10,2022.2.5,MacIntel,59.81934558,,,,,,,,,,,,1,testing_1,zh2x,a,zh2x_a,zh2x_1_azha.wav,zh2x_1_azha_copy.wav,,TRUE,TRUE,,,,,,,,,,,,,,f,0.3826,space,0.8368,,,,,,,,0,57,57,0,1,,
5ea0627f31802801d5675c08,2023-06-16_10h15.00.826,phx_ver10,2022.2.5,MacIntel,59.81934558,,,,,,,,,,,,46,testing_3,zh2sh,i,zh2sh_i,zh2sh_8_ishi.wav,zh2sh_8_ishi.wav,,TRUE,FALSE,,,,,,,,,,,,,,f,0.1328,space,0.3732,,,,,,,,0,58,58,45,1,,
5ea0627f31802801d5675c08,2023-06-16_10h15.00.826,phx_ver10,2022.2.5,MacIntel,59.81934558,,,,,,,,,,,,88,testing_3,j2x,e,j2x_e,j2x_8_exe.wav,j2x_1_eje.wav,,FALSE,FALSE,,,,,,,,,,,,,,j,0.4132,space,0.7888,,,,,,,,0,59,59,87,1,,
5ea0627f31802801d5675c08,2023-06-16_10h15.00.826,phx_ver10,2022.2.5,MacIntel,59.81934558,,,,,,,,,,,,22,testing_2,zh2x,ei,zh2x_ei,zh2x_8_eixei.wav,zh2x_8_eixei.wav,,TRUE,FALSE,,,,,,,,,,,,,,f,0.4013,space,0.6385,,,,,,,,0,60,60,21,1,,
5ea0627f31802801d5675c08,2023-06-16_10h15.00.826,phx_ver10,2022.2.5,MacIntel,59.81934558,,,,,,,,,,,,10,testing_1,zh2x,i,zh2x_i,zh2x_8_ixi.wav,zh2x_8_ixi_copy.wav,,TRUE,TRUE,,,,,,,,,,,,,,f,0.2557,space,0.5198,,,,,,,,0,61,61,9,1,,
5ea0627f31802801d5675c08,2023-06-16_10h15.00.826,phx_ver10,2022.2.5,MacIntel,59.81934558,,,,,,,,,,,,55,testing_3,zh2j,ai,zh2j_ai,zh2j_1_aizhai.wav,zh2j_8_aijai.wav,,FALSE,FALSE,,,,,,,,,,,,,,f,1.3225,space,1.7541,,,,,,,,0,62,62,54,1,,
5ea0627f31802801d5675c08,2023-06-16_10h15.00.826,phx_ver10,2022.2.5,MacIntel,59.81934558,,,,,,,,,,,,69,testing_3,zh2j,i,zh2j_i,zh2j_1_izhi.wav,zh2j_1_izhi.wav,,TRUE,FALSE,,,,,,,,,,,,,,f,0.0828,space,0.6194,,,,,,,,0,63,63,68,1,,
5ea0627f31802801d5675c08,2023-06-16_10h15.00.826,phx_ver10,2022.2.5,MacIntel,59.81934558,,,,,,,,,,,,93,testing_3,j2x,i,j2x_i,j2x_1_iji.wav,j2x_1_iji.wav,,TRUE,FALSE,,,,,,,,,,,,,,f,0.5685,space,0.9532,,,,,,,,0,64,64,92,1,,
5ea0627f31802801d5675c08,2023-06-16_10h15.00.826,phx_ver10,2022.2.5,MacIntel,59.81934558,,,,,,,,,,,,124,testing_3,sh2j,a,sh2j_a,sh2j_8_aja.wav,sh2j_1_asha.wav,,FALSE,FALSE,,,,,,,,,,,,,,j,0.3184,space,0.8524,,,,,,,,0,65,65,123,1,,
5ea0627f31802801d5675c08,2023-06-16_10h15.00.826,phx_ver10,2022.2.5,MacIntel,59.81934558,,,,,,,,,,,,38,testing_3,zh2sh,e,zh2sh_e,zh2sh_8_eshe.wav,zh2sh_8_eshe.wav,,TRUE,FALSE,,,,,,,,,,,,,,f,0.2017,space,0.5031,,,,,,,,0,66,66,37,1,,
5ea0627f31802801d5675c08,2023-06-16_10h15.00.826,phx_ver10,2022.2.5,MacIntel,59.81934558,,,,,,,,,,,,102,testing_3,sh2x,ai,sh2x_ai,sh2x_8_aixai.wav,sh2x_8_aixai.wav,,TRUE,FALSE,,,,,,,,,,,,,,f,0.2829,space,0.7493,,,,,,,,0,67,67,101,1,,
5ea0627f31802801d5675c08,2023-06-16_10h15.00.826,phx_ver10,2022.2.5,MacIntel,59.81934558,,,,,,,,,,,,26,testing_3,zh2sh,a,zh2sh_a,zh2sh_8_asha.wav,zh2sh_8_asha.wav,,TRUE,FALSE,,,,,,,,,,,,,,f,0.238,space,0.6009,,,,,,,,0,68,68,25,1,,
5ea0627f31802801d5675c08,2023-06-16_10h15.00.826,phx_ver10,2022.2.5,MacIntel,59.81934558,,,,,,,,,,,,106,testing_3,sh2x,au,sh2x_au,sh2x_8_auxau.wav,sh2x_8_auxau.wav,,TRUE,FALSE,,,,,,,,,,,,,,f,0.169,space,0.5178,,,,,,,,0,69,69,105,1,,
5ea0627f31802801d5675c08,2023-06-16_10h15.00.826,phx_ver10,2022.2.5,MacIntel,59.81934558,,,,,,,,,,,,94,testing_3,j2x,i,j2x_i,j2x_8_ixi.wav,j2x_8_ixi.wav,,TRUE,FALSE,,,,,,,,,,,,,,f,0.1866,space,0.483,,,,,,,,0,70,70,93,1,,
5ea0627f31802801d5675c08,2023-06-16_10h15.00.826,phx_ver10,2022.2.5,MacIntel,59.81934558,,,,,,,,,,,,44,testing_3,zh2sh,ei,zh2sh_ei,zh2sh_8_eishei.wav,zh2sh_1_eizhei.wav,,FALSE,FALSE,,,,,,,,,,,,,,j,0.4372,space,0.8377,,,,,,,,0,71,71,43,1,,
5ea0627f31802801d5675c08,2023-06-16_10h15.00.826,phx_ver10,2022.2.5,MacIntel,59.81934558,,,,,,,,,,,,134,testing_3,sh2j,e,sh2j_e,sh2j_8_eje.wav,sh2j_8_eje.wav,,TRUE,FALSE,,,,,,,,,,,,,,f,0.3321,space,0.5845,,,,,,,,0,72,72,133,1,,
5ea0627f31802801d5675c08,2023-06-16_10h15.00.826,phx_ver10,2022.2.5,MacIntel,59.81934558,,,,,,,,,,,,36,testing_3,zh2sh,au,zh2sh_au,zh2sh_8_aushau.wav,zh2sh_1_auzhau.wav,,FALSE,FALSE,,,,,,,,,,,,,,j,1.1014,space,1.3555,,,,,,,,0,73,73,35,1,,
5ea0627f31802801d5675c08,2023-06-16_10h15.00.826,phx_ver10,2022.2.5,MacIntel,59.81934558,,,,,,,,,,,,108,testing_3,sh2x,au,sh2x_au,sh2x_8_auxau.wav,sh2x_1_aushau.wav,,FALSE,FALSE,,,,,,,,,,,,,,f,0.8017,space,1.0379,,,,,,,,0,74,74,107,1,,
5ea0627f31802801d5675c08,2023-06-16_10h15.00.826,phx_ver10,2022.2.5,MacIntel,59.81934558,,,,,,,,,,,,129,testing_3,sh2j,au,sh2j_au,sh2j_1_aushau.wav,sh2j_1_aushau.wav,,TRUE,FALSE,,,,,,,,,,,,,,f,0.2525,space,0.5069,,,,,,,,0,75,75,128,1,,
5ea0627f31802801d5675c08,2023-06-16_10h15.00.826,phx_ver10,2022.2.5,MacIntel,59.81934558,,,,,,,,,,,,12,testing_1,zh2x,i,zh2x_i,zh2x_8_ixi.wav,zh2x_1_izhi.wav,,FALSE,TRUE,,,,,,,,,,,,,,j,0.5532,space,0.8698,,,,,,,,0,76,76,11,1,,
5ea0627f31802801d5675c08,2023-06-16_10h15.00.826,phx_ver10,2022.2.5,MacIntel,59.81934558,,,,,,,,,,,,111,testing_3,sh2x,e,sh2x_e,sh2x_1_eshe.wav,sh2x_8_exe.wav,,FALSE,FALSE,,,,,,,,,,,,,,j,0.4499,space,0.8542,,,,,,,,0,77,77,110,1,,
5ea0627f31802801d5675c08,2023-06-16_10h15.00.826,phx_ver10,2022.2.5,MacIntel,59.81934558,,,,,,,,,,,,11,testing_1,zh2x,i,zh2x_i,zh2x_1_izhi.wav,zh2x_8_ixi.wav,,FALSE,TRUE,,,,,,,,,,,,,,j,0.8527,space,1.1019,,,,,,,,0,78,78,10,1,,
5ea0627f31802801d5675c08,2023-06-16_10h15.00.826,phx_ver10,2022.2.5,MacIntel,59.81934558,,,,,,,,,,,,112,testing_3,sh2x,e,sh2x_e,sh2x_8_exe.wav,sh2x_1_eshe.wav,,FALSE,FALSE,,,,,,,,,,,,,,j,0.4335,space,0.771,,,,,,,,0,79,79,111,1,,
5ea0627f31802801d5675c08,2023-06-16_10h15.00.826,phx_ver10,2022.2.5,MacIntel,59.81934558,,,,,,,,,,,,23,testing_2,zh2x,ei,zh2x_ei,zh2x_1_eizhei.wav,zh2x_8_eixei.wav,,FALSE,FALSE,,,,,,,,,,,,,,j,0.2153,space,0.5696,,,,,,,,0,80,80,22,1,,
5ea0627f31802801d5675c08,2023-06-16_10h15.00.826,phx_ver10,2022.2.5,MacIntel,59.81934558,,,,,,,,,,,,19,testing_2,zh2x,au,zh2x_au,zh2x_1_auzhau.wav,zh2x_8_auxau.wav,,FALSE,FALSE,,,,,,,,,,,,,,j,0.4548,space,0.7366,,,,,,,,0,81,81,18,1,,
5ea0627f31802801d5675c08,2023-06-16_10h15.00.826,phx_ver10,2022.2.5,MacIntel,59.81934558,,,,,,,,,,,,127,testing_3,sh2j,ai,sh2j_ai,sh2j_1_aishai.wav,sh2j_8_aijai.wav,,FALSE,FALSE,,,,,,,,,,,,,,j,0.3497,space,0.7043,,,,,,,,0,82,82,126,1,,
5ea0627f31802801d5675c08,2023-06-16_10h15.00.826,phx_ver10,2022.2.5,MacIntel,59.81934558,,,,,,,,,,,,103,testing_3,sh2x,ai,sh2x_ai,sh2x_1_aishai.wav,sh2x_8_aixai.wav,,FALSE,FALSE,,,,,,,,,,,,,,f,0.7182,space,0.9391,,,,,,,,0,83,83,102,1,,
5ea0627f31802801d5675c08,2023-06-16_10h15.00.826,phx_ver10,2022.2.5,MacIntel,59.81934558,,,,,,,,,,,,125,testing_3,sh2j,ai,sh2j_ai,sh2j_1_aishai.wav,sh2j_1_aishai.wav,,TRUE,FALSE,,,,,,,,,,,,,,f,0.0487,space,0.4708,,,,,,,,0,84,84,124,1,,
5ea0627f31802801d5675c08,2023-06-16_10h15.00.826,phx_ver10,2022.2.5,MacIntel,59.81934558,,,,,,,,,,,,128,testing_3,sh2j,ai,sh2j_ai,sh2j_8_aijai.wav,sh2j_1_aishai.wav,,FALSE,FALSE,,,,,,,,,,,,,,j,0.3181,space,0.7018,,,,,,,,0,85,85,127,1,,
5ea0627f31802801d5675c08,2023-06-16_10h15.00.826,phx_ver10,2022.2.5,MacIntel,59.81934558,,,,,,,,,,,,99,testing_3,sh2x,a,sh2x_a,sh2x_1_asha.wav,sh2x_8_axa.wav,,FALSE,FALSE,,,,,,,,,,,,,,f,0.6539,space,0.9039,,,,,,,,0,86,86,98,1,,
5ea0627f31802801d5675c08,2023-06-16_10h15.00.826,phx_ver10,2022.2.5,MacIntel,59.81934558,,,,,,,,,,,,143,testing_3,sh2j,i,sh2j_i,sh2j_1_ishi.wav,sh2j_8_iji.wav,,FALSE,FALSE,,,,,,,,,,,,,,j,0.5044,space,0.8187,,,,,,,,0,87,87,142,1,,
5ea0627f31802801d5675c08,2023-06-16_10h15.00.826,phx_ver10,2022.2.5,MacIntel,59.81934558,,,,,,,,,,,,32,testing_3,zh2sh,ai,zh2sh_ai,zh2sh_8_aishai.wav,zh2sh_1_aizhai.wav,,FALSE,FALSE,,,,,,,,,,,,,,j,0.8888,space,1.0883,,,,,,,,0,88,88,31,1,,
5ea0627f31802801d5675c08,2023-06-16_10h15.00.826,phx_ver10,2022.2.5,MacIntel,59.81934558,,,,,,,,,,,,47,testing_3,zh2sh,i,zh2sh_i,zh2sh_1_izhi.wav,zh2sh_8_ishi.wav,,FALSE,FALSE,,,,,,,,,,,,,,j,0.3705,space,0.6703,,,,,,,,0,89,89,46,1,,
5ea0627f31802801d5675c08,2023-06-16_10h15.00.826,phx_ver10,2022.2.5,MacIntel,59.81934558,,,,,,,,,,,,101,testing_3,sh2x,ai,sh2x_ai,sh2x_1_aishai.wav,sh2x_1_aishai.wav,,TRUE,FALSE,,,,,,,,,,,,,,f,0.2887,space,0.5857,,,,,,,,0,90,90,100,1,,
5ea0627f31802801d5675c08,2023-06-16_10h15.00.826,phx_ver10,2022.2.5,MacIntel,59.81934558,,,,,,,,,,,,79,testing_3,j2x,ai,j2x_ai,j2x_1_aijai.wav,j2x_8_aixai.wav,,FALSE,FALSE,,,,,,,,,,,,,,j,0.4367,space,0.6848,,,,,,,,0,91,91,78,1,,
5ea0627f31802801d5675c08,2023-06-16_10h15.00.826,phx_ver10,2022.2.5,MacIntel,59.81934558,,,,,,,,,,,,104,testing_3,sh2x,ai,sh2x_ai,sh2x_8_aixai.wav,sh2x_1_aishai.wav,,FALSE,FALSE,,,,,,,,,,,,,,j,0.1683,space,0.4166,,,,,,,,0,92,92,103,1,,
5ea0627f31802801d5675c08,2023-06-16_10h15.00.826,phx_ver10,2022.2.5,MacIntel,59.81934558,,,,,,,,,,,,85,testing_3,j2x,e,j2x_e,j2x_1_eje.wav,j2x_1_eje.wav,,TRUE,FALSE,,,,,,,,,,,,,,f,0.22,space,0.4862,,,,,,,,0,93,93,84,1,,
5ea0627f31802801d5675c08,2023-06-16_10h15.00.826,phx_ver10,2022.2.5,MacIntel,59.81934558,,,,,,,,,,,,131,testing_3,sh2j,au,sh2j_au,sh2j_1_aushau.wav,sh2j_8_aujau.wav,,FALSE,FALSE,,,,,,,,,,,,,,j,0.9372,space,1.1897,,,,,,,,0,94,94,130,1,,
5ea0627f31802801d5675c08,2023-06-16_10h15.00.826,phx_ver10,2022.2.5,MacIntel,59.81934558,,,,,,,,,,,,48,testing_3,zh2sh,i,zh2sh_i,zh2sh_8_ishi.wav,zh2sh_1_izhi.wav,,FALSE,FALSE,,,,,,,,,,,,,,j,0.6002,space,0.8381,,,,,,,,0,95,95,47,1,,
5ea0627f31802801d5675c08,2023-06-16_10h15.00.826,phx_ver10,2022.2.5,MacIntel,59.81934558,,,,,,,,,,,,74,testing_3,j2x,a,j2x_a,j2x_8_axa.wav,j2x_8_axa.wav,,TRUE,FALSE,,,,,,,,,,,,,,f,0.3164,space,0.5516,,,,,,,,0,96,96,73,1,,
5ea0627f31802801d5675c08,2023-06-16_10h15.00.826,phx_ver10,2022.2.5,MacIntel,59.81934558,,,,,,,,,,,,57,testing_3,zh2j,au,zh2j_au,zh2j_1_auzhau.wav,zh2j_1_auzhau.wav,,TRUE,FALSE,,,,,,,,,,,,,,f,0.0476,space,0.3663,,,,,,,,0,97,97,56,1,,
5ea0627f31802801d5675c08,2023-06-16_10h15.00.826,phx_ver10,2022.2.5,MacIntel,59.81934558,,,,,,,,,,,,21,testing_2,zh2x,ei,zh2x_ei,zh2x_1_eizhei.wav,zh2x_1_eizhei.wav,,TRUE,FALSE,,,,,,,,,,,,,,f,0.153,space,0.4067,,,,,,,,0,98,98,20,1,,
5ea0627f31802801d5675c08,2023-06-16_10h15.00.826,phx_ver10,2022.2.5,MacIntel,59.81934558,,,,,,,,,,,,98,testing_3,sh2x,a,sh2x_a,sh2x_8_axa.wav,sh2x_8_axa.wav,,TRUE,FALSE,,,,,,,,,,,,,,f,0.168,space,0.4544,,,,,,,,0,99,99,97,1,,
5ea0627f31802801d5675c08,2023-06-16_10h15.00.826,phx_ver10,2022.2.5,MacIntel,59.81934558,,,,,,,,,,,,34,testing_3,zh2sh,au,zh2sh_au,zh2sh_8_aushau.wav,zh2sh_8_aushau.wav,,TRUE,FALSE,,,,,,,,,,,,,,f,1.5739,space,1.9454,,,,,,,,0,100,100,33,1,,
5ea0627f31802801d5675c08,2023-06-16_10h15.00.826,phx_ver10,2022.2.5,MacIntel,59.81934558,,,,,,,,,,,,110,testing_3,sh2x,e,sh2x_e,sh2x_8_exe.wav,sh2x_8_exe.wav,,TRUE,FALSE,,,,,,,,,,,,,,f,0.2894,space,0.5862,,,,,,,,0,101,101,109,1,,
5ea0627f31802801d5675c08,2023-06-16_10h15.00.826,phx_ver10,2022.2.5,MacIntel,59.81934558,,,,,,,,,,,,95,testing_3,j2x,i,j2x_i,j2x_1_iji.wav,j2x_8_ixi.wav,,FALSE,FALSE,,,,,,,,,,,,,,f,0.1016,space,0.421,,,,,,,,0,102,102,94,1,,
5ea0627f31802801d5675c08,2023-06-16_10h15.00.826,phx_ver10,2022.2.5,MacIntel,59.81934558,,,,,,,,,,,,141,testing_3,sh2j,i,sh2j_i,sh2j_1_ishi.wav,sh2j_1_ishi.wav,,TRUE,FALSE,,,,,,,,,,,,,,f,0.0709,space,0.4852,,,,,,,,0,103,103,140,1,,
5ea0627f31802801d5675c08,2023-06-16_10h15.00.826,phx_ver10,2022.2.5,MacIntel,59.81934558,,,,,,,,,,,,137,testing_3,sh2j,ei,sh2j_ei,sh2j_1_eishei.wav,sh2j_1_eishei.wav,,TRUE,FALSE,,,,,,,,,,,,,,f,0.6047,space,1.0226,,,,,,,,0,104,104,136,1,,
5ea0627f31802801d5675c08,2023-06-16_10h15.00.826,phx_ver10,2022.2.5,MacIntel,59.81934558,,,,,,,,,,,,50,testing_3,zh2j,a,zh2j_a,zh2j_8_aja.wav,zh2j_8_aja.wav,,TRUE,FALSE,,,,,,,,,,,,,,f,0.9056,space,1.3456,,,,,,,,0,105,105,49,1,,
5ea0627f31802801d5675c08,2023-06-16_10h15.00.826,phx_ver10,2022.2.5,MacIntel,59.81934558,,,,,,,,,,,,118,testing_3,sh2x,i,sh2x_i,sh2x_8_ixi.wav,sh2x_8_ixi.wav,,TRUE,FALSE,,,,,,,,,,,,,,f,0.0202,space,0.5713,,,,,,,,0,106,106,117,1,,
5ea0627f31802801d5675c08,2023-06-16_10h15.00.826,phx_ver10,2022.2.5,MacIntel,59.81934558,,,,,,,,,,,,61,testing_3,zh2j,e,zh2j_e,zh2j_1_ezhe.wav,zh2j_1_ezhe.wav,,TRUE,FALSE,,,,,,,,,,,,,,f,0.0156,space,0.4855,,,,,,,,0,107,107,60,1,,
5ea0627f31802801d5675c08,2023-06-16_10h15.00.826,phx_ver10,2022.2.5,MacIntel,59.81934558,,,,,,,,,,,,52,testing_3,zh2j,a,zh2j_a,zh2j_8_aja.wav,zh2j_1_azha.wav,,FALSE,FALSE,,,,,,,,,,,,,,f,0.1038,space,0.5862,,,,,,,,0,108,108,51,1,,
5ea0627f31802801d5675c08,2023-06-16_10h15.00.826,phx_ver10,2022.2.5,MacIntel,59.81934558,,,,,,,,,,,,17,testing_2,zh2x,au,zh2x_au,zh2x_1_auzhau.wav,zh2x_1_auzhau.wav,,TRUE,FALSE,,,,,,,,,,,,,,f,0.1971,space,0.6663,,,,,,,,0,109,109,16,1,,
5ea0627f31802801d5675c08,2023-06-16_10h15.00.826,phx_ver10,2022.2.5,MacIntel,59.81934558,,,,,,,,,,,,28,testing_3,zh2sh,a,zh2sh_a,zh2sh_8_asha.wav,zh2sh_1_azha.wav,,FALSE,FALSE,,,,,,,,,,,,,,j,0.7032,space,1.0378,,,,,,,,0,110,110,27,1,,
5ea0627f31802801d5675c08,2023-06-16_10h15.00.826,phx_ver10,2022.2.5,MacIntel,59.81934558,,,,,,,,,,,,40,testing_3,zh2sh,e,zh2sh_e,zh2sh_8_eshe.wav,zh2sh_1_ezhe.wav,,FALSE,FALSE,,,,,,,,,,,,,,j,0.4022,space,0.6726,,,,,,,,0,111,111,39,1,,
5ea0627f31802801d5675c08,2023-06-16_10h15.00.826,phx_ver10,2022.2.5,MacIntel,59.81934558,,,,,,,,,,,,24,testing_2,zh2x,ei,zh2x_ei,zh2x_8_eixei.wav,zh2x_1_eizhei.wav,,FALSE,FALSE,,,,,,,,,,,,,,j,0.1177,space,0.5517,,,,,,,,0,112,112,23,1,,
5ea0627f31802801d5675c08,2023-06-16_10h15.00.826,phx_ver10,2022.2.5,MacIntel,59.81934558,,,,,,,,,,,,136,testing_3,sh2j,e,sh2j_e,sh2j_8_eje.wav,sh2j_1_eshe.wav,,FALSE,FALSE,,,,,,,,,,,,,,j,0.1213,space,0.537,,,,,,,,0,113,113,135,1,,
5ea0627f31802801d5675c08,2023-06-16_10h15.00.826,phx_ver10,2022.2.5,MacIntel,59.81934558,,,,,,,,,,,,77,testing_3,j2x,ai,j2x_ai,j2x_1_aijai.wav,j2x_1_aijai.wav,,TRUE,FALSE,,,,,,,,,,,,,,f,1.2746,space,1.7773,,,,,,,,0,114,114,76,1,,
5ea0627f31802801d5675c08,2023-06-16_10h15.00.826,phx_ver10,2022.2.5,MacIntel,59.81934558,,,,,,,,,,,,105,testing_3,sh2x,au,sh2x_au,sh2x_1_aushau.wav,sh2x_1_aushau.wav,,TRUE,FALSE,,,,,,,,,,,,,,f,0.3164,space,0.6663,,,,,,,,0,115,115,104,1,,
5ea0627f31802801d5675c08,2023-06-16_10h15.00.826,phx_ver10,2022.2.5,MacIntel,59.81934558,,,,,,,,,,,,41,testing_3,zh2sh,ei,zh2sh_ei,zh2sh_1_eizhei.wav,zh2sh_1_eizhei.wav,,TRUE,FALSE,,,,,,,,,,,,,,f,0.0874,space,0.6379,,,,,,,,0,116,116,40,1,,
5ea0627f31802801d5675c08,2023-06-16_10h15.00.826,phx_ver10,2022.2.5,MacIntel,59.81934558,,,,,,,,,,,,65,testing_3,zh2j,ei,zh2j_ei,zh2j_1_eizhei.wav,zh2j_1_eizhei.wav,,TRUE,FALSE,,,,,,,,,,,,,,f,0.0197,space,0.502,,,,,,,,0,117,117,64,1,,
5ea0627f31802801d5675c08,2023-06-16_10h15.00.826,phx_ver10,2022.2.5,MacIntel,59.81934558,,,,,,,,,,,,91,testing_3,j2x,ei,j2x_ei,j2x_1_eijei.wav,j2x_8_eixei.wav,,FALSE,FALSE,,,,,,,,,,,,,,j,0.6497,space,1.1223,,,,,,,,0,118,118,90,1,,
5ea0627f31802801d5675c08,2023-06-16_10h15.00.826,phx_ver10,2022.2.5,MacIntel,59.81934558,,,,,,,,,,,,37,testing_3,zh2sh,e,zh2sh_e,zh2sh_1_ezhe.wav,zh2sh_1_ezhe.wav,,TRUE,FALSE,,,,,,,,,,,,,,f,0.2533,space,0.62,,,,,,,,0,119,119,36,1,,
5ea0627f31802801d5675c08,2023-06-16_10h15.00.826,phx_ver10,2022.2.5,MacIntel,59.81934558,,,,,,,,,,,,9,testing_1,zh2x,i,zh2x_i,zh2x_1_izhi.wav,zh2x_1_izhi_copy.wav,,TRUE,TRUE,,,,,,,,,,,,,,f,1.437,space,2.0063,,,,,,,,0,120,120,8,1,,
5ea0627f31802801d5675c08,2023-06-16_10h15.00.826,phx_ver10,2022.2.5,MacIntel,59.81934558,,,,,,,,,,,,25,testing_3,zh2sh,a,zh2sh_a,zh2sh_1_azha.wav,zh2sh_1_azha.wav,,TRUE,FALSE,,,,,,,,,,,,,,f,0.0533,space,0.4189,,,,,,,,0,121,121,24,1,,
5ea0627f31802801d5675c08,2023-06-16_10h15.00.826,phx_ver10,2022.2.5,MacIntel,59.81934558,,,,,,,,,,,,90,testing_3,j2x,ei,j2x_ei,j2x_8_eixei.wav,j2x_8_eixei.wav,,TRUE,FALSE,,,,,,,,,,,,,,f,0.1472,space,0.4664,,,,,,,,0,122,122,89,1,,
5ea0627f31802801d5675c08,2023-06-16_10h15.00.826,phx_ver10,2022.2.5,MacIntel,59.81934558,,,,,,,,,,,,130,testing_3,sh2j,au,sh2j_au,sh2j_8_aujau.wav,sh2j_8_aujau.wav,,TRUE,FALSE,,,,,,,,,,,,,,f,0.1657,space,0.5009,,,,,,,,0,123,123,129,1,,
5ea0627f31802801d5675c08,2023-06-16_10h15.00.826,phx_ver10,2022.2.5,MacIntel,59.81934558,,,,,,,,,,,,132,testing_3,sh2j,au,sh2j_au,sh2j_8_aujau.wav,sh2j_1_aushau.wav,,FALSE,FALSE,,,,,,,,,,,,,,j,0.169,space,0.6357,,,,,,,,0,124,124,131,1,,
5ea0627f31802801d5675c08,2023-06-16_10h15.00.826,phx_ver10,2022.2.5,MacIntel,59.81934558,,,,,,,,,,,,14,testing_2,zh2x,ai,zh2x_ai,zh2x_8_aixai.wav,zh2x_8_aixai.wav,,TRUE,FALSE,,,,,,,,,,,,,,f,0.5182,space,0.8854,,,,,,,,0,125,125,13,1,,
5ea0627f31802801d5675c08,2023-06-16_10h15.00.826,phx_ver10,2022.2.5,MacIntel,59.81934558,,,,,,,,,,,,45,testing_3,zh2sh,i,zh2sh_i,zh2sh_1_izhi.wav,zh2sh_1_izhi.wav,,TRUE,FALSE,,,,,,,,,,,,,,f,0.0844,space,0.8553,,,,,,,,0,126,126,44,1,,
5ea0627f31802801d5675c08,2023-06-16_10h15.00.826,phx_ver10,2022.2.5,MacIntel,59.81934558,,,,,,,,,,,,117,testing_3,sh2x,i,sh2x_i,sh2x_1_ishi.wav,sh2x_1_ishi.wav,,TRUE,FALSE,,,,,,,,,,,,,,f,0.8042,space,1.2533,,,,,,,,0,127,127,116,1,,
5ea0627f31802801d5675c08,2023-06-16_10h15.00.826,phx_ver10,2022.2.5,MacIntel,59.81934558,,,,,,,,,,,,43,testing_3,zh2sh,ei,zh2sh_ei,zh2sh_1_eizhei.wav,zh2sh_8_eishei.wav,,FALSE,FALSE,,,,,,,,,,,,,,j,0.4222,space,0.753,,,,,,,,0,128,128,42,1,,
5ea0627f31802801d5675c08,2023-06-16_10h15.00.826,phx_ver10,2022.2.5,MacIntel,59.81934558,,,,,,,,,,,,84,testing_3,j2x,au,j2x_au,j2x_8_auxau.wav,j2x_1_aujau.wav,,FALSE,FALSE,,,,,,,,,,,,,,j,1.4217,space,1.8894,,,,,,,,0,129,129,83,1,,
5ea0627f31802801d5675c08,2023-06-16_10h15.00.826,phx_ver10,2022.2.5,MacIntel,59.81934558,,,,,,,,,,,,142,testing_3,sh2j,i,sh2j_i,sh2j_8_iji.wav,sh2j_8_iji.wav,,TRUE,FALSE,,,,,,,,,,,,,,f,0.5871,space,0.9737,,,,,,,,0,130,130,141,1,,
5ea0627f31802801d5675c08,2023-06-16_10h15.00.826,phx_ver10,2022.2.5,MacIntel,59.81934558,,,,,,,,,,,,109,testing_3,sh2x,e,sh2x_e,sh2x_1_eshe.wav,sh2x_1_eshe.wav,,TRUE,FALSE,,,,,,,,,,,,,,f,0.3359,space,0.8391,,,,,,,,0,131,131,108,1,,
5ea0627f31802801d5675c08,2023-06-16_10h15.00.826,phx_ver10,2022.2.5,MacIntel,59.81934558,,,,,,,,,,,,53,testing_3,zh2j,ai,zh2j_ai,zh2j_1_aizhai.wav,zh2j_1_aizhai.wav,,TRUE,FALSE,,,,,,,,,,,,,,f,0.269,space,0.7035,,,,,,,,0,132,132,52,1,,
5ea0627f31802801d5675c08,2023-06-16_10h15.00.826,phx_ver10,2022.2.5,MacIntel,59.81934558,,,,,,,,,,,,92,testing_3,j2x,ei,j2x_ei,j2x_8_eixei.wav,j2x_1_eijei.wav,,FALSE,FALSE,,,,,,,,,,,,,,f,1.7263,space,3.631,,,,,,,,0,133,133,91,1,,
5ea0627f31802801d5675c08,2023-06-16_10h15.00.826,phx_ver10,2022.2.5,MacIntel,59.81934558,,,,,,,,,,,,64,testing_3,zh2j,e,zh2j_e,zh2j_8_eje.wav,zh2j_1_ezhe.wav,,FALSE,FALSE,,,,,,,,,,,,,,f,0.4876,space,0.8881,,,,,,,,0,134,134,63,1,,
5ea0627f31802801d5675c08,2023-06-16_10h15.00.826,phx_ver10,2022.2.5,MacIntel,59.81934558,,,,,,,,,,,,121,testing_3,sh2j,a,sh2j_a,sh2j_1_asha.wav,sh2j_1_asha.wav,,TRUE,FALSE,,,,,,,,,,,,,,f,2.0576,space,3.1284,,,,,,,,0,135,135,120,1,,
5ea0627f31802801d5675c08,2023-06-16_10h15.00.826,phx_ver10,2022.2.5,MacIntel,59.81934558,,,,,,,,,,,,89,testing_3,j2x,ei,j2x_ei,j2x_1_eijei.wav,j2x_1_eijei.wav,,TRUE,FALSE,,,,,,,,,,,,,,f,1.5889,space,2.1411,,,,,,,,0,136,136,88,1,,
5ea0627f31802801d5675c08,2023-06-16_10h15.00.826,phx_ver10,2022.2.5,MacIntel,59.81934558,,,,,,,,,,,,30,testing_3,zh2sh,ai,zh2sh_ai,zh2sh_8_aishai.wav,zh2sh_8_aishai.wav,,TRUE,FALSE,,,,,,,,,,,,,,f,0.4703,space,0.7709,,,,,,,,0,137,137,29,1,,
5ea0627f31802801d5675c08,2023-06-16_10h15.00.826,phx_ver10,2022.2.5,MacIntel,59.81934558,,,,,,,,,,,,138,testing_3,sh2j,ei,sh2j_ei,sh2j_8_eijei.wav,sh2j_8_eijei.wav,,TRUE,FALSE,,,,,,,,,,,,,,f,0.2517,space,0.5399,,,,,,,,0,138,138,137,1,,
5ea0627f31802801d5675c08,2023-06-16_10h15.00.826,phx_ver10,2022.2.5,MacIntel,59.81934558,,,,,,,,,,,,7,testing_1,zh2x,e,zh2x_e,zh2x_1_ezhe.wav,zh2x_8_exe.wav,,FALSE,TRUE,,,,,,,,,,,,,,j,0.3518,space,0.7873,,,,,,,,0,139,139,6,1,,
5ea0627f31802801d5675c08,2023-06-16_10h15.00.826,phx_ver10,2022.2.5,MacIntel,59.81934558,,,,,,,,,,,,31,testing_3,zh2sh,ai,zh2sh_ai,zh2sh_1_aizhai.wav,zh2sh_8_aishai.wav,,FALSE,FALSE,,,,,,,,,,,,,,j,1.3224,space,1.7401,,,,,,,,0,140,140,30,1,,
5ea0627f31802801d5675c08,2023-06-16_10h15.00.826,phx_ver10,2022.2.5,MacIntel,59.81934558,,,,,,,,,,,,68,testing_3,zh2j,ei,zh2j_ei,zh2j_8_eijei.wav,zh2j_1_eizhei.wav,,FALSE,FALSE,,,,,,,,,,,,,,f,0.4377,space,0.8166,,,,,,,,0,141,141,67,1,,
5ea0627f31802801d5675c08,2023-06-16_10h15.00.826,phx_ver10,2022.2.5,MacIntel,59.81934558,,,,,,,,,,,,113,testing_3,sh2x,ei,sh2x_ei,sh2x_1_eishei.wav,sh2x_1_eishei.wav,,TRUE,FALSE,,,,,,,,,,,,,,f,0.8549,space,1.2583,,,,,,,,0,142,142,112,1,,
5ea0627f31802801d5675c08,2023-06-16_10h15.00.826,phx_ver10,2022.2.5,MacIntel,59.81934558,,,,,,,,,,,,33,testing_3,zh2sh,au,zh2sh_au,zh2sh_1_auzhau.wav,zh2sh_1_auzhau.wav,,TRUE,FALSE,,,,,,,,,,,,,,f,0.3842,space,0.8041,,,,,,,,0,143,143,32,1,,
5ea0627f31802801d5675c08,2023-06-16_10h15.00.826,phx_ver10,2022.2.5,MacIntel,59.81934558,,,,,,,,,,,,,,,,,,,,,,,,,,,,,,,,,,,,,,,,,,,,,,,,,,,space,3.6413
