participant,date,expName,psychopyVersion,OS,frameRate,space_1.keys,space_1.rt,space_2.keys,space_2.rt,space_train.keys,space_train.rt,training.thisRepN,training.thisTrialN,training.thisN,training.thisIndex,training.ran,token_id,task,continuum,vowel,series,sound_1,sound_2,img,same,trained,FJ_attn.keys,FJ_attn.rt,space_attn.keys,space_attn.rt,if_attn_test.thisRepN,if_attn_test.thisTrialN,if_attn_test.thisN,if_attn_test.thisIndex,if_attn_test.ran,space_trans_1.keys,space_trans_1.rt,space_trans_11.keys,space_trans_11.rt,FJ_test.keys,FJ_test.rt,space_test.keys,space_test.rt,testing_pre.thisRepN,testing_pre.thisTrialN,testing_pre.thisN,testing_pre.thisIndex,testing_pre.ran,space_trans_2.keys,space_trans_2.rt,testing_all.thisRepN,testing_all.thisTrialN,testing_all.thisN,testing_all.thisIndex,testing_all.ran,space_ending.keys,space_ending.rt
5ea8d68a37c5173456c94f50,2023-06-16_09h29.22.053,phx_ver10,2022.2.5,Win32,7.861202607,,,,,,,,,,,,,,,,,,,,,,,,,,,,,,,,,,,,,,,,,,,,,,,,,,,,
5ea8d68a37c5173456c94f50,2023-06-16_09h29.22.053,phx_ver10,2022.2.5,Win32,7.861202607,space,4.2514,,,,,,,,,,,,,,,,,,,,,,,,,,,,,,,,,,,,,,,,,,,,,,,,,,
5ea8d68a37c5173456c94f50,2023-06-16_09h29.22.053,phx_ver10,2022.2.5,Win32,7.861202607,,,space,1.798,,,,,,,,,,,,,,,,,,,,,,,,,,,,,,,,,,,,,,,,,,,,,,,,
5ea8d68a37c5173456c94f50,2023-06-16_09h29.22.053,phx_ver10,2022.2.5,Win32,7.861202607,,,,,space,1.1452,0,0,0,37,1,38,training,zh2x,i,zh2x_i,zh2x_3_izhi.wav,,izhi.jpg,,,,,,,,,,,,,,,,,,,,,,,,,,,,,,,,,
5ea8d68a37c5173456c94f50,2023-06-16_09h29.22.053,phx_ver10,2022.2.5,Win32,7.861202607,,,,,space,2.0104,0,1,1,10,1,11,training,zh2x,a,zh2x_a,zh2x_6_axa.wav,,axa.jpg,,,,,,,,,,,,,,,,,,,,,,,,,,,,,,,,,
5ea8d68a37c5173456c94f50,2023-06-16_09h29.22.053,phx_ver10,2022.2.5,Win32,7.861202607,,,,,space,1.1662,0,2,2,47,1,48,training,zh2x,i,zh2x_i,zh2x_8_ixi.wav,,ixi.jpg,,,,,,,,,,,,,,,,,,,,,,,,,,,,,,,,,
5ea8d68a37c5173456c94f50,2023-06-16_09h29.22.053,phx_ver10,2022.2.5,Win32,7.861202607,,,,,space,0.9736,0,3,3,11,1,12,training,zh2x,a,zh2x_a,zh2x_7_axa.wav,,axa.jpg,,,,,,,,,,,,,,,,,,,,,,,,,,,,,,,,,
5ea8d68a37c5173456c94f50,2023-06-16_09h29.22.053,phx_ver10,2022.2.5,Win32,7.861202607,,,,,space,0.8622,0,4,4,35,1,36,training,zh2x,i,zh2x_i,zh2x_2_izhi.wav,,izhi.jpg,,,,,,,,,,,,,,,,,,,,,,,,,,,,,,,,,
5ea8d68a37c5173456c94f50,2023-06-16_09h29.22.053,phx_ver10,2022.2.5,Win32,7.861202607,,,,,space,0.9805,0,5,5,29,1,30,training,zh2x,e,zh2x_e,zh2x_7_exe.wav,,exe.jpg,,,,,,,,,,,,,,,,,,,,,,,,,,,,,,,,,
5ea8d68a37c5173456c94f50,2023-06-16_09h29.22.053,phx_ver10,2022.2.5,Win32,7.861202607,,,,,,,,,,,,,attn_test,,,,zh2x_8_ixi.wav,zh2x_1_izhi.wav,izhi.jpg,RIGHT,,f,3.9406,space,6.1324,0,0,0,0,1,,,,,,,,,,,,,,,,,,,,,,
5ea8d68a37c5173456c94f50,2023-06-16_09h29.22.053,phx_ver10,2022.2.5,Win32,7.861202607,,,,,space,1.7273,0,6,6,19,1,20,training,zh2x,e,zh2x_e,zh2x_2_ezhe.wav,,ezhe.jpg,,,,,,,,,,,,,,,,,,,,,,,,,,,,,,,,,
5ea8d68a37c5173456c94f50,2023-06-16_09h29.22.053,phx_ver10,2022.2.5,Win32,7.861202607,,,,,space,2.9655,0,7,7,27,1,28,training,zh2x,e,zh2x_e,zh2x_7_exe.wav,,exe.jpg,,,,,,,,,,,,,,,,,,,,,,,,,,,,,,,,,
5ea8d68a37c5173456c94f50,2023-06-16_09h29.22.053,phx_ver10,2022.2.5,Win32,7.861202607,,,,,space,0.9923,0,8,8,38,1,39,training,zh2x,i,zh2x_i,zh2x_3_izhi.wav,,izhi.jpg,,,,,,,,,,,,,,,,,,,,,,,,,,,,,,,,,
5ea8d68a37c5173456c94f50,2023-06-16_09h29.22.053,phx_ver10,2022.2.5,Win32,7.861202607,,,,,space,0.7385,0,9,9,14,1,15,training,zh2x,a,zh2x_a,zh2x_7_axa.wav,,axa.jpg,,,,,,,,,,,,,,,,,,,,,,,,,,,,,,,,,
5ea8d68a37c5173456c94f50,2023-06-16_09h29.22.053,phx_ver10,2022.2.5,Win32,7.861202607,,,,,space,0.8497,0,10,10,6,1,7,training,zh2x,a,zh2x_a,zh2x_3_azha.wav,,azha.jpg,,,,,,,,,,,,,,,,,,,,,,,,,,,,,,,,,
5ea8d68a37c5173456c94f50,2023-06-16_09h29.22.053,phx_ver10,2022.2.5,Win32,7.861202607,,,,,space,1.5695,0,11,11,43,1,44,training,zh2x,i,zh2x_i,zh2x_7_ixi.wav,,ixi.jpg,,,,,,,,,,,,,,,,,,,,,,,,,,,,,,,,,
5ea8d68a37c5173456c94f50,2023-06-16_09h29.22.053,phx_ver10,2022.2.5,Win32,7.861202607,,,,,,,,,,,,,attn_test,,,,zh2x_1_izhi.wav,zh2x_1_azha.wav,izhi.jpg,LEFT,,f,0.9851,space,2.0929,0,0,0,0,1,,,,,,,,,,,,,,,,,,,,,,
5ea8d68a37c5173456c94f50,2023-06-16_09h29.22.053,phx_ver10,2022.2.5,Win32,7.861202607,,,,,space,0.722,0,12,12,22,1,23,training,zh2x,e,zh2x_e,zh2x_3_ezhe.wav,,ezhe.jpg,,,,,,,,,,,,,,,,,,,,,,,,,,,,,,,,,
5ea8d68a37c5173456c94f50,2023-06-16_09h29.22.053,phx_ver10,2022.2.5,Win32,7.861202607,,,,,space,0.1471,0,13,13,44,1,45,training,zh2x,i,zh2x_i,zh2x_7_ixi.wav,,ixi.jpg,,,,,,,,,,,,,,,,,,,,,,,,,,,,,,,,,
5ea8d68a37c5173456c94f50,2023-06-16_09h29.22.053,phx_ver10,2022.2.5,Win32,7.861202607,,,,,space,0.0102,0,14,14,34,1,35,training,zh2x,i,zh2x_i,zh2x_2_izhi.wav,,izhi.jpg,,,,,,,,,,,,,,,,,,,,,,,,,,,,,,,,,
5ea8d68a37c5173456c94f50,2023-06-16_09h29.22.053,phx_ver10,2022.2.5,Win32,7.861202607,,,,,space,0.5973,0,15,15,0,1,1,training,zh2x,a,zh2x_a,zh2x_1_azha.wav,,azha.jpg,,,,,,,,,,,,,,,,,,,,,,,,,,,,,,,,,
5ea8d68a37c5173456c94f50,2023-06-16_09h29.22.053,phx_ver10,2022.2.5,Win32,7.861202607,,,,,space,0.0107,0,16,16,31,1,32,training,zh2x,e,zh2x_e,zh2x_8_exe.wav,,exe.jpg,,,,,,,,,,,,,,,,,,,,,,,,,,,,,,,,,
5ea8d68a37c5173456c94f50,2023-06-16_09h29.22.053,phx_ver10,2022.2.5,Win32,7.861202607,,,,,space,0.2952,0,17,17,3,1,4,training,zh2x,a,zh2x_a,zh2x_2_azha.wav,,azha.jpg,,,,,,,,,,,,,,,,,,,,,,,,,,,,,,,,,
5ea8d68a37c5173456c94f50,2023-06-16_09h29.22.053,phx_ver10,2022.2.5,Win32,7.861202607,,,,,,,,,,,,,attn_test,,,,zh2x_8_ixi.wav,zh2x_1_ezhe.wav,ezhe.jpg,RIGHT,,j,2.6417,space,4.0489,0,0,0,0,1,,,,,,,,,,,,,,,,,,,,,,
5ea8d68a37c5173456c94f50,2023-06-16_09h29.22.053,phx_ver10,2022.2.5,Win32,7.861202607,,,,,space,0.0109,0,18,18,45,1,46,training,zh2x,i,zh2x_i,zh2x_7_ixi.wav,,ixi.jpg,,,,,,,,,,,,,,,,,,,,,,,,,,,,,,,,,
5ea8d68a37c5173456c94f50,2023-06-16_09h29.22.053,phx_ver10,2022.2.5,Win32,7.861202607,,,,,space,0.7397,0,19,19,40,1,41,training,zh2x,i,zh2x_i,zh2x_5_ixi.wav,,ixi.jpg,,,,,,,,,,,,,,,,,,,,,,,,,,,,,,,,,
5ea8d68a37c5173456c94f50,2023-06-16_09h29.22.053,phx_ver10,2022.2.5,Win32,7.861202607,,,,,space,0.0096,0,20,20,4,1,5,training,zh2x,a,zh2x_a,zh2x_2_azha.wav,,azha.jpg,,,,,,,,,,,,,,,,,,,,,,,,,,,,,,,,,
5ea8d68a37c5173456c94f50,2023-06-16_09h29.22.053,phx_ver10,2022.2.5,Win32,7.861202607,,,,,space,0.2988,0,21,21,42,1,43,training,zh2x,i,zh2x_i,zh2x_6_ixi.wav,,ixi.jpg,,,,,,,,,,,,,,,,,,,,,,,,,,,,,,,,,
5ea8d68a37c5173456c94f50,2023-06-16_09h29.22.053,phx_ver10,2022.2.5,Win32,7.861202607,,,,,space,0.2845,0,22,22,7,1,8,training,zh2x,a,zh2x_a,zh2x_4_azha.wav,,azha.jpg,,,,,,,,,,,,,,,,,,,,,,,,,,,,,,,,,
5ea8d68a37c5173456c94f50,2023-06-16_09h29.22.053,phx_ver10,2022.2.5,Win32,7.861202607,,,,,space,0.2938,0,23,23,9,1,10,training,zh2x,a,zh2x_a,zh2x_6_axa.wav,,axa.jpg,,,,,,,,,,,,,,,,,,,,,,,,,,,,,,,,,
5ea8d68a37c5173456c94f50,2023-06-16_09h29.22.053,phx_ver10,2022.2.5,Win32,7.861202607,,,,,,,,,,,,,attn_test,,,,zh2x_8_axa.wav,zh2x_8_ixi.wav,axa.jpg,LEFT,,f,0.1611,space,3.3615,0,0,0,0,1,,,,,,,,,,,,,,,,,,,,,,
5ea8d68a37c5173456c94f50,2023-06-16_09h29.22.053,phx_ver10,2022.2.5,Win32,7.861202607,,,,,space,0.5894,0,24,24,5,1,6,training,zh2x,a,zh2x_a,zh2x_3_azha.wav,,azha.jpg,,,,,,,,,,,,,,,,,,,,,,,,,,,,,,,,,
5ea8d68a37c5173456c94f50,2023-06-16_09h29.22.053,phx_ver10,2022.2.5,Win32,7.861202607,,,,,space,0.5877,0,25,25,20,1,21,training,zh2x,e,zh2x_e,zh2x_2_ezhe.wav,,ezhe.jpg,,,,,,,,,,,,,,,,,,,,,,,,,,,,,,,,,
5ea8d68a37c5173456c94f50,2023-06-16_09h29.22.053,phx_ver10,2022.2.5,Win32,7.861202607,,,,,space,0.2926,0,26,26,23,1,24,training,zh2x,e,zh2x_e,zh2x_4_ezhe.wav,,ezhe.jpg,,,,,,,,,,,,,,,,,,,,,,,,,,,,,,,,,
5ea8d68a37c5173456c94f50,2023-06-16_09h29.22.053,phx_ver10,2022.2.5,Win32,7.861202607,,,,,space,0.0094,0,27,27,30,1,31,training,zh2x,e,zh2x_e,zh2x_7_exe.wav,,exe.jpg,,,,,,,,,,,,,,,,,,,,,,,,,,,,,,,,,
5ea8d68a37c5173456c94f50,2023-06-16_09h29.22.053,phx_ver10,2022.2.5,Win32,7.861202607,,,,,space,0.2828,0,28,28,39,1,40,training,zh2x,i,zh2x_i,zh2x_4_izhi.wav,,izhi.jpg,,,,,,,,,,,,,,,,,,,,,,,,,,,,,,,,,
5ea8d68a37c5173456c94f50,2023-06-16_09h29.22.053,phx_ver10,2022.2.5,Win32,7.861202607,,,,,space,0.303,0,29,29,16,1,17,training,zh2x,e,zh2x_e,zh2x_1_ezhe.wav,,ezhe.jpg,,,,,,,,,,,,,,,,,,,,,,,,,,,,,,,,,
5ea8d68a37c5173456c94f50,2023-06-16_09h29.22.053,phx_ver10,2022.2.5,Win32,7.861202607,,,,,,,,,,,,,attn_test,,,,zh2x_1_azha.wav,zh2x_1_izhi.wav,azha.jpg,LEFT,,f,3.3784,space,5.904,0,0,0,0,1,,,,,,,,,,,,,,,,,,,,,,
5ea8d68a37c5173456c94f50,2023-06-16_09h29.22.053,phx_ver10,2022.2.5,Win32,7.861202607,,,,,space,0.7163,0,30,30,32,1,33,training,zh2x,i,zh2x_i,zh2x_1_izhi.wav,,izhi.jpg,,,,,,,,,,,,,,,,,,,,,,,,,,,,,,,,,
5ea8d68a37c5173456c94f50,2023-06-16_09h29.22.053,phx_ver10,2022.2.5,Win32,7.861202607,,,,,space,0.1477,0,31,31,46,1,47,training,zh2x,i,zh2x_i,zh2x_7_ixi.wav,,ixi.jpg,,,,,,,,,,,,,,,,,,,,,,,,,,,,,,,,,
5ea8d68a37c5173456c94f50,2023-06-16_09h29.22.053,phx_ver10,2022.2.5,Win32,7.861202607,,,,,space,0.1517,0,32,32,36,1,37,training,zh2x,i,zh2x_i,zh2x_2_izhi.wav,,izhi.jpg,,,,,,,,,,,,,,,,,,,,,,,,,,,,,,,,,
5ea8d68a37c5173456c94f50,2023-06-16_09h29.22.053,phx_ver10,2022.2.5,Win32,7.861202607,,,,,space,0.1548,0,33,33,25,1,26,training,zh2x,e,zh2x_e,zh2x_6_exe.wav,,exe.jpg,,,,,,,,,,,,,,,,,,,,,,,,,,,,,,,,,
5ea8d68a37c5173456c94f50,2023-06-16_09h29.22.053,phx_ver10,2022.2.5,Win32,7.861202607,,,,,space,0.0099,0,34,34,15,1,16,training,zh2x,a,zh2x_a,zh2x_8_axa.wav,,axa.jpg,,,,,,,,,,,,,,,,,,,,,,,,,,,,,,,,,
5ea8d68a37c5173456c94f50,2023-06-16_09h29.22.053,phx_ver10,2022.2.5,Win32,7.861202607,,,,,space,0.1443,0,35,35,17,1,18,training,zh2x,e,zh2x_e,zh2x_2_ezhe.wav,,ezhe.jpg,,,,,,,,,,,,,,,,,,,,,,,,,,,,,,,,,
5ea8d68a37c5173456c94f50,2023-06-16_09h29.22.053,phx_ver10,2022.2.5,Win32,7.861202607,,,,,,,,,,,,,attn_test,,,,zh2x_1_izhi.wav,zh2x_8_axa.wav,izhi.jpg,LEFT,,f,0.4716,space,2.3878,0,0,0,0,1,,,,,,,,,,,,,,,,,,,,,,
5ea8d68a37c5173456c94f50,2023-06-16_09h29.22.053,phx_ver10,2022.2.5,Win32,7.861202607,,,,,space,0.3003,0,36,36,26,1,27,training,zh2x,e,zh2x_e,zh2x_6_exe.wav,,exe.jpg,,,,,,,,,,,,,,,,,,,,,,,,,,,,,,,,,
5ea8d68a37c5173456c94f50,2023-06-16_09h29.22.053,phx_ver10,2022.2.5,Win32,7.861202607,,,,,space,2.6082,0,37,37,13,1,14,training,zh2x,a,zh2x_a,zh2x_7_axa.wav,,axa.jpg,,,,,,,,,,,,,,,,,,,,,,,,,,,,,,,,,
5ea8d68a37c5173456c94f50,2023-06-16_09h29.22.053,phx_ver10,2022.2.5,Win32,7.861202607,,,,,space,0.4878,0,38,38,33,1,34,training,zh2x,i,zh2x_i,zh2x_2_izhi.wav,,izhi.jpg,,,,,,,,,,,,,,,,,,,,,,,,,,,,,,,,,
5ea8d68a37c5173456c94f50,2023-06-16_09h29.22.053,phx_ver10,2022.2.5,Win32,7.861202607,,,,,space,0.1749,0,39,39,2,1,3,training,zh2x,a,zh2x_a,zh2x_2_azha.wav,,azha.jpg,,,,,,,,,,,,,,,,,,,,,,,,,,,,,,,,,
5ea8d68a37c5173456c94f50,2023-06-16_09h29.22.053,phx_ver10,2022.2.5,Win32,7.861202607,,,,,space,0.1602,0,40,40,21,1,22,training,zh2x,e,zh2x_e,zh2x_3_ezhe.wav,,ezhe.jpg,,,,,,,,,,,,,,,,,,,,,,,,,,,,,,,,,
5ea8d68a37c5173456c94f50,2023-06-16_09h29.22.053,phx_ver10,2022.2.5,Win32,7.861202607,,,,,space,0.291,0,41,41,1,1,2,training,zh2x,a,zh2x_a,zh2x_2_azha.wav,,azha.jpg,,,,,,,,,,,,,,,,,,,,,,,,,,,,,,,,,
5ea8d68a37c5173456c94f50,2023-06-16_09h29.22.053,phx_ver10,2022.2.5,Win32,7.861202607,,,,,,,,,,,,,attn_test,,,,zh2x_1_ezhe.wav,zh2x_8_axa.wav,ezhe.jpg,LEFT,,f,0.1698,space,1.0848,0,0,0,0,1,,,,,,,,,,,,,,,,,,,,,,
5ea8d68a37c5173456c94f50,2023-06-16_09h29.22.053,phx_ver10,2022.2.5,Win32,7.861202607,,,,,space,1.5924,0,42,42,12,1,13,training,zh2x,a,zh2x_a,zh2x_7_axa.wav,,axa.jpg,,,,,,,,,,,,,,,,,,,,,,,,,,,,,,,,,
5ea8d68a37c5173456c94f50,2023-06-16_09h29.22.053,phx_ver10,2022.2.5,Win32,7.861202607,,,,,space,4.1594,0,43,43,28,1,29,training,zh2x,e,zh2x_e,zh2x_7_exe.wav,,exe.jpg,,,,,,,,,,,,,,,,,,,,,,,,,,,,,,,,,
5ea8d68a37c5173456c94f50,2023-06-16_09h29.22.053,phx_ver10,2022.2.5,Win32,7.861202607,,,,,space,1.6428,0,44,44,18,1,19,training,zh2x,e,zh2x_e,zh2x_2_ezhe.wav,,ezhe.jpg,,,,,,,,,,,,,,,,,,,,,,,,,,,,,,,,,
5ea8d68a37c5173456c94f50,2023-06-16_09h29.22.053,phx_ver10,2022.2.5,Win32,7.861202607,,,,,space,0.1551,0,45,45,41,1,42,training,zh2x,i,zh2x_i,zh2x_6_ixi.wav,,ixi.jpg,,,,,,,,,,,,,,,,,,,,,,,,,,,,,,,,,
5ea8d68a37c5173456c94f50,2023-06-16_09h29.22.053,phx_ver10,2022.2.5,Win32,7.861202607,,,,,space,0.3026,0,46,46,8,1,9,training,zh2x,a,zh2x_a,zh2x_5_axa.wav,,axa.jpg,,,,,,,,,,,,,,,,,,,,,,,,,,,,,,,,,
5ea8d68a37c5173456c94f50,2023-06-16_09h29.22.053,phx_ver10,2022.2.5,Win32,7.861202607,,,,,space,0.1617,0,47,47,24,1,25,training,zh2x,e,zh2x_e,zh2x_5_exe.wav,,exe.jpg,,,,,,,,,,,,,,,,,,,,,,,,,,,,,,,,,
5ea8d68a37c5173456c94f50,2023-06-16_09h29.22.053,phx_ver10,2022.2.5,Win32,7.861202607,,,,,,,,,,,,,attn_test,,,,zh2x_8_ixi.wav,zh2x_8_exe.wav,ixi.jpg,LEFT,,f,0.8865,space,1.738,,,,,,,,,,,,,,,,,,,,,,,,,,,
5ea8d68a37c5173456c94f50,2023-06-16_09h29.22.053,phx_ver10,2022.2.5,Win32,7.861202607,,,,,,,,,,,,,,,,,,,,,,,,,,,,,,,space,0.8339,,,,,,,,,,,,,,,,,,,,
5ea8d68a37c5173456c94f50,2023-06-16_09h29.22.053,phx_ver10,2022.2.5,Win32,7.861202607,,,,,,,,,,,,,,,,,,,,,,,,,,,,,,,,,space,6.2147,,,,,,,,,,,,,,,,,,
5ea8d68a37c5173456c94f50,2023-06-16_09h29.22.053,phx_ver10,2022.2.5,Win32,7.861202607,,,,,,,,,,,,2,testing_pre,,,,auhau.wav,aufau.wav,,FALSE,,,,,,,,,,,,,,,j,1.8677,space,2.6799,0,0,0,1,1,,,,,,,,,
5ea8d68a37c5173456c94f50,2023-06-16_09h29.22.053,phx_ver10,2022.2.5,Win32,7.861202607,,,,,,,,,,,,4,testing_pre,,,,eihei.wav,eihei.wav,,TRUE,,,,,,,,,,,,,,,f,0.1488,space,0.8243,0,1,1,3,1,,,,,,,,,
5ea8d68a37c5173456c94f50,2023-06-16_09h29.22.053,phx_ver10,2022.2.5,Win32,7.861202607,,,,,,,,,,,,5,testing_pre,,,,ihi.wav,ifi.wav,,FALSE,,,,,,,,,,,,,,,j,0.8207,space,1.3581,0,2,2,4,1,,,,,,,,,
5ea8d68a37c5173456c94f50,2023-06-16_09h29.22.053,phx_ver10,2022.2.5,Win32,7.861202607,,,,,,,,,,,,3,testing_pre,,,,afa.wav,aha.wav,,FALSE,,,,,,,,,,,,,,,j,0.5459,space,1.0825,0,3,3,2,1,,,,,,,,,
5ea8d68a37c5173456c94f50,2023-06-16_09h29.22.053,phx_ver10,2022.2.5,Win32,7.861202607,,,,,,,,,,,,1,testing_pre,,,,ifi.wav,ifi.wav,,TRUE,,,,,,,,,,,,,,,f,0.2833,space,0.8061,0,4,4,0,1,,,,,,,,,
5ea8d68a37c5173456c94f50,2023-06-16_09h29.22.053,phx_ver10,2022.2.5,Win32,7.861202607,,,,,,,,,,,,,,,,,,,,,,,,,,,,,,,,,,,,,,,,,,,,space,0.5322,,,,,,,
5ea8d68a37c5173456c94f50,2023-06-16_09h29.22.053,phx_ver10,2022.2.5,Win32,7.861202607,,,,,,,,,,,,105,testing_3,sh2x,au,sh2x_au,sh2x_1_aushau.wav,sh2x_1_aushau.wav,,TRUE,FALSE,,,,,,,,,,,,,,f,1.0811,space,1.7409,,,,,,,,0,0,0,104,1,,
5ea8d68a37c5173456c94f50,2023-06-16_09h29.22.053,phx_ver10,2022.2.5,Win32,7.861202607,,,,,,,,,,,,142,testing_3,sh2j,i,sh2j_i,sh2j_8_iji.wav,sh2j_8_iji.wav,,TRUE,FALSE,,,,,,,,,,,,,,j,2.7933,space,3.339,,,,,,,,0,1,1,141,1,,
5ea8d68a37c5173456c94f50,2023-06-16_09h29.22.053,phx_ver10,2022.2.5,Win32,7.861202607,,,,,,,,,,,,13,testing_2,zh2x,ai,zh2x_ai,zh2x_1_aizhai.wav,zh2x_1_aizhai.wav,,TRUE,FALSE,,,,,,,,,,,,,,j,3.1736,space,4.172,,,,,,,,0,2,2,12,1,,
5ea8d68a37c5173456c94f50,2023-06-16_09h29.22.053,phx_ver10,2022.2.5,Win32,7.861202607,,,,,,,,,,,,129,testing_3,sh2j,au,sh2j_au,sh2j_1_aushau.wav,sh2j_1_aushau.wav,,TRUE,FALSE,,,,,,,,,,,,,,j,3.1812,space,3.5993,,,,,,,,0,3,3,128,1,,
5ea8d68a37c5173456c94f50,2023-06-16_09h29.22.053,phx_ver10,2022.2.5,Win32,7.861202607,,,,,,,,,,,,74,testing_3,j2x,a,j2x_a,j2x_8_axa.wav,j2x_8_axa.wav,,TRUE,FALSE,,,,,,,,,,,,,,j,1.4899,space,1.8944,,,,,,,,0,4,4,73,1,,
5ea8d68a37c5173456c94f50,2023-06-16_09h29.22.053,phx_ver10,2022.2.5,Win32,7.861202607,,,,,,,,,,,,11,testing_1,zh2x,i,zh2x_i,zh2x_1_izhi.wav,zh2x_8_ixi.wav,,FALSE,TRUE,,,,,,,,,,,,,,j,0.8371,space,1.2491,,,,,,,,0,5,5,10,1,,
5ea8d68a37c5173456c94f50,2023-06-16_09h29.22.053,phx_ver10,2022.2.5,Win32,7.861202607,,,,,,,,,,,,51,testing_3,zh2j,a,zh2j_a,zh2j_1_azha.wav,zh2j_8_aja.wav,,FALSE,FALSE,,,,,,,,,,,,,,f,0.1521,space,0.7065,,,,,,,,0,6,6,50,1,,
5ea8d68a37c5173456c94f50,2023-06-16_09h29.22.053,phx_ver10,2022.2.5,Win32,7.861202607,,,,,,,,,,,,3,testing_1,zh2x,a,zh2x_a,zh2x_1_azha.wav,zh2x_8_axa.wav,,FALSE,TRUE,,,,,,,,,,,,,,j,0.846,space,1.4107,,,,,,,,0,7,7,2,1,,
5ea8d68a37c5173456c94f50,2023-06-16_09h29.22.053,phx_ver10,2022.2.5,Win32,7.861202607,,,,,,,,,,,,144,testing_3,sh2j,i,sh2j_i,sh2j_8_iji.wav,sh2j_1_ishi.wav,,FALSE,FALSE,,,,,,,,,,,,,,j,0.5479,space,1.2235,,,,,,,,0,8,8,143,1,,
5ea8d68a37c5173456c94f50,2023-06-16_09h29.22.053,phx_ver10,2022.2.5,Win32,7.861202607,,,,,,,,,,,,102,testing_3,sh2x,ai,sh2x_ai,sh2x_8_aixai.wav,sh2x_8_aixai.wav,,TRUE,FALSE,,,,,,,,,,,,,,f,0.0108,space,0.561,,,,,,,,0,9,9,101,1,,
5ea8d68a37c5173456c94f50,2023-06-16_09h29.22.053,phx_ver10,2022.2.5,Win32,7.861202607,,,,,,,,,,,,18,testing_2,zh2x,au,zh2x_au,zh2x_8_auxau.wav,zh2x_8_auxau.wav,,TRUE,FALSE,,,,,,,,,,,,,,f,0.0103,space,0.4194,,,,,,,,0,10,10,17,1,,
5ea8d68a37c5173456c94f50,2023-06-16_09h29.22.053,phx_ver10,2022.2.5,Win32,7.861202607,,,,,,,,,,,,54,testing_3,zh2j,ai,zh2j_ai,zh2j_8_aijai.wav,zh2j_8_aijai.wav,,TRUE,FALSE,,,,,,,,,,,,,,j,0.6853,space,1.2079,,,,,,,,0,11,11,53,1,,
5ea8d68a37c5173456c94f50,2023-06-16_09h29.22.053,phx_ver10,2022.2.5,Win32,7.861202607,,,,,,,,,,,,143,testing_3,sh2j,i,sh2j_i,sh2j_1_ishi.wav,sh2j_8_iji.wav,,FALSE,FALSE,,,,,,,,,,,,,,j,0.0107,space,0.4229,,,,,,,,0,12,12,142,1,,
5ea8d68a37c5173456c94f50,2023-06-16_09h29.22.053,phx_ver10,2022.2.5,Win32,7.861202607,,,,,,,,,,,,71,testing_3,zh2j,i,zh2j_i,zh2j_1_izhi.wav,zh2j_8_iji.wav,,FALSE,FALSE,,,,,,,,,,,,,,f,0.0097,space,0.2806,,,,,,,,0,13,13,70,1,,
5ea8d68a37c5173456c94f50,2023-06-16_09h29.22.053,phx_ver10,2022.2.5,Win32,7.861202607,,,,,,,,,,,,42,testing_3,zh2sh,ei,zh2sh_ei,zh2sh_8_eishei.wav,zh2sh_8_eishei.wav,,TRUE,FALSE,,,,,,,,,,,,,,j,3.9643,space,4.5042,,,,,,,,0,14,14,41,1,,
5ea8d68a37c5173456c94f50,2023-06-16_09h29.22.053,phx_ver10,2022.2.5,Win32,7.861202607,,,,,,,,,,,,43,testing_3,zh2sh,ei,zh2sh_ei,zh2sh_1_eizhei.wav,zh2sh_8_eishei.wav,,FALSE,FALSE,,,,,,,,,,,,,,j,0.5504,space,0.9486,,,,,,,,0,15,15,42,1,,
5ea8d68a37c5173456c94f50,2023-06-16_09h29.22.053,phx_ver10,2022.2.5,Win32,7.861202607,,,,,,,,,,,,12,testing_1,zh2x,i,zh2x_i,zh2x_8_ixi.wav,zh2x_1_izhi.wav,,FALSE,TRUE,,,,,,,,,,,,,,j,0.5595,space,0.9719,,,,,,,,0,16,16,11,1,,
5ea8d68a37c5173456c94f50,2023-06-16_09h29.22.053,phx_ver10,2022.2.5,Win32,7.861202607,,,,,,,,,,,,140,testing_3,sh2j,ei,sh2j_ei,sh2j_8_eijei.wav,sh2j_1_eishei.wav,,FALSE,FALSE,,,,,,,,,,,,,,j,0.2815,space,0.6867,,,,,,,,0,17,17,139,1,,
5ea8d68a37c5173456c94f50,2023-06-16_09h29.22.053,phx_ver10,2022.2.5,Win32,7.861202607,,,,,,,,,,,,97,testing_3,sh2x,a,sh2x_a,sh2x_1_asha.wav,sh2x_1_asha.wav,,TRUE,FALSE,,,,,,,,,,,,,,j,0.0128,space,0.4517,,,,,,,,0,18,18,96,1,,
5ea8d68a37c5173456c94f50,2023-06-16_09h29.22.053,phx_ver10,2022.2.5,Win32,7.861202607,,,,,,,,,,,,78,testing_3,j2x,ai,j2x_ai,j2x_8_aixai.wav,j2x_8_aixai.wav,,TRUE,FALSE,,,,,,,,,,,,,,f,0.0106,space,0.415,,,,,,,,0,19,19,77,1,,
5ea8d68a37c5173456c94f50,2023-06-16_09h29.22.053,phx_ver10,2022.2.5,Win32,7.861202607,,,,,,,,,,,,113,testing_3,sh2x,ei,sh2x_ei,sh2x_1_eishei.wav,sh2x_1_eishei.wav,,TRUE,FALSE,,,,,,,,,,,,,,j,0.2886,space,0.5618,,,,,,,,0,20,20,112,1,,
5ea8d68a37c5173456c94f50,2023-06-16_09h29.22.053,phx_ver10,2022.2.5,Win32,7.861202607,,,,,,,,,,,,111,testing_3,sh2x,e,sh2x_e,sh2x_1_eshe.wav,sh2x_8_exe.wav,,FALSE,FALSE,,,,,,,,,,,,,,j,0.2881,space,0.5661,,,,,,,,0,21,21,110,1,,
5ea8d68a37c5173456c94f50,2023-06-16_09h29.22.053,phx_ver10,2022.2.5,Win32,7.861202607,,,,,,,,,,,,19,testing_2,zh2x,au,zh2x_au,zh2x_1_auzhau.wav,zh2x_8_auxau.wav,,FALSE,FALSE,,,,,,,,,,,,,,j,0.2715,space,0.6672,,,,,,,,0,22,22,18,1,,
5ea8d68a37c5173456c94f50,2023-06-16_09h29.22.053,phx_ver10,2022.2.5,Win32,7.861202607,,,,,,,,,,,,17,testing_2,zh2x,au,zh2x_au,zh2x_1_auzhau.wav,zh2x_1_auzhau.wav,,TRUE,FALSE,,,,,,,,,,,,,,j,0.0105,space,0.3043,,,,,,,,0,23,23,16,1,,
5ea8d68a37c5173456c94f50,2023-06-16_09h29.22.053,phx_ver10,2022.2.5,Win32,7.861202607,,,,,,,,,,,,90,testing_3,j2x,ei,j2x_ei,j2x_8_eixei.wav,j2x_8_eixei.wav,,TRUE,FALSE,,,,,,,,,,,,,,f,0.831,space,1.503,,,,,,,,0,24,24,89,1,,
5ea8d68a37c5173456c94f50,2023-06-16_09h29.22.053,phx_ver10,2022.2.5,Win32,7.861202607,,,,,,,,,,,,32,testing_3,zh2sh,ai,zh2sh_ai,zh2sh_8_aishai.wav,zh2sh_1_aizhai.wav,,FALSE,FALSE,,,,,,,,,,,,,,j,0.8317,space,1.1088,,,,,,,,0,25,25,31,1,,
5ea8d68a37c5173456c94f50,2023-06-16_09h29.22.053,phx_ver10,2022.2.5,Win32,7.861202607,,,,,,,,,,,,6,testing_1,zh2x,e,zh2x_e,zh2x_8_exe.wav,zh2x_8_exe_copy.wav,,TRUE,TRUE,,,,,,,,,,,,,,f,0.0103,space,0.4191,,,,,,,,0,26,26,5,1,,
5ea8d68a37c5173456c94f50,2023-06-16_09h29.22.053,phx_ver10,2022.2.5,Win32,7.861202607,,,,,,,,,,,,21,testing_2,zh2x,ei,zh2x_ei,zh2x_1_eizhei.wav,zh2x_1_eizhei.wav,,TRUE,FALSE,,,,,,,,,,,,,,j,0.6874,space,0.9632,,,,,,,,0,27,27,20,1,,
5ea8d68a37c5173456c94f50,2023-06-16_09h29.22.053,phx_ver10,2022.2.5,Win32,7.861202607,,,,,,,,,,,,28,testing_3,zh2sh,a,zh2sh_a,zh2sh_8_asha.wav,zh2sh_1_azha.wav,,FALSE,FALSE,,,,,,,,,,,,,,j,0.1323,space,0.5294,,,,,,,,0,28,28,27,1,,
5ea8d68a37c5173456c94f50,2023-06-16_09h29.22.053,phx_ver10,2022.2.5,Win32,7.861202607,,,,,,,,,,,,95,testing_3,j2x,i,j2x_i,j2x_1_iji.wav,j2x_8_ixi.wav,,FALSE,FALSE,,,,,,,,,,,,,,j,0.7945,space,1.0656,,,,,,,,0,29,29,94,1,,
5ea8d68a37c5173456c94f50,2023-06-16_09h29.22.053,phx_ver10,2022.2.5,Win32,7.861202607,,,,,,,,,,,,93,testing_3,j2x,i,j2x_i,j2x_1_iji.wav,j2x_1_iji.wav,,TRUE,FALSE,,,,,,,,,,,,,,f,0.4198,space,1.3592,,,,,,,,0,30,30,92,1,,
5ea8d68a37c5173456c94f50,2023-06-16_09h29.22.053,phx_ver10,2022.2.5,Win32,7.861202607,,,,,,,,,,,,81,testing_3,j2x,au,j2x_au,j2x_1_aujau.wav,j2x_1_aujau.wav,,TRUE,FALSE,,,,,,,,,,,,,,f,0.1461,space,0.6814,,,,,,,,0,31,31,80,1,,
5ea8d68a37c5173456c94f50,2023-06-16_09h29.22.053,phx_ver10,2022.2.5,Win32,7.861202607,,,,,,,,,,,,39,testing_3,zh2sh,e,zh2sh_e,zh2sh_1_ezhe.wav,zh2sh_8_eshe.wav,,FALSE,FALSE,,,,,,,,,,,,,,j,0.0098,space,0.4077,,,,,,,,0,32,32,38,1,,
5ea8d68a37c5173456c94f50,2023-06-16_09h29.22.053,phx_ver10,2022.2.5,Win32,7.861202607,,,,,,,,,,,,73,testing_3,j2x,a,j2x_a,j2x_1_aja.wav,j2x_1_aja.wav,,TRUE,FALSE,,,,,,,,,,,,,,f,0.1489,space,0.6921,,,,,,,,0,33,33,72,1,,
5ea8d68a37c5173456c94f50,2023-06-16_09h29.22.053,phx_ver10,2022.2.5,Win32,7.861202607,,,,,,,,,,,,122,testing_3,sh2j,a,sh2j_a,sh2j_8_aja.wav,sh2j_8_aja.wav,,TRUE,FALSE,,,,,,,,,,,,,,f,0.2881,space,0.5646,,,,,,,,0,34,34,121,1,,
5ea8d68a37c5173456c94f50,2023-06-16_09h29.22.053,phx_ver10,2022.2.5,Win32,7.861202607,,,,,,,,,,,,36,testing_3,zh2sh,au,zh2sh_au,zh2sh_8_aushau.wav,zh2sh_1_auzhau.wav,,FALSE,FALSE,,,,,,,,,,,,,,j,0.2839,space,0.6823,,,,,,,,0,35,35,35,1,,
5ea8d68a37c5173456c94f50,2023-06-16_09h29.22.053,phx_ver10,2022.2.5,Win32,7.861202607,,,,,,,,,,,,5,testing_1,zh2x,e,zh2x_e,zh2x_1_ezhe.wav,zh2x_1_ezhe_copy.wav,,TRUE,TRUE,,,,,,,,,,,,,,f,0.8165,space,1.0817,,,,,,,,0,36,36,4,1,,
5ea8d68a37c5173456c94f50,2023-06-16_09h29.22.053,phx_ver10,2022.2.5,Win32,7.861202607,,,,,,,,,,,,131,testing_3,sh2j,au,sh2j_au,sh2j_1_aushau.wav,sh2j_8_aujau.wav,,FALSE,FALSE,,,,,,,,,,,,,,j,0.0106,space,0.5204,,,,,,,,0,37,37,130,1,,
5ea8d68a37c5173456c94f50,2023-06-16_09h29.22.053,phx_ver10,2022.2.5,Win32,7.861202607,,,,,,,,,,,,119,testing_3,sh2x,i,sh2x_i,sh2x_1_ishi.wav,sh2x_8_ixi.wav,,FALSE,FALSE,,,,,,,,,,,,,,f,0.826,space,1.2337,,,,,,,,0,38,38,118,1,,
5ea8d68a37c5173456c94f50,2023-06-16_09h29.22.053,phx_ver10,2022.2.5,Win32,7.861202607,,,,,,,,,,,,103,testing_3,sh2x,ai,sh2x_ai,sh2x_1_aishai.wav,sh2x_8_aixai.wav,,FALSE,FALSE,,,,,,,,,,,,,,j,0.2745,space,0.8176,,,,,,,,0,39,39,102,1,,
5ea8d68a37c5173456c94f50,2023-06-16_09h29.22.053,phx_ver10,2022.2.5,Win32,7.861202607,,,,,,,,,,,,40,testing_3,zh2sh,e,zh2sh_e,zh2sh_8_eshe.wav,zh2sh_1_ezhe.wav,,FALSE,FALSE,,,,,,,,,,,,,,j,0.1428,space,0.6795,,,,,,,,0,40,40,39,1,,
5ea8d68a37c5173456c94f50,2023-06-16_09h29.22.053,phx_ver10,2022.2.5,Win32,7.861202607,,,,,,,,,,,,104,testing_3,sh2x,ai,sh2x_ai,sh2x_8_aixai.wav,sh2x_1_aishai.wav,,FALSE,FALSE,,,,,,,,,,,,,,f,0.0106,space,0.536,,,,,,,,0,41,41,103,1,,
5ea8d68a37c5173456c94f50,2023-06-16_09h29.22.053,phx_ver10,2022.2.5,Win32,7.861202607,,,,,,,,,,,,34,testing_3,zh2sh,au,zh2sh_au,zh2sh_8_aushau.wav,zh2sh_8_aushau.wav,,TRUE,FALSE,,,,,,,,,,,,,,f,0.1479,space,0.684,,,,,,,,0,42,42,33,1,,
5ea8d68a37c5173456c94f50,2023-06-16_09h29.22.053,phx_ver10,2022.2.5,Win32,7.861202607,,,,,,,,,,,,15,testing_2,zh2x,ai,zh2x_ai,zh2x_1_aizhai.wav,zh2x_8_aixai.wav,,FALSE,FALSE,,,,,,,,,,,,,,j,0.5566,space,1.0929,,,,,,,,0,43,43,14,1,,
5ea8d68a37c5173456c94f50,2023-06-16_09h29.22.053,phx_ver10,2022.2.5,Win32,7.861202607,,,,,,,,,,,,133,testing_3,sh2j,e,sh2j_e,sh2j_1_eshe.wav,sh2j_1_eshe.wav,,TRUE,FALSE,,,,,,,,,,,,,,f,0.0101,space,0.5572,,,,,,,,0,44,44,132,1,,
5ea8d68a37c5173456c94f50,2023-06-16_09h29.22.053,phx_ver10,2022.2.5,Win32,7.861202607,,,,,,,,,,,,128,testing_3,sh2j,ai,sh2j_ai,sh2j_8_aijai.wav,sh2j_1_aishai.wav,,FALSE,FALSE,,,,,,,,,,,,,,j,0.1268,space,0.6622,,,,,,,,0,45,45,127,1,,
5ea8d68a37c5173456c94f50,2023-06-16_09h29.22.053,phx_ver10,2022.2.5,Win32,7.861202607,,,,,,,,,,,,29,testing_3,zh2sh,ai,zh2sh_ai,zh2sh_1_aizhai.wav,zh2sh_1_aizhai.wav,,TRUE,FALSE,,,,,,,,,,,,,,f,0.0104,space,0.4188,,,,,,,,0,46,46,28,1,,
5ea8d68a37c5173456c94f50,2023-06-16_09h29.22.053,phx_ver10,2022.2.5,Win32,7.861202607,,,,,,,,,,,,69,testing_3,zh2j,i,zh2j_i,zh2j_1_izhi.wav,zh2j_1_izhi.wav,,TRUE,FALSE,,,,,,,,,,,,,,f,0.1448,space,0.6725,,,,,,,,0,47,47,68,1,,
5ea8d68a37c5173456c94f50,2023-06-16_09h29.22.053,phx_ver10,2022.2.5,Win32,7.861202607,,,,,,,,,,,,53,testing_3,zh2j,ai,zh2j_ai,zh2j_1_aizhai.wav,zh2j_1_aizhai.wav,,TRUE,FALSE,,,,,,,,,,,,,,f,0.0111,space,0.4143,,,,,,,,0,48,48,52,1,,
5ea8d68a37c5173456c94f50,2023-06-16_09h29.22.053,phx_ver10,2022.2.5,Win32,7.861202607,,,,,,,,,,,,1,testing_1,zh2x,a,zh2x_a,zh2x_1_azha.wav,zh2x_1_azha_copy.wav,,TRUE,TRUE,,,,,,,,,,,,,,f,0.1416,space,0.534,,,,,,,,0,49,49,0,1,,
5ea8d68a37c5173456c94f50,2023-06-16_09h29.22.053,phx_ver10,2022.2.5,Win32,7.861202607,,,,,,,,,,,,112,testing_3,sh2x,e,sh2x_e,sh2x_8_exe.wav,sh2x_1_eshe.wav,,FALSE,FALSE,,,,,,,,,,,,,,f,0.1468,space,0.5606,,,,,,,,0,50,50,111,1,,
5ea8d68a37c5173456c94f50,2023-06-16_09h29.22.053,phx_ver10,2022.2.5,Win32,7.861202607,,,,,,,,,,,,124,testing_3,sh2j,a,sh2j_a,sh2j_8_aja.wav,sh2j_1_asha.wav,,FALSE,FALSE,,,,,,,,,,,,,,j,0.5478,space,0.8279,,,,,,,,0,51,51,123,1,,
5ea8d68a37c5173456c94f50,2023-06-16_09h29.22.053,phx_ver10,2022.2.5,Win32,7.861202607,,,,,,,,,,,,117,testing_3,sh2x,i,sh2x_i,sh2x_1_ishi.wav,sh2x_1_ishi.wav,,TRUE,FALSE,,,,,,,,,,,,,,j,0.7233,space,1.137,,,,,,,,0,52,52,116,1,,
5ea8d68a37c5173456c94f50,2023-06-16_09h29.22.053,phx_ver10,2022.2.5,Win32,7.861202607,,,,,,,,,,,,50,testing_3,zh2j,a,zh2j_a,zh2j_8_aja.wav,zh2j_8_aja.wav,,TRUE,FALSE,,,,,,,,,,,,,,f,0.1485,space,0.7,,,,,,,,0,53,53,49,1,,
5ea8d68a37c5173456c94f50,2023-06-16_09h29.22.053,phx_ver10,2022.2.5,Win32,7.861202607,,,,,,,,,,,,132,testing_3,sh2j,au,sh2j_au,sh2j_8_aujau.wav,sh2j_1_aushau.wav,,FALSE,FALSE,,,,,,,,,,,,,,j,0.0104,space,0.5451,,,,,,,,0,54,54,131,1,,
5ea8d68a37c5173456c94f50,2023-06-16_09h29.22.053,phx_ver10,2022.2.5,Win32,7.861202607,,,,,,,,,,,,65,testing_3,zh2j,ei,zh2j_ei,zh2j_1_eizhei.wav,zh2j_1_eizhei.wav,,TRUE,FALSE,,,,,,,,,,,,,,j,0.5633,space,0.9551,,,,,,,,0,55,55,64,1,,
5ea8d68a37c5173456c94f50,2023-06-16_09h29.22.053,phx_ver10,2022.2.5,Win32,7.861202607,,,,,,,,,,,,64,testing_3,zh2j,e,zh2j_e,zh2j_8_eje.wav,zh2j_1_ezhe.wav,,FALSE,FALSE,,,,,,,,,,,,,,f,0.145,space,0.5551,,,,,,,,0,56,56,63,1,,
5ea8d68a37c5173456c94f50,2023-06-16_09h29.22.053,phx_ver10,2022.2.5,Win32,7.861202607,,,,,,,,,,,,123,testing_3,sh2j,a,sh2j_a,sh2j_1_asha.wav,sh2j_8_aja.wav,,FALSE,FALSE,,,,,,,,,,,,,,j,0.1493,space,0.6867,,,,,,,,0,57,57,122,1,,
5ea8d68a37c5173456c94f50,2023-06-16_09h29.22.053,phx_ver10,2022.2.5,Win32,7.861202607,,,,,,,,,,,,48,testing_3,zh2sh,i,zh2sh_i,zh2sh_8_ishi.wav,zh2sh_1_izhi.wav,,FALSE,FALSE,,,,,,,,,,,,,,j,0.1392,space,0.6833,,,,,,,,0,58,58,47,1,,
5ea8d68a37c5173456c94f50,2023-06-16_09h29.22.053,phx_ver10,2022.2.5,Win32,7.861202607,,,,,,,,,,,,136,testing_3,sh2j,e,sh2j_e,sh2j_8_eje.wav,sh2j_1_eshe.wav,,FALSE,FALSE,,,,,,,,,,,,,,j,0.0095,space,0.5411,,,,,,,,0,59,59,135,1,,
5ea8d68a37c5173456c94f50,2023-06-16_09h29.22.053,phx_ver10,2022.2.5,Win32,7.861202607,,,,,,,,,,,,135,testing_3,sh2j,e,sh2j_e,sh2j_1_eshe.wav,sh2j_8_eje.wav,,FALSE,FALSE,,,,,,,,,,,,,,j,0.275,space,0.7991,,,,,,,,0,60,60,134,1,,
5ea8d68a37c5173456c94f50,2023-06-16_09h29.22.053,phx_ver10,2022.2.5,Win32,7.861202607,,,,,,,,,,,,25,testing_3,zh2sh,a,zh2sh_a,zh2sh_1_azha.wav,zh2sh_1_azha.wav,,TRUE,FALSE,,,,,,,,,,,,,,j,0.6705,space,1.2109,,,,,,,,0,61,61,24,1,,
5ea8d68a37c5173456c94f50,2023-06-16_09h29.22.053,phx_ver10,2022.2.5,Win32,7.861202607,,,,,,,,,,,,109,testing_3,sh2x,e,sh2x_e,sh2x_1_eshe.wav,sh2x_1_eshe.wav,,TRUE,FALSE,,,,,,,,,,,,,,j,0.4183,space,0.8015,,,,,,,,0,62,62,108,1,,
5ea8d68a37c5173456c94f50,2023-06-16_09h29.22.053,phx_ver10,2022.2.5,Win32,7.861202607,,,,,,,,,,,,55,testing_3,zh2j,ai,zh2j_ai,zh2j_1_aizhai.wav,zh2j_8_aijai.wav,,FALSE,FALSE,,,,,,,,,,,,,,f,1.0807,space,1.4769,,,,,,,,0,63,63,54,1,,
5ea8d68a37c5173456c94f50,2023-06-16_09h29.22.053,phx_ver10,2022.2.5,Win32,7.861202607,,,,,,,,,,,,7,testing_1,zh2x,e,zh2x_e,zh2x_1_ezhe.wav,zh2x_8_exe.wav,,FALSE,TRUE,,,,,,,,,,,,,,j,0.1463,space,0.8227,,,,,,,,0,64,64,6,1,,
5ea8d68a37c5173456c94f50,2023-06-16_09h29.22.053,phx_ver10,2022.2.5,Win32,7.861202607,,,,,,,,,,,,68,testing_3,zh2j,ei,zh2j_ei,zh2j_8_eijei.wav,zh2j_1_eizhei.wav,,FALSE,FALSE,,,,,,,,,,,,,,f,0.7151,space,0.9918,,,,,,,,0,65,65,67,1,,
5ea8d68a37c5173456c94f50,2023-06-16_09h29.22.053,phx_ver10,2022.2.5,Win32,7.861202607,,,,,,,,,,,,60,testing_3,zh2j,au,zh2j_au,zh2j_8_aujau.wav,zh2j_1_auzhau.wav,,FALSE,FALSE,,,,,,,,,,,,,,f,0.4235,space,0.9617,,,,,,,,0,66,66,59,1,,
5ea8d68a37c5173456c94f50,2023-06-16_09h29.22.053,phx_ver10,2022.2.5,Win32,7.861202607,,,,,,,,,,,,138,testing_3,sh2j,ei,sh2j_ei,sh2j_8_eijei.wav,sh2j_8_eijei.wav,,TRUE,FALSE,,,,,,,,,,,,,,f,0.0108,space,0.5515,,,,,,,,0,67,67,137,1,,
5ea8d68a37c5173456c94f50,2023-06-16_09h29.22.053,phx_ver10,2022.2.5,Win32,7.861202607,,,,,,,,,,,,108,testing_3,sh2x,au,sh2x_au,sh2x_8_auxau.wav,sh2x_1_aushau.wav,,FALSE,FALSE,,,,,,,,,,,,,,j,0.1318,space,0.6566,,,,,,,,0,68,68,107,1,,
5ea8d68a37c5173456c94f50,2023-06-16_09h29.22.053,phx_ver10,2022.2.5,Win32,7.861202607,,,,,,,,,,,,114,testing_3,sh2x,ei,sh2x_ei,sh2x_8_eixei.wav,sh2x_8_eixei.wav,,TRUE,FALSE,,,,,,,,,,,,,,j,0.01,space,0.4232,,,,,,,,0,69,69,113,1,,
5ea8d68a37c5173456c94f50,2023-06-16_09h29.22.053,phx_ver10,2022.2.5,Win32,7.861202607,,,,,,,,,,,,75,testing_3,j2x,a,j2x_a,j2x_1_aja.wav,j2x_8_axa.wav,,FALSE,FALSE,,,,,,,,,,,,,,j,0.0108,space,0.5292,,,,,,,,0,70,70,74,1,,
5ea8d68a37c5173456c94f50,2023-06-16_09h29.22.053,phx_ver10,2022.2.5,Win32,7.861202607,,,,,,,,,,,,77,testing_3,j2x,ai,j2x_ai,j2x_1_aijai.wav,j2x_1_aijai.wav,,TRUE,FALSE,,,,,,,,,,,,,,f,0.0108,space,0.4181,,,,,,,,0,71,71,76,1,,
5ea8d68a37c5173456c94f50,2023-06-16_09h29.22.053,phx_ver10,2022.2.5,Win32,7.861202607,,,,,,,,,,,,83,testing_3,j2x,au,j2x_au,j2x_1_aujau.wav,j2x_8_auxau.wav,,FALSE,FALSE,,,,,,,,,,,,,,j,0.8013,space,0.9297,,,,,,,,0,72,72,82,1,,
5ea8d68a37c5173456c94f50,2023-06-16_09h29.22.053,phx_ver10,2022.2.5,Win32,7.861202607,,,,,,,,,,,,101,testing_3,sh2x,ai,sh2x_ai,sh2x_1_aishai.wav,sh2x_1_aishai.wav,,TRUE,FALSE,,,,,,,,,,,,,,f,2.7111,space,3.2563,,,,,,,,0,73,73,100,1,,
5ea8d68a37c5173456c94f50,2023-06-16_09h29.22.053,phx_ver10,2022.2.5,Win32,7.861202607,,,,,,,,,,,,52,testing_3,zh2j,a,zh2j_a,zh2j_8_aja.wav,zh2j_1_azha.wav,,FALSE,FALSE,,,,,,,,,,,,,,f,0.3995,space,0.8026,,,,,,,,0,74,74,51,1,,
5ea8d68a37c5173456c94f50,2023-06-16_09h29.22.053,phx_ver10,2022.2.5,Win32,7.861202607,,,,,,,,,,,,82,testing_3,j2x,au,j2x_au,j2x_8_auxau.wav,j2x_8_auxau.wav,,TRUE,FALSE,,,,,,,,,,,,,,f,0.4107,space,0.9525,,,,,,,,0,75,75,81,1,,
5ea8d68a37c5173456c94f50,2023-06-16_09h29.22.053,phx_ver10,2022.2.5,Win32,7.861202607,,,,,,,,,,,,106,testing_3,sh2x,au,sh2x_au,sh2x_8_auxau.wav,sh2x_8_auxau.wav,,TRUE,FALSE,,,,,,,,,,,,,,j,2.1623,space,2.5539,,,,,,,,0,76,76,105,1,,
5ea8d68a37c5173456c94f50,2023-06-16_09h29.22.053,phx_ver10,2022.2.5,Win32,7.861202607,,,,,,,,,,,,2,testing_1,zh2x,a,zh2x_a,zh2x_8_axa.wav,zh2x_8_axa_copy.wav,,TRUE,TRUE,,,,,,,,,,,,,,f,0.4115,space,0.8174,,,,,,,,0,77,77,1,1,,
5ea8d68a37c5173456c94f50,2023-06-16_09h29.22.053,phx_ver10,2022.2.5,Win32,7.861202607,,,,,,,,,,,,63,testing_3,zh2j,e,zh2j_e,zh2j_1_ezhe.wav,zh2j_8_eje.wav,,FALSE,FALSE,,,,,,,,,,,,,,f,0.2838,space,0.6824,,,,,,,,0,78,78,62,1,,
5ea8d68a37c5173456c94f50,2023-06-16_09h29.22.053,phx_ver10,2022.2.5,Win32,7.861202607,,,,,,,,,,,,41,testing_3,zh2sh,ei,zh2sh_ei,zh2sh_1_eizhei.wav,zh2sh_1_eizhei.wav,,TRUE,FALSE,,,,,,,,,,,,,,f,0.2845,space,0.5612,,,,,,,,0,79,79,40,1,,
5ea8d68a37c5173456c94f50,2023-06-16_09h29.22.053,phx_ver10,2022.2.5,Win32,7.861202607,,,,,,,,,,,,35,testing_3,zh2sh,au,zh2sh_au,zh2sh_1_auzhau.wav,zh2sh_8_aushau.wav,,FALSE,FALSE,,,,,,,,,,,,,,j,0.0105,space,0.2734,,,,,,,,0,80,80,34,1,,
5ea8d68a37c5173456c94f50,2023-06-16_09h29.22.053,phx_ver10,2022.2.5,Win32,7.861202607,,,,,,,,,,,,23,testing_2,zh2x,ei,zh2x_ei,zh2x_1_eizhei.wav,zh2x_8_eixei.wav,,FALSE,FALSE,,,,,,,,,,,,,,j,0.1447,space,0.5395,,,,,,,,0,81,81,22,1,,
5ea8d68a37c5173456c94f50,2023-06-16_09h29.22.053,phx_ver10,2022.2.5,Win32,7.861202607,,,,,,,,,,,,85,testing_3,j2x,e,j2x_e,j2x_1_eje.wav,j2x_1_eje.wav,,TRUE,FALSE,,,,,,,,,,,,,,j,2.3047,space,2.7062,,,,,,,,0,82,82,84,1,,
5ea8d68a37c5173456c94f50,2023-06-16_09h29.22.053,phx_ver10,2022.2.5,Win32,7.861202607,,,,,,,,,,,,4,testing_1,zh2x,a,zh2x_a,zh2x_8_axa.wav,zh2x_1_azha.wav,,FALSE,TRUE,,,,,,,,,,,,,,j,0.1308,space,0.5196,,,,,,,,0,83,83,3,1,,
5ea8d68a37c5173456c94f50,2023-06-16_09h29.22.053,phx_ver10,2022.2.5,Win32,7.861202607,,,,,,,,,,,,118,testing_3,sh2x,i,sh2x_i,sh2x_8_ixi.wav,sh2x_8_ixi.wav,,TRUE,FALSE,,,,,,,,,,,,,,j,0.0102,space,0.4265,,,,,,,,0,84,84,117,1,,
5ea8d68a37c5173456c94f50,2023-06-16_09h29.22.053,phx_ver10,2022.2.5,Win32,7.861202607,,,,,,,,,,,,92,testing_3,j2x,ei,j2x_ei,j2x_8_eixei.wav,j2x_1_eijei.wav,,FALSE,FALSE,,,,,,,,,,,,,,j,0.1446,space,0.5508,,,,,,,,0,85,85,91,1,,
5ea8d68a37c5173456c94f50,2023-06-16_09h29.22.053,phx_ver10,2022.2.5,Win32,7.861202607,,,,,,,,,,,,20,testing_2,zh2x,au,zh2x_au,zh2x_8_auxau.wav,zh2x_1_auzhau.wav,,FALSE,FALSE,,,,,,,,,,,,,,j,0.1571,space,0.5769,,,,,,,,0,86,86,19,1,,
5ea8d68a37c5173456c94f50,2023-06-16_09h29.22.053,phx_ver10,2022.2.5,Win32,7.861202607,,,,,,,,,,,,126,testing_3,sh2j,ai,sh2j_ai,sh2j_8_aijai.wav,sh2j_8_aijai.wav,,TRUE,FALSE,,,,,,,,,,,,,,j,0.2719,space,0.6759,,,,,,,,0,87,87,125,1,,
5ea8d68a37c5173456c94f50,2023-06-16_09h29.22.053,phx_ver10,2022.2.5,Win32,7.861202607,,,,,,,,,,,,24,testing_2,zh2x,ei,zh2x_ei,zh2x_8_eixei.wav,zh2x_1_eizhei.wav,,FALSE,FALSE,,,,,,,,,,,,,,j,0.4126,space,0.9628,,,,,,,,0,88,88,23,1,,
5ea8d68a37c5173456c94f50,2023-06-16_09h29.22.053,phx_ver10,2022.2.5,Win32,7.861202607,,,,,,,,,,,,89,testing_3,j2x,ei,j2x_ei,j2x_1_eijei.wav,j2x_1_eijei.wav,,TRUE,FALSE,,,,,,,,,,,,,,f,0.151,space,0.4275,,,,,,,,0,89,89,88,1,,
5ea8d68a37c5173456c94f50,2023-06-16_09h29.22.053,phx_ver10,2022.2.5,Win32,7.861202607,,,,,,,,,,,,121,testing_3,sh2j,a,sh2j_a,sh2j_1_asha.wav,sh2j_1_asha.wav,,TRUE,FALSE,,,,,,,,,,,,,,j,2.6551,space,3.052,,,,,,,,0,90,90,120,1,,
5ea8d68a37c5173456c94f50,2023-06-16_09h29.22.053,phx_ver10,2022.2.5,Win32,7.861202607,,,,,,,,,,,,99,testing_3,sh2x,a,sh2x_a,sh2x_1_asha.wav,sh2x_8_axa.wav,,FALSE,FALSE,,,,,,,,,,,,,,f,0.5441,space,0.9467,,,,,,,,0,91,91,98,1,,
5ea8d68a37c5173456c94f50,2023-06-16_09h29.22.053,phx_ver10,2022.2.5,Win32,7.861202607,,,,,,,,,,,,130,testing_3,sh2j,au,sh2j_au,sh2j_8_aujau.wav,sh2j_8_aujau.wav,,TRUE,FALSE,,,,,,,,,,,,,,j,0.01,space,0.2675,,,,,,,,0,92,92,129,1,,
5ea8d68a37c5173456c94f50,2023-06-16_09h29.22.053,phx_ver10,2022.2.5,Win32,7.861202607,,,,,,,,,,,,49,testing_3,zh2j,a,zh2j_a,zh2j_1_azha.wav,zh2j_1_azha.wav,,TRUE,FALSE,,,,,,,,,,,,,,j,2.2468,space,2.6604,,,,,,,,0,93,93,48,1,,
5ea8d68a37c5173456c94f50,2023-06-16_09h29.22.053,phx_ver10,2022.2.5,Win32,7.861202607,,,,,,,,,,,,46,testing_3,zh2sh,i,zh2sh_i,zh2sh_8_ishi.wav,zh2sh_8_ishi.wav,,TRUE,FALSE,,,,,,,,,,,,,,j,0.1444,space,0.6831,,,,,,,,0,94,94,45,1,,
5ea8d68a37c5173456c94f50,2023-06-16_09h29.22.053,phx_ver10,2022.2.5,Win32,7.861202607,,,,,,,,,,,,61,testing_3,zh2j,e,zh2j_e,zh2j_1_ezhe.wav,zh2j_1_ezhe.wav,,TRUE,FALSE,,,,,,,,,,,,,,j,2.163,space,2.571,,,,,,,,0,95,95,60,1,,
5ea8d68a37c5173456c94f50,2023-06-16_09h29.22.053,phx_ver10,2022.2.5,Win32,7.861202607,,,,,,,,,,,,10,testing_1,zh2x,i,zh2x_i,zh2x_8_ixi.wav,zh2x_8_ixi_copy.wav,,TRUE,TRUE,,,,,,,,,,,,,,f,0.4108,space,0.8162,,,,,,,,0,96,96,9,1,,
5ea8d68a37c5173456c94f50,2023-06-16_09h29.22.053,phx_ver10,2022.2.5,Win32,7.861202607,,,,,,,,,,,,62,testing_3,zh2j,e,zh2j_e,zh2j_8_eje.wav,zh2j_8_eje.wav,,TRUE,FALSE,,,,,,,,,,,,,,f,0.686,space,1.0908,,,,,,,,0,97,97,61,1,,
5ea8d68a37c5173456c94f50,2023-06-16_09h29.22.053,phx_ver10,2022.2.5,Win32,7.861202607,,,,,,,,,,,,107,testing_3,sh2x,au,sh2x_au,sh2x_1_aushau.wav,sh2x_8_auxau.wav,,FALSE,FALSE,,,,,,,,,,,,,,f,0.5477,space,0.9472,,,,,,,,0,98,98,106,1,,
5ea8d68a37c5173456c94f50,2023-06-16_09h29.22.053,phx_ver10,2022.2.5,Win32,7.861202607,,,,,,,,,,,,45,testing_3,zh2sh,i,zh2sh_i,zh2sh_1_izhi.wav,zh2sh_1_izhi.wav,,TRUE,FALSE,,,,,,,,,,,,,,f,0.1435,space,0.2754,,,,,,,,0,99,99,44,1,,
5ea8d68a37c5173456c94f50,2023-06-16_09h29.22.053,phx_ver10,2022.2.5,Win32,7.861202607,,,,,,,,,,,,80,testing_3,j2x,ai,j2x_ai,j2x_8_aixai.wav,j2x_1_aijai.wav,,FALSE,FALSE,,,,,,,,,,,,,,j,0.0105,space,0.2764,,,,,,,,0,100,100,79,1,,
5ea8d68a37c5173456c94f50,2023-06-16_09h29.22.053,phx_ver10,2022.2.5,Win32,7.861202607,,,,,,,,,,,,88,testing_3,j2x,e,j2x_e,j2x_8_exe.wav,j2x_1_eje.wav,,FALSE,FALSE,,,,,,,,,,,,,,f,0.2791,space,0.5463,,,,,,,,0,101,101,87,1,,
5ea8d68a37c5173456c94f50,2023-06-16_09h29.22.053,phx_ver10,2022.2.5,Win32,7.861202607,,,,,,,,,,,,72,testing_3,zh2j,i,zh2j_i,zh2j_8_iji.wav,zh2j_1_izhi.wav,,FALSE,FALSE,,,,,,,,,,,,,,f,0.1503,space,0.552,,,,,,,,0,102,102,71,1,,
5ea8d68a37c5173456c94f50,2023-06-16_09h29.22.053,phx_ver10,2022.2.5,Win32,7.861202607,,,,,,,,,,,,120,testing_3,sh2x,i,sh2x_i,sh2x_8_ixi.wav,sh2x_1_ishi.wav,,FALSE,FALSE,,,,,,,,,,,,,,f,0.0107,space,0.4121,,,,,,,,0,103,103,119,1,,
5ea8d68a37c5173456c94f50,2023-06-16_09h29.22.053,phx_ver10,2022.2.5,Win32,7.861202607,,,,,,,,,,,,26,testing_3,zh2sh,a,zh2sh_a,zh2sh_8_asha.wav,zh2sh_8_asha.wav,,TRUE,FALSE,,,,,,,,,,,,,,j,1.7453,space,2.1561,,,,,,,,0,104,104,25,1,,
5ea8d68a37c5173456c94f50,2023-06-16_09h29.22.053,phx_ver10,2022.2.5,Win32,7.861202607,,,,,,,,,,,,22,testing_2,zh2x,ei,zh2x_ei,zh2x_8_eixei.wav,zh2x_8_eixei.wav,,TRUE,FALSE,,,,,,,,,,,,,,f,0.0105,space,0.5581,,,,,,,,0,105,105,21,1,,
5ea8d68a37c5173456c94f50,2023-06-16_09h29.22.053,phx_ver10,2022.2.5,Win32,7.861202607,,,,,,,,,,,,86,testing_3,j2x,e,j2x_e,j2x_8_exe.wav,j2x_8_exe.wav,,TRUE,FALSE,,,,,,,,,,,,,,f,0.0108,space,0.4182,,,,,,,,0,106,106,85,1,,
5ea8d68a37c5173456c94f50,2023-06-16_09h29.22.053,phx_ver10,2022.2.5,Win32,7.861202607,,,,,,,,,,,,91,testing_3,j2x,ei,j2x_ei,j2x_1_eijei.wav,j2x_8_eixei.wav,,FALSE,FALSE,,,,,,,,,,,,,,j,0.8351,space,1.2446,,,,,,,,0,107,107,90,1,,
5ea8d68a37c5173456c94f50,2023-06-16_09h29.22.053,phx_ver10,2022.2.5,Win32,7.861202607,,,,,,,,,,,,58,testing_3,zh2j,au,zh2j_au,zh2j_8_aujau.wav,zh2j_8_aujau.wav,,TRUE,FALSE,,,,,,,,,,,,,,f,0.4058,space,0.6627,,,,,,,,0,108,108,57,1,,
5ea8d68a37c5173456c94f50,2023-06-16_09h29.22.053,phx_ver10,2022.2.5,Win32,7.861202607,,,,,,,,,,,,87,testing_3,j2x,e,j2x_e,j2x_1_eje.wav,j2x_8_exe.wav,,FALSE,FALSE,,,,,,,,,,,,,,j,0.0106,space,0.5364,,,,,,,,0,109,109,86,1,,
5ea8d68a37c5173456c94f50,2023-06-16_09h29.22.053,phx_ver10,2022.2.5,Win32,7.861202607,,,,,,,,,,,,134,testing_3,sh2j,e,sh2j_e,sh2j_8_eje.wav,sh2j_8_eje.wav,,TRUE,FALSE,,,,,,,,,,,,,,f,0.2822,space,0.5499,,,,,,,,0,110,110,133,1,,
5ea8d68a37c5173456c94f50,2023-06-16_09h29.22.053,phx_ver10,2022.2.5,Win32,7.861202607,,,,,,,,,,,,110,testing_3,sh2x,e,sh2x_e,sh2x_8_exe.wav,sh2x_8_exe.wav,,TRUE,FALSE,,,,,,,,,,,,,,j,2.5601,space,3.103,,,,,,,,0,111,111,109,1,,
5ea8d68a37c5173456c94f50,2023-06-16_09h29.22.053,phx_ver10,2022.2.5,Win32,7.861202607,,,,,,,,,,,,56,testing_3,zh2j,ai,zh2j_ai,zh2j_8_aijai.wav,zh2j_1_aizhai.wav,,FALSE,FALSE,,,,,,,,,,,,,,f,0.959,space,1.4903,,,,,,,,0,112,112,55,1,,
5ea8d68a37c5173456c94f50,2023-06-16_09h29.22.053,phx_ver10,2022.2.5,Win32,7.861202607,,,,,,,,,,,,47,testing_3,zh2sh,i,zh2sh_i,zh2sh_1_izhi.wav,zh2sh_8_ishi.wav,,FALSE,FALSE,,,,,,,,,,,,,,j,0.01,space,0.2744,,,,,,,,0,113,113,46,1,,
5ea8d68a37c5173456c94f50,2023-06-16_09h29.22.053,phx_ver10,2022.2.5,Win32,7.861202607,,,,,,,,,,,,84,testing_3,j2x,au,j2x_au,j2x_8_auxau.wav,j2x_1_aujau.wav,,FALSE,FALSE,,,,,,,,,,,,,,j,0.145,space,0.5424,,,,,,,,0,114,114,83,1,,
5ea8d68a37c5173456c94f50,2023-06-16_09h29.22.053,phx_ver10,2022.2.5,Win32,7.861202607,,,,,,,,,,,,57,testing_3,zh2j,au,zh2j_au,zh2j_1_auzhau.wav,zh2j_1_auzhau.wav,,TRUE,FALSE,,,,,,,,,,,,,,j,0.0096,space,0.4155,,,,,,,,0,115,115,56,1,,
5ea8d68a37c5173456c94f50,2023-06-16_09h29.22.053,phx_ver10,2022.2.5,Win32,7.861202607,,,,,,,,,,,,27,testing_3,zh2sh,a,zh2sh_a,zh2sh_1_azha.wav,zh2sh_8_asha.wav,,FALSE,FALSE,,,,,,,,,,,,,,j,0.1454,space,0.5478,,,,,,,,0,116,116,26,1,,
5ea8d68a37c5173456c94f50,2023-06-16_09h29.22.053,phx_ver10,2022.2.5,Win32,7.861202607,,,,,,,,,,,,137,testing_3,sh2j,ei,sh2j_ei,sh2j_1_eishei.wav,sh2j_1_eishei.wav,,TRUE,FALSE,,,,,,,,,,,,,,f,0.0107,space,0.54,,,,,,,,0,117,117,136,1,,
5ea8d68a37c5173456c94f50,2023-06-16_09h29.22.053,phx_ver10,2022.2.5,Win32,7.861202607,,,,,,,,,,,,16,testing_2,zh2x,ai,zh2x_ai,zh2x_8_aixai.wav,zh2x_1_aizhai.wav,,FALSE,FALSE,,,,,,,,,,,,,,j,0.0107,space,0.2673,,,,,,,,0,118,118,15,1,,
5ea8d68a37c5173456c94f50,2023-06-16_09h29.22.053,phx_ver10,2022.2.5,Win32,7.861202607,,,,,,,,,,,,31,testing_3,zh2sh,ai,zh2sh_ai,zh2sh_1_aizhai.wav,zh2sh_8_aishai.wav,,FALSE,FALSE,,,,,,,,,,,,,,j,0.1463,space,0.557,,,,,,,,0,119,119,30,1,,
5ea8d68a37c5173456c94f50,2023-06-16_09h29.22.053,phx_ver10,2022.2.5,Win32,7.861202607,,,,,,,,,,,,33,testing_3,zh2sh,au,zh2sh_au,zh2sh_1_auzhau.wav,zh2sh_1_auzhau.wav,,TRUE,FALSE,,,,,,,,,,,,,,f,0.4139,space,0.6868,,,,,,,,0,120,120,32,1,,
5ea8d68a37c5173456c94f50,2023-06-16_09h29.22.053,phx_ver10,2022.2.5,Win32,7.861202607,,,,,,,,,,,,139,testing_3,sh2j,ei,sh2j_ei,sh2j_1_eishei.wav,sh2j_8_eijei.wav,,FALSE,FALSE,,,,,,,,,,,,,,j,0.6676,space,0.9418,,,,,,,,0,121,121,138,1,,
5ea8d68a37c5173456c94f50,2023-06-16_09h29.22.053,phx_ver10,2022.2.5,Win32,7.861202607,,,,,,,,,,,,9,testing_1,zh2x,i,zh2x_i,zh2x_1_izhi.wav,zh2x_1_izhi_copy.wav,,TRUE,TRUE,,,,,,,,,,,,,,f,0.8388,space,1.1075,,,,,,,,0,122,122,8,1,,
5ea8d68a37c5173456c94f50,2023-06-16_09h29.22.053,phx_ver10,2022.2.5,Win32,7.861202607,,,,,,,,,,,,116,testing_3,sh2x,ei,sh2x_ei,sh2x_8_eixei.wav,sh2x_1_eishei.wav,,FALSE,FALSE,,,,,,,,,,,,,,f,0.286,space,0.8267,,,,,,,,0,123,123,115,1,,
5ea8d68a37c5173456c94f50,2023-06-16_09h29.22.053,phx_ver10,2022.2.5,Win32,7.861202607,,,,,,,,,,,,14,testing_2,zh2x,ai,zh2x_ai,zh2x_8_aixai.wav,zh2x_8_aixai.wav,,TRUE,FALSE,,,,,,,,,,,,,,f,0.1505,space,0.6798,,,,,,,,0,124,124,13,1,,
5ea8d68a37c5173456c94f50,2023-06-16_09h29.22.053,phx_ver10,2022.2.5,Win32,7.861202607,,,,,,,,,,,,70,testing_3,zh2j,i,zh2j_i,zh2j_8_iji.wav,zh2j_8_iji.wav,,TRUE,FALSE,,,,,,,,,,,,,,f,0.2768,space,0.5469,,,,,,,,0,125,125,69,1,,
5ea8d68a37c5173456c94f50,2023-06-16_09h29.22.053,phx_ver10,2022.2.5,Win32,7.861202607,,,,,,,,,,,,125,testing_3,sh2j,ai,sh2j_ai,sh2j_1_aishai.wav,sh2j_1_aishai.wav,,TRUE,FALSE,,,,,,,,,,,,,,j,0.01,space,0.4458,,,,,,,,0,126,126,124,1,,
5ea8d68a37c5173456c94f50,2023-06-16_09h29.22.053,phx_ver10,2022.2.5,Win32,7.861202607,,,,,,,,,,,,44,testing_3,zh2sh,ei,zh2sh_ei,zh2sh_8_eishei.wav,zh2sh_1_eizhei.wav,,FALSE,FALSE,,,,,,,,,,,,,,j,0.1435,space,0.5362,,,,,,,,0,127,127,43,1,,
5ea8d68a37c5173456c94f50,2023-06-16_09h29.22.053,phx_ver10,2022.2.5,Win32,7.861202607,,,,,,,,,,,,8,testing_1,zh2x,e,zh2x_e,zh2x_8_exe.wav,zh2x_1_ezhe.wav,,FALSE,TRUE,,,,,,,,,,,,,,j,0.0109,space,0.5549,,,,,,,,0,128,128,7,1,,
5ea8d68a37c5173456c94f50,2023-06-16_09h29.22.053,phx_ver10,2022.2.5,Win32,7.861202607,,,,,,,,,,,,94,testing_3,j2x,i,j2x_i,j2x_8_ixi.wav,j2x_8_ixi.wav,,TRUE,FALSE,,,,,,,,,,,,,,f,0.149,space,0.5475,,,,,,,,0,129,129,93,1,,
5ea8d68a37c5173456c94f50,2023-06-16_09h29.22.053,phx_ver10,2022.2.5,Win32,7.861202607,,,,,,,,,,,,141,testing_3,sh2j,i,sh2j_i,sh2j_1_ishi.wav,sh2j_1_ishi.wav,,TRUE,FALSE,,,,,,,,,,,,,,f,0.2847,space,0.816,,,,,,,,0,130,130,140,1,,
5ea8d68a37c5173456c94f50,2023-06-16_09h29.22.053,phx_ver10,2022.2.5,Win32,7.861202607,,,,,,,,,,,,96,testing_3,j2x,i,j2x_i,j2x_8_ixi.wav,j2x_1_iji.wav,,FALSE,FALSE,,,,,,,,,,,,,,j,0.1338,space,0.5285,,,,,,,,0,131,131,95,1,,
5ea8d68a37c5173456c94f50,2023-06-16_09h29.22.053,phx_ver10,2022.2.5,Win32,7.861202607,,,,,,,,,,,,37,testing_3,zh2sh,e,zh2sh_e,zh2sh_1_ezhe.wav,zh2sh_1_ezhe.wav,,TRUE,FALSE,,,,,,,,,,,,,,f,0.141,space,0.5334,,,,,,,,0,132,132,36,1,,
5ea8d68a37c5173456c94f50,2023-06-16_09h29.22.053,phx_ver10,2022.2.5,Win32,7.861202607,,,,,,,,,,,,127,testing_3,sh2j,ai,sh2j_ai,sh2j_1_aishai.wav,sh2j_8_aijai.wav,,FALSE,FALSE,,,,,,,,,,,,,,j,0.1505,space,0.4181,,,,,,,,0,133,133,126,1,,
5ea8d68a37c5173456c94f50,2023-06-16_09h29.22.053,phx_ver10,2022.2.5,Win32,7.861202607,,,,,,,,,,,,115,testing_3,sh2x,ei,sh2x_ei,sh2x_1_eishei.wav,sh2x_8_eixei.wav,,FALSE,FALSE,,,,,,,,,,,,,,f,0.1533,space,0.5499,,,,,,,,0,134,134,114,1,,
5ea8d68a37c5173456c94f50,2023-06-16_09h29.22.053,phx_ver10,2022.2.5,Win32,7.861202607,,,,,,,,,,,,79,testing_3,j2x,ai,j2x_ai,j2x_1_aijai.wav,j2x_8_aixai.wav,,FALSE,FALSE,,,,,,,,,,,,,,j,0.9615,space,1.3631,,,,,,,,0,135,135,78,1,,
5ea8d68a37c5173456c94f50,2023-06-16_09h29.22.053,phx_ver10,2022.2.5,Win32,7.861202607,,,,,,,,,,,,66,testing_3,zh2j,ei,zh2j_ei,zh2j_8_eijei.wav,zh2j_8_eijei.wav,,TRUE,FALSE,,,,,,,,,,,,,,f,0.2862,space,0.5556,,,,,,,,0,136,136,65,1,,
5ea8d68a37c5173456c94f50,2023-06-16_09h29.22.053,phx_ver10,2022.2.5,Win32,7.861202607,,,,,,,,,,,,59,testing_3,zh2j,au,zh2j_au,zh2j_1_auzhau.wav,zh2j_8_aujau.wav,,FALSE,FALSE,,,,,,,,,,,,,,f,0.4141,space,0.698,,,,,,,,0,137,137,58,1,,
5ea8d68a37c5173456c94f50,2023-06-16_09h29.22.053,phx_ver10,2022.2.5,Win32,7.861202607,,,,,,,,,,,,76,testing_3,j2x,a,j2x_a,j2x_8_axa.wav,j2x_1_aja.wav,,FALSE,FALSE,,,,,,,,,,,,,,j,0.1548,space,0.4279,,,,,,,,0,138,138,75,1,,
5ea8d68a37c5173456c94f50,2023-06-16_09h29.22.053,phx_ver10,2022.2.5,Win32,7.861202607,,,,,,,,,,,,30,testing_3,zh2sh,ai,zh2sh_ai,zh2sh_8_aishai.wav,zh2sh_8_aishai.wav,,TRUE,FALSE,,,,,,,,,,,,,,j,0.8026,space,1.0649,,,,,,,,0,139,139,29,1,,
5ea8d68a37c5173456c94f50,2023-06-16_09h29.22.053,phx_ver10,2022.2.5,Win32,7.861202607,,,,,,,,,,,,98,testing_3,sh2x,a,sh2x_a,sh2x_8_axa.wav,sh2x_8_axa.wav,,TRUE,FALSE,,,,,,,,,,,,,,j,0.6584,space,0.9335,,,,,,,,0,140,140,97,1,,
5ea8d68a37c5173456c94f50,2023-06-16_09h29.22.053,phx_ver10,2022.2.5,Win32,7.861202607,,,,,,,,,,,,100,testing_3,sh2x,a,sh2x_a,sh2x_8_axa.wav,sh2x_1_asha.wav,,FALSE,FALSE,,,,,,,,,,,,,,j,0.0097,space,0.4154,,,,,,,,0,141,141,99,1,,
5ea8d68a37c5173456c94f50,2023-06-16_09h29.22.053,phx_ver10,2022.2.5,Win32,7.861202607,,,,,,,,,,,,67,testing_3,zh2j,ei,zh2j_ei,zh2j_1_eizhei.wav,zh2j_8_eijei.wav,,FALSE,FALSE,,,,,,,,,,,,,,f,0.0102,space,0.1503,,,,,,,,0,142,142,66,1,,
5ea8d68a37c5173456c94f50,2023-06-16_09h29.22.053,phx_ver10,2022.2.5,Win32,7.861202607,,,,,,,,,,,,38,testing_3,zh2sh,e,zh2sh_e,zh2sh_8_eshe.wav,zh2sh_8_eshe.wav,,TRUE,FALSE,,,,,,,,,,,,,,j,1.8912,space,2.4406,,,,,,,,0,143,143,37,1,,
5ea8d68a37c5173456c94f50,2023-06-16_09h29.22.053,phx_ver10,2022.2.5,Win32,7.861202607,,,,,,,,,,,,,,,,,,,,,,,,,,,,,,,,,,,,,,,,,,,,,,,,,,,space,3.1466
