participant,date,expName,psychopyVersion,OS,frameRate,space_1.keys,space_1.rt,space_2.keys,space_2.rt,space_train.keys,space_train.rt,training.thisRepN,training.thisTrialN,training.thisN,training.thisIndex,training.ran,token_id,task,continuum,vowel,series,sound_1,sound_2,img,same,trained,FJ_attn.keys,FJ_attn.rt,space_attn.keys,space_attn.rt,if_attn_test.thisRepN,if_attn_test.thisTrialN,if_attn_test.thisN,if_attn_test.thisIndex,if_attn_test.ran,space_trans_1.keys,space_trans_1.rt,space_trans_11.keys,space_trans_11.rt,FJ_test.keys,FJ_test.rt,space_test.keys,space_test.rt,testing_pre.thisRepN,testing_pre.thisTrialN,testing_pre.thisN,testing_pre.thisIndex,testing_pre.ran,space_trans_2.keys,space_trans_2.rt,testing_all.thisRepN,testing_all.thisTrialN,testing_all.thisN,testing_all.thisIndex,testing_all.ran,space_ending.keys,space_ending.rt
5eac3dc896a6242689110c31,2023-06-16_10h17.57.655,phx_ver10,2022.2.5,Linux x86_64,60.0528465,,,,,,,,,,,,,,,,,,,,,,,,,,,,,,,,,,,,,,,,,,,,,,,,,,,,
5eac3dc896a6242689110c31,2023-06-16_10h17.57.655,phx_ver10,2022.2.5,Linux x86_64,60.0528465,space,6.4929,,,,,,,,,,,,,,,,,,,,,,,,,,,,,,,,,,,,,,,,,,,,,,,,,,
5eac3dc896a6242689110c31,2023-06-16_10h17.57.655,phx_ver10,2022.2.5,Linux x86_64,60.0528465,,,space,9.3261,,,,,,,,,,,,,,,,,,,,,,,,,,,,,,,,,,,,,,,,,,,,,,,,
5eac3dc896a6242689110c31,2023-06-16_10h17.57.655,phx_ver10,2022.2.5,Linux x86_64,60.0528465,,,,,space,2.0481,0,0,0,24,1,25,training,zh2x,e,zh2x_e,zh2x_5_exe.wav,,exe.jpg,,,,,,,,,,,,,,,,,,,,,,,,,,,,,,,,,
5eac3dc896a6242689110c31,2023-06-16_10h17.57.655,phx_ver10,2022.2.5,Linux x86_64,60.0528465,,,,,space,1.9794,0,1,1,28,1,29,training,zh2x,e,zh2x_e,zh2x_7_exe.wav,,exe.jpg,,,,,,,,,,,,,,,,,,,,,,,,,,,,,,,,,
5eac3dc896a6242689110c31,2023-06-16_10h17.57.655,phx_ver10,2022.2.5,Linux x86_64,60.0528465,,,,,space,2.6827,0,2,2,44,1,45,training,zh2x,i,zh2x_i,zh2x_7_ixi.wav,,ixi.jpg,,,,,,,,,,,,,,,,,,,,,,,,,,,,,,,,,
5eac3dc896a6242689110c31,2023-06-16_10h17.57.655,phx_ver10,2022.2.5,Linux x86_64,60.0528465,,,,,space,1.765,0,3,3,35,1,36,training,zh2x,i,zh2x_i,zh2x_2_izhi.wav,,izhi.jpg,,,,,,,,,,,,,,,,,,,,,,,,,,,,,,,,,
5eac3dc896a6242689110c31,2023-06-16_10h17.57.655,phx_ver10,2022.2.5,Linux x86_64,60.0528465,,,,,space,1.33,0,4,4,38,1,39,training,zh2x,i,zh2x_i,zh2x_3_izhi.wav,,izhi.jpg,,,,,,,,,,,,,,,,,,,,,,,,,,,,,,,,,
5eac3dc896a6242689110c31,2023-06-16_10h17.57.655,phx_ver10,2022.2.5,Linux x86_64,60.0528465,,,,,space,3.1514,0,5,5,19,1,20,training,zh2x,e,zh2x_e,zh2x_2_ezhe.wav,,ezhe.jpg,,,,,,,,,,,,,,,,,,,,,,,,,,,,,,,,,
5eac3dc896a6242689110c31,2023-06-16_10h17.57.655,phx_ver10,2022.2.5,Linux x86_64,60.0528465,,,,,,,,,,,,,attn_test,,,,zh2x_8_exe.wav,zh2x_1_izhi.wav,izhi.jpg,RIGHT,,j,3.66,space,4.8471,0,0,0,0,1,,,,,,,,,,,,,,,,,,,,,,
5eac3dc896a6242689110c31,2023-06-16_10h17.57.655,phx_ver10,2022.2.5,Linux x86_64,60.0528465,,,,,space,1.0925,0,6,6,39,1,40,training,zh2x,i,zh2x_i,zh2x_4_izhi.wav,,izhi.jpg,,,,,,,,,,,,,,,,,,,,,,,,,,,,,,,,,
5eac3dc896a6242689110c31,2023-06-16_10h17.57.655,phx_ver10,2022.2.5,Linux x86_64,60.0528465,,,,,space,0.8112,0,7,7,12,1,13,training,zh2x,a,zh2x_a,zh2x_7_axa.wav,,axa.jpg,,,,,,,,,,,,,,,,,,,,,,,,,,,,,,,,,
5eac3dc896a6242689110c31,2023-06-16_10h17.57.655,phx_ver10,2022.2.5,Linux x86_64,60.0528465,,,,,space,0.9207,0,8,8,33,1,34,training,zh2x,i,zh2x_i,zh2x_2_izhi.wav,,izhi.jpg,,,,,,,,,,,,,,,,,,,,,,,,,,,,,,,,,
5eac3dc896a6242689110c31,2023-06-16_10h17.57.655,phx_ver10,2022.2.5,Linux x86_64,60.0528465,,,,,space,0.5099,0,9,9,32,1,33,training,zh2x,i,zh2x_i,zh2x_1_izhi.wav,,izhi.jpg,,,,,,,,,,,,,,,,,,,,,,,,,,,,,,,,,
5eac3dc896a6242689110c31,2023-06-16_10h17.57.655,phx_ver10,2022.2.5,Linux x86_64,60.0528465,,,,,space,1.1157,0,10,10,5,1,6,training,zh2x,a,zh2x_a,zh2x_3_azha.wav,,azha.jpg,,,,,,,,,,,,,,,,,,,,,,,,,,,,,,,,,
5eac3dc896a6242689110c31,2023-06-16_10h17.57.655,phx_ver10,2022.2.5,Linux x86_64,60.0528465,,,,,space,0.786,0,11,11,18,1,19,training,zh2x,e,zh2x_e,zh2x_2_ezhe.wav,,ezhe.jpg,,,,,,,,,,,,,,,,,,,,,,,,,,,,,,,,,
5eac3dc896a6242689110c31,2023-06-16_10h17.57.655,phx_ver10,2022.2.5,Linux x86_64,60.0528465,,,,,,,,,,,,,attn_test,,,,zh2x_1_ezhe.wav,zh2x_1_izhi.wav,izhi.jpg,RIGHT,,j,0.1622,space,1.1639,0,0,0,0,1,,,,,,,,,,,,,,,,,,,,,,
5eac3dc896a6242689110c31,2023-06-16_10h17.57.655,phx_ver10,2022.2.5,Linux x86_64,60.0528465,,,,,space,1.7051,0,12,12,21,1,22,training,zh2x,e,zh2x_e,zh2x_3_ezhe.wav,,ezhe.jpg,,,,,,,,,,,,,,,,,,,,,,,,,,,,,,,,,
5eac3dc896a6242689110c31,2023-06-16_10h17.57.655,phx_ver10,2022.2.5,Linux x86_64,60.0528465,,,,,space,0.6892,0,13,13,10,1,11,training,zh2x,a,zh2x_a,zh2x_6_axa.wav,,axa.jpg,,,,,,,,,,,,,,,,,,,,,,,,,,,,,,,,,
5eac3dc896a6242689110c31,2023-06-16_10h17.57.655,phx_ver10,2022.2.5,Linux x86_64,60.0528465,,,,,space,0.6283,0,14,14,8,1,9,training,zh2x,a,zh2x_a,zh2x_5_axa.wav,,axa.jpg,,,,,,,,,,,,,,,,,,,,,,,,,,,,,,,,,
5eac3dc896a6242689110c31,2023-06-16_10h17.57.655,phx_ver10,2022.2.5,Linux x86_64,60.0528465,,,,,space,0.5569,0,15,15,7,1,8,training,zh2x,a,zh2x_a,zh2x_4_azha.wav,,azha.jpg,,,,,,,,,,,,,,,,,,,,,,,,,,,,,,,,,
5eac3dc896a6242689110c31,2023-06-16_10h17.57.655,phx_ver10,2022.2.5,Linux x86_64,60.0528465,,,,,space,0.6513,0,16,16,47,1,48,training,zh2x,i,zh2x_i,zh2x_8_ixi.wav,,ixi.jpg,,,,,,,,,,,,,,,,,,,,,,,,,,,,,,,,,
5eac3dc896a6242689110c31,2023-06-16_10h17.57.655,phx_ver10,2022.2.5,Linux x86_64,60.0528465,,,,,space,0.8419,0,17,17,36,1,37,training,zh2x,i,zh2x_i,zh2x_2_izhi.wav,,izhi.jpg,,,,,,,,,,,,,,,,,,,,,,,,,,,,,,,,,
5eac3dc896a6242689110c31,2023-06-16_10h17.57.655,phx_ver10,2022.2.5,Linux x86_64,60.0528465,,,,,,,,,,,,,attn_test,,,,zh2x_8_ixi.wav,zh2x_1_izhi.wav,ixi.jpg,LEFT,,f,1.4259,space,2.4192,0,0,0,0,1,,,,,,,,,,,,,,,,,,,,,,
5eac3dc896a6242689110c31,2023-06-16_10h17.57.655,phx_ver10,2022.2.5,Linux x86_64,60.0528465,,,,,space,0.8624,0,18,18,31,1,32,training,zh2x,e,zh2x_e,zh2x_8_exe.wav,,exe.jpg,,,,,,,,,,,,,,,,,,,,,,,,,,,,,,,,,
5eac3dc896a6242689110c31,2023-06-16_10h17.57.655,phx_ver10,2022.2.5,Linux x86_64,60.0528465,,,,,space,0.421,0,19,19,26,1,27,training,zh2x,e,zh2x_e,zh2x_6_exe.wav,,exe.jpg,,,,,,,,,,,,,,,,,,,,,,,,,,,,,,,,,
5eac3dc896a6242689110c31,2023-06-16_10h17.57.655,phx_ver10,2022.2.5,Linux x86_64,60.0528465,,,,,space,1.2657,0,20,20,27,1,28,training,zh2x,e,zh2x_e,zh2x_7_exe.wav,,exe.jpg,,,,,,,,,,,,,,,,,,,,,,,,,,,,,,,,,
5eac3dc896a6242689110c31,2023-06-16_10h17.57.655,phx_ver10,2022.2.5,Linux x86_64,60.0528465,,,,,space,1.6352,0,21,21,43,1,44,training,zh2x,i,zh2x_i,zh2x_7_ixi.wav,,ixi.jpg,,,,,,,,,,,,,,,,,,,,,,,,,,,,,,,,,
5eac3dc896a6242689110c31,2023-06-16_10h17.57.655,phx_ver10,2022.2.5,Linux x86_64,60.0528465,,,,,space,0.5858,0,22,22,30,1,31,training,zh2x,e,zh2x_e,zh2x_7_exe.wav,,exe.jpg,,,,,,,,,,,,,,,,,,,,,,,,,,,,,,,,,
5eac3dc896a6242689110c31,2023-06-16_10h17.57.655,phx_ver10,2022.2.5,Linux x86_64,60.0528465,,,,,space,3.3256,0,23,23,22,1,23,training,zh2x,e,zh2x_e,zh2x_3_ezhe.wav,,ezhe.jpg,,,,,,,,,,,,,,,,,,,,,,,,,,,,,,,,,
5eac3dc896a6242689110c31,2023-06-16_10h17.57.655,phx_ver10,2022.2.5,Linux x86_64,60.0528465,,,,,,,,,,,,,attn_test,,,,zh2x_1_ezhe.wav,zh2x_8_ixi.wav,ixi.jpg,RIGHT,,j,0.9613,space,1.5669,0,0,0,0,1,,,,,,,,,,,,,,,,,,,,,,
5eac3dc896a6242689110c31,2023-06-16_10h17.57.655,phx_ver10,2022.2.5,Linux x86_64,60.0528465,,,,,space,1.038,0,24,24,13,1,14,training,zh2x,a,zh2x_a,zh2x_7_axa.wav,,axa.jpg,,,,,,,,,,,,,,,,,,,,,,,,,,,,,,,,,
5eac3dc896a6242689110c31,2023-06-16_10h17.57.655,phx_ver10,2022.2.5,Linux x86_64,60.0528465,,,,,space,0.4381,0,25,25,25,1,26,training,zh2x,e,zh2x_e,zh2x_6_exe.wav,,exe.jpg,,,,,,,,,,,,,,,,,,,,,,,,,,,,,,,,,
5eac3dc896a6242689110c31,2023-06-16_10h17.57.655,phx_ver10,2022.2.5,Linux x86_64,60.0528465,,,,,space,4.6511,0,26,26,29,1,30,training,zh2x,e,zh2x_e,zh2x_7_exe.wav,,exe.jpg,,,,,,,,,,,,,,,,,,,,,,,,,,,,,,,,,
5eac3dc896a6242689110c31,2023-06-16_10h17.57.655,phx_ver10,2022.2.5,Linux x86_64,60.0528465,,,,,space,1.4749,0,27,27,2,1,3,training,zh2x,a,zh2x_a,zh2x_2_azha.wav,,azha.jpg,,,,,,,,,,,,,,,,,,,,,,,,,,,,,,,,,
5eac3dc896a6242689110c31,2023-06-16_10h17.57.655,phx_ver10,2022.2.5,Linux x86_64,60.0528465,,,,,space,2.2587,0,28,28,40,1,41,training,zh2x,i,zh2x_i,zh2x_5_ixi.wav,,ixi.jpg,,,,,,,,,,,,,,,,,,,,,,,,,,,,,,,,,
5eac3dc896a6242689110c31,2023-06-16_10h17.57.655,phx_ver10,2022.2.5,Linux x86_64,60.0528465,,,,,space,0.417,0,29,29,15,1,16,training,zh2x,a,zh2x_a,zh2x_8_axa.wav,,axa.jpg,,,,,,,,,,,,,,,,,,,,,,,,,,,,,,,,,
5eac3dc896a6242689110c31,2023-06-16_10h17.57.655,phx_ver10,2022.2.5,Linux x86_64,60.0528465,,,,,,,,,,,,,attn_test,,,,zh2x_1_ezhe.wav,zh2x_1_azha.wav,azha.jpg,RIGHT,,j,0.7822,space,1.1224,0,0,0,0,1,,,,,,,,,,,,,,,,,,,,,,
5eac3dc896a6242689110c31,2023-06-16_10h17.57.655,phx_ver10,2022.2.5,Linux x86_64,60.0528465,,,,,space,0.5358,0,30,30,14,1,15,training,zh2x,a,zh2x_a,zh2x_7_axa.wav,,axa.jpg,,,,,,,,,,,,,,,,,,,,,,,,,,,,,,,,,
5eac3dc896a6242689110c31,2023-06-16_10h17.57.655,phx_ver10,2022.2.5,Linux x86_64,60.0528465,,,,,space,0.598,0,31,31,45,1,46,training,zh2x,i,zh2x_i,zh2x_7_ixi.wav,,ixi.jpg,,,,,,,,,,,,,,,,,,,,,,,,,,,,,,,,,
5eac3dc896a6242689110c31,2023-06-16_10h17.57.655,phx_ver10,2022.2.5,Linux x86_64,60.0528465,,,,,space,0.7364,0,32,32,0,1,1,training,zh2x,a,zh2x_a,zh2x_1_azha.wav,,azha.jpg,,,,,,,,,,,,,,,,,,,,,,,,,,,,,,,,,
5eac3dc896a6242689110c31,2023-06-16_10h17.57.655,phx_ver10,2022.2.5,Linux x86_64,60.0528465,,,,,space,0.3072,0,33,33,1,1,2,training,zh2x,a,zh2x_a,zh2x_2_azha.wav,,azha.jpg,,,,,,,,,,,,,,,,,,,,,,,,,,,,,,,,,
5eac3dc896a6242689110c31,2023-06-16_10h17.57.655,phx_ver10,2022.2.5,Linux x86_64,60.0528465,,,,,space,0.2045,0,34,34,4,1,5,training,zh2x,a,zh2x_a,zh2x_2_azha.wav,,azha.jpg,,,,,,,,,,,,,,,,,,,,,,,,,,,,,,,,,
5eac3dc896a6242689110c31,2023-06-16_10h17.57.655,phx_ver10,2022.2.5,Linux x86_64,60.0528465,,,,,space,0.407,0,35,35,9,1,10,training,zh2x,a,zh2x_a,zh2x_6_axa.wav,,axa.jpg,,,,,,,,,,,,,,,,,,,,,,,,,,,,,,,,,
5eac3dc896a6242689110c31,2023-06-16_10h17.57.655,phx_ver10,2022.2.5,Linux x86_64,60.0528465,,,,,,,,,,,,,attn_test,,,,zh2x_8_axa.wav,zh2x_1_izhi.wav,axa.jpg,LEFT,,f,0.0592,space,1.0854,0,0,0,0,1,,,,,,,,,,,,,,,,,,,,,,
5eac3dc896a6242689110c31,2023-06-16_10h17.57.655,phx_ver10,2022.2.5,Linux x86_64,60.0528465,,,,,space,0.4186,0,36,36,6,1,7,training,zh2x,a,zh2x_a,zh2x_3_azha.wav,,azha.jpg,,,,,,,,,,,,,,,,,,,,,,,,,,,,,,,,,
5eac3dc896a6242689110c31,2023-06-16_10h17.57.655,phx_ver10,2022.2.5,Linux x86_64,60.0528465,,,,,space,0.0392,0,37,37,34,1,35,training,zh2x,i,zh2x_i,zh2x_2_izhi.wav,,izhi.jpg,,,,,,,,,,,,,,,,,,,,,,,,,,,,,,,,,
5eac3dc896a6242689110c31,2023-06-16_10h17.57.655,phx_ver10,2022.2.5,Linux x86_64,60.0528465,,,,,space,0.1335,0,38,38,3,1,4,training,zh2x,a,zh2x_a,zh2x_2_azha.wav,,azha.jpg,,,,,,,,,,,,,,,,,,,,,,,,,,,,,,,,,
5eac3dc896a6242689110c31,2023-06-16_10h17.57.655,phx_ver10,2022.2.5,Linux x86_64,60.0528465,,,,,space,0.48,0,39,39,20,1,21,training,zh2x,e,zh2x_e,zh2x_2_ezhe.wav,,ezhe.jpg,,,,,,,,,,,,,,,,,,,,,,,,,,,,,,,,,
5eac3dc896a6242689110c31,2023-06-16_10h17.57.655,phx_ver10,2022.2.5,Linux x86_64,60.0528465,,,,,space,0.236,0,40,40,11,1,12,training,zh2x,a,zh2x_a,zh2x_7_axa.wav,,axa.jpg,,,,,,,,,,,,,,,,,,,,,,,,,,,,,,,,,
5eac3dc896a6242689110c31,2023-06-16_10h17.57.655,phx_ver10,2022.2.5,Linux x86_64,60.0528465,,,,,space,0.2431,0,41,41,46,1,47,training,zh2x,i,zh2x_i,zh2x_7_ixi.wav,,ixi.jpg,,,,,,,,,,,,,,,,,,,,,,,,,,,,,,,,,
5eac3dc896a6242689110c31,2023-06-16_10h17.57.655,phx_ver10,2022.2.5,Linux x86_64,60.0528465,,,,,,,,,,,,,attn_test,,,,zh2x_1_azha.wav,zh2x_8_ixi.wav,azha.jpg,LEFT,,f,0.3579,space,0.9644,0,0,0,0,1,,,,,,,,,,,,,,,,,,,,,,
5eac3dc896a6242689110c31,2023-06-16_10h17.57.655,phx_ver10,2022.2.5,Linux x86_64,60.0528465,,,,,space,1.2037,0,42,42,17,1,18,training,zh2x,e,zh2x_e,zh2x_2_ezhe.wav,,ezhe.jpg,,,,,,,,,,,,,,,,,,,,,,,,,,,,,,,,,
5eac3dc896a6242689110c31,2023-06-16_10h17.57.655,phx_ver10,2022.2.5,Linux x86_64,60.0528465,,,,,space,0.8447,0,43,43,37,1,38,training,zh2x,i,zh2x_i,zh2x_3_izhi.wav,,izhi.jpg,,,,,,,,,,,,,,,,,,,,,,,,,,,,,,,,,
5eac3dc896a6242689110c31,2023-06-16_10h17.57.655,phx_ver10,2022.2.5,Linux x86_64,60.0528465,,,,,space,0.4353,0,44,44,42,1,43,training,zh2x,i,zh2x_i,zh2x_6_ixi.wav,,ixi.jpg,,,,,,,,,,,,,,,,,,,,,,,,,,,,,,,,,
5eac3dc896a6242689110c31,2023-06-16_10h17.57.655,phx_ver10,2022.2.5,Linux x86_64,60.0528465,,,,,space,0.5491,0,45,45,16,1,17,training,zh2x,e,zh2x_e,zh2x_1_ezhe.wav,,ezhe.jpg,,,,,,,,,,,,,,,,,,,,,,,,,,,,,,,,,
5eac3dc896a6242689110c31,2023-06-16_10h17.57.655,phx_ver10,2022.2.5,Linux x86_64,60.0528465,,,,,space,0.373,0,46,46,23,1,24,training,zh2x,e,zh2x_e,zh2x_4_ezhe.wav,,ezhe.jpg,,,,,,,,,,,,,,,,,,,,,,,,,,,,,,,,,
5eac3dc896a6242689110c31,2023-06-16_10h17.57.655,phx_ver10,2022.2.5,Linux x86_64,60.0528465,,,,,space,0.0576,0,47,47,41,1,42,training,zh2x,i,zh2x_i,zh2x_6_ixi.wav,,ixi.jpg,,,,,,,,,,,,,,,,,,,,,,,,,,,,,,,,,
5eac3dc896a6242689110c31,2023-06-16_10h17.57.655,phx_ver10,2022.2.5,Linux x86_64,60.0528465,,,,,,,,,,,,,attn_test,,,,zh2x_1_izhi.wav,zh2x_1_ezhe.wav,izhi.jpg,LEFT,,f,0.7173,space,1.2125,,,,,,,,,,,,,,,,,,,,,,,,,,,
5eac3dc896a6242689110c31,2023-06-16_10h17.57.655,phx_ver10,2022.2.5,Linux x86_64,60.0528465,,,,,,,,,,,,,,,,,,,,,,,,,,,,,,,space,3.7294,,,,,,,,,,,,,,,,,,,,
5eac3dc896a6242689110c31,2023-06-16_10h17.57.655,phx_ver10,2022.2.5,Linux x86_64,60.0528465,,,,,,,,,,,,,,,,,,,,,,,,,,,,,,,,,space,14.3641,,,,,,,,,,,,,,,,,,
5eac3dc896a6242689110c31,2023-06-16_10h17.57.655,phx_ver10,2022.2.5,Linux x86_64,60.0528465,,,,,,,,,,,,1,testing_pre,,,,ifi.wav,ifi.wav,,TRUE,,,,,,,,,,,,,,,j,1.2113,space,1.9475,0,0,0,0,1,,,,,,,,,
5eac3dc896a6242689110c31,2023-06-16_10h17.57.655,phx_ver10,2022.2.5,Linux x86_64,60.0528465,,,,,,,,,,,,3,testing_pre,,,,afa.wav,aha.wav,,FALSE,,,,,,,,,,,,,,,j,0.3386,space,1.1464,0,1,1,2,1,,,,,,,,,
5eac3dc896a6242689110c31,2023-06-16_10h17.57.655,phx_ver10,2022.2.5,Linux x86_64,60.0528465,,,,,,,,,,,,4,testing_pre,,,,eihei.wav,eihei.wav,,TRUE,,,,,,,,,,,,,,,j,1.1494,space,1.5146,0,2,2,3,1,,,,,,,,,
5eac3dc896a6242689110c31,2023-06-16_10h17.57.655,phx_ver10,2022.2.5,Linux x86_64,60.0528465,,,,,,,,,,,,2,testing_pre,,,,auhau.wav,aufau.wav,,FALSE,,,,,,,,,,,,,,,j,3.6488,space,4.1894,0,3,3,1,1,,,,,,,,,
5eac3dc896a6242689110c31,2023-06-16_10h17.57.655,phx_ver10,2022.2.5,Linux x86_64,60.0528465,,,,,,,,,,,,5,testing_pre,,,,ihi.wav,ifi.wav,,FALSE,,,,,,,,,,,,,,,j,0.6352,space,1.0479,0,4,4,4,1,,,,,,,,,
5eac3dc896a6242689110c31,2023-06-16_10h17.57.655,phx_ver10,2022.2.5,Linux x86_64,60.0528465,,,,,,,,,,,,,,,,,,,,,,,,,,,,,,,,,,,,,,,,,,,,space,0.7772,,,,,,,
5eac3dc896a6242689110c31,2023-06-16_10h17.57.655,phx_ver10,2022.2.5,Linux x86_64,60.0528465,,,,,,,,,,,,141,testing_3,sh2j,i,sh2j_i,sh2j_1_ishi.wav,sh2j_1_ishi.wav,,TRUE,FALSE,,,,,,,,,,,,,,f,1.0867,space,1.4324,,,,,,,,0,0,0,140,1,,
5eac3dc896a6242689110c31,2023-06-16_10h17.57.655,phx_ver10,2022.2.5,Linux x86_64,60.0528465,,,,,,,,,,,,107,testing_3,sh2x,au,sh2x_au,sh2x_1_aushau.wav,sh2x_8_auxau.wav,,FALSE,FALSE,,,,,,,,,,,,,,f,0.5021,space,1.0854,,,,,,,,0,1,1,106,1,,
5eac3dc896a6242689110c31,2023-06-16_10h17.57.655,phx_ver10,2022.2.5,Linux x86_64,60.0528465,,,,,,,,,,,,26,testing_3,zh2sh,a,zh2sh_a,zh2sh_8_asha.wav,zh2sh_8_asha.wav,,TRUE,FALSE,,,,,,,,,,,,,,f,0.1954,space,0.6041,,,,,,,,0,2,2,25,1,,
5eac3dc896a6242689110c31,2023-06-16_10h17.57.655,phx_ver10,2022.2.5,Linux x86_64,60.0528465,,,,,,,,,,,,71,testing_3,zh2j,i,zh2j_i,zh2j_1_izhi.wav,zh2j_8_iji.wav,,FALSE,FALSE,,,,,,,,,,,,,,f,0.4849,space,0.84,,,,,,,,0,3,3,70,1,,
5eac3dc896a6242689110c31,2023-06-16_10h17.57.655,phx_ver10,2022.2.5,Linux x86_64,60.0528465,,,,,,,,,,,,38,testing_3,zh2sh,e,zh2sh_e,zh2sh_8_eshe.wav,zh2sh_8_eshe.wav,,TRUE,FALSE,,,,,,,,,,,,,,f,0.3444,space,0.794,,,,,,,,0,4,4,37,1,,
5eac3dc896a6242689110c31,2023-06-16_10h17.57.655,phx_ver10,2022.2.5,Linux x86_64,60.0528465,,,,,,,,,,,,41,testing_3,zh2sh,ei,zh2sh_ei,zh2sh_1_eizhei.wav,zh2sh_1_eizhei.wav,,TRUE,FALSE,,,,,,,,,,,,,,f,0.3695,space,0.6395,,,,,,,,0,5,5,40,1,,
5eac3dc896a6242689110c31,2023-06-16_10h17.57.655,phx_ver10,2022.2.5,Linux x86_64,60.0528465,,,,,,,,,,,,79,testing_3,j2x,ai,j2x_ai,j2x_1_aijai.wav,j2x_8_aixai.wav,,FALSE,FALSE,,,,,,,,,,,,,,j,0.5327,space,0.7689,,,,,,,,0,6,6,78,1,,
5eac3dc896a6242689110c31,2023-06-16_10h17.57.655,phx_ver10,2022.2.5,Linux x86_64,60.0528465,,,,,,,,,,,,84,testing_3,j2x,au,j2x_au,j2x_8_auxau.wav,j2x_1_aujau.wav,,FALSE,FALSE,,,,,,,,,,,,,,j,0.4533,space,0.7449,,,,,,,,0,7,7,83,1,,
5eac3dc896a6242689110c31,2023-06-16_10h17.57.655,phx_ver10,2022.2.5,Linux x86_64,60.0528465,,,,,,,,,,,,88,testing_3,j2x,e,j2x_e,j2x_8_exe.wav,j2x_1_eje.wav,,FALSE,FALSE,,,,,,,,,,,,,,j,0.1857,space,0.461,,,,,,,,0,8,8,87,1,,
5eac3dc896a6242689110c31,2023-06-16_10h17.57.655,phx_ver10,2022.2.5,Linux x86_64,60.0528465,,,,,,,,,,,,59,testing_3,zh2j,au,zh2j_au,zh2j_1_auzhau.wav,zh2j_8_aujau.wav,,FALSE,FALSE,,,,,,,,,,,,,,f,0.2831,space,2.2206,,,,,,,,0,9,9,58,1,,
5eac3dc896a6242689110c31,2023-06-16_10h17.57.655,phx_ver10,2022.2.5,Linux x86_64,60.0528465,,,,,,,,,,,,2,testing_1,zh2x,a,zh2x_a,zh2x_8_axa.wav,zh2x_8_axa_copy.wav,,TRUE,TRUE,,,,,,,,,,,,,,f,0.5015,space,2.9779,,,,,,,,0,10,10,1,1,,
5eac3dc896a6242689110c31,2023-06-16_10h17.57.655,phx_ver10,2022.2.5,Linux x86_64,60.0528465,,,,,,,,,,,,49,testing_3,zh2j,a,zh2j_a,zh2j_1_azha.wav,zh2j_1_azha.wav,,TRUE,FALSE,,,,,,,,,,,,,,f,0.5377,space,0.9059,,,,,,,,0,11,11,48,1,,
5eac3dc896a6242689110c31,2023-06-16_10h17.57.655,phx_ver10,2022.2.5,Linux x86_64,60.0528465,,,,,,,,,,,,144,testing_3,sh2j,i,sh2j_i,sh2j_8_iji.wav,sh2j_1_ishi.wav,,FALSE,FALSE,,,,,,,,,,,,,,j,0.1545,space,1.2821,,,,,,,,0,12,12,143,1,,
5eac3dc896a6242689110c31,2023-06-16_10h17.57.655,phx_ver10,2022.2.5,Linux x86_64,60.0528465,,,,,,,,,,,,65,testing_3,zh2j,ei,zh2j_ei,zh2j_1_eizhei.wav,zh2j_1_eizhei.wav,,TRUE,FALSE,,,,,,,,,,,,,,f,0.4604,space,0.8058,,,,,,,,0,13,13,64,1,,
5eac3dc896a6242689110c31,2023-06-16_10h17.57.655,phx_ver10,2022.2.5,Linux x86_64,60.0528465,,,,,,,,,,,,45,testing_3,zh2sh,i,zh2sh_i,zh2sh_1_izhi.wav,zh2sh_1_izhi.wav,,TRUE,FALSE,,,,,,,,,,,,,,f,0.1641,space,0.582,,,,,,,,0,14,14,44,1,,
5eac3dc896a6242689110c31,2023-06-16_10h17.57.655,phx_ver10,2022.2.5,Linux x86_64,60.0528465,,,,,,,,,,,,105,testing_3,sh2x,au,sh2x_au,sh2x_1_aushau.wav,sh2x_1_aushau.wav,,TRUE,FALSE,,,,,,,,,,,,,,f,0.0514,space,0.3187,,,,,,,,0,15,15,104,1,,
5eac3dc896a6242689110c31,2023-06-16_10h17.57.655,phx_ver10,2022.2.5,Linux x86_64,60.0528465,,,,,,,,,,,,70,testing_3,zh2j,i,zh2j_i,zh2j_8_iji.wav,zh2j_8_iji.wav,,TRUE,FALSE,,,,,,,,,,,,,,f,1.3421,space,1.6504,,,,,,,,0,16,16,69,1,,
5eac3dc896a6242689110c31,2023-06-16_10h17.57.655,phx_ver10,2022.2.5,Linux x86_64,60.0528465,,,,,,,,,,,,86,testing_3,j2x,e,j2x_e,j2x_8_exe.wav,j2x_8_exe.wav,,TRUE,FALSE,,,,,,,,,,,,,,f,0.1043,space,0.4447,,,,,,,,0,17,17,85,1,,
5eac3dc896a6242689110c31,2023-06-16_10h17.57.655,phx_ver10,2022.2.5,Linux x86_64,60.0528465,,,,,,,,,,,,1,testing_1,zh2x,a,zh2x_a,zh2x_1_azha.wav,zh2x_1_azha_copy.wav,,TRUE,TRUE,,,,,,,,,,,,,,f,0.1017,space,0.3526,,,,,,,,0,18,18,0,1,,
5eac3dc896a6242689110c31,2023-06-16_10h17.57.655,phx_ver10,2022.2.5,Linux x86_64,60.0528465,,,,,,,,,,,,11,testing_1,zh2x,i,zh2x_i,zh2x_1_izhi.wav,zh2x_8_ixi.wav,,FALSE,TRUE,,,,,,,,,,,,,,j,0.3137,space,0.7191,,,,,,,,0,19,19,10,1,,
5eac3dc896a6242689110c31,2023-06-16_10h17.57.655,phx_ver10,2022.2.5,Linux x86_64,60.0528465,,,,,,,,,,,,21,testing_2,zh2x,ei,zh2x_ei,zh2x_1_eizhei.wav,zh2x_1_eizhei.wav,,TRUE,FALSE,,,,,,,,,,,,,,f,0.187,space,0.5958,,,,,,,,0,20,20,20,1,,
5eac3dc896a6242689110c31,2023-06-16_10h17.57.655,phx_ver10,2022.2.5,Linux x86_64,60.0528465,,,,,,,,,,,,67,testing_3,zh2j,ei,zh2j_ei,zh2j_1_eizhei.wav,zh2j_8_eijei.wav,,FALSE,FALSE,,,,,,,,,,,,,,f,0.2883,space,0.5864,,,,,,,,0,21,21,66,1,,
5eac3dc896a6242689110c31,2023-06-16_10h17.57.655,phx_ver10,2022.2.5,Linux x86_64,60.0528465,,,,,,,,,,,,37,testing_3,zh2sh,e,zh2sh_e,zh2sh_1_ezhe.wav,zh2sh_1_ezhe.wav,,TRUE,FALSE,,,,,,,,,,,,,,j,0.2604,space,0.5994,,,,,,,,0,22,22,36,1,,
5eac3dc896a6242689110c31,2023-06-16_10h17.57.655,phx_ver10,2022.2.5,Linux x86_64,60.0528465,,,,,,,,,,,,62,testing_3,zh2j,e,zh2j_e,zh2j_8_eje.wav,zh2j_8_eje.wav,,TRUE,FALSE,,,,,,,,,,,,,,f,0.1726,space,0.4551,,,,,,,,0,23,23,61,1,,
5eac3dc896a6242689110c31,2023-06-16_10h17.57.655,phx_ver10,2022.2.5,Linux x86_64,60.0528465,,,,,,,,,,,,102,testing_3,sh2x,ai,sh2x_ai,sh2x_8_aixai.wav,sh2x_8_aixai.wav,,TRUE,FALSE,,,,,,,,,,,,,,f,0.1061,space,0.4175,,,,,,,,0,24,24,101,1,,
5eac3dc896a6242689110c31,2023-06-16_10h17.57.655,phx_ver10,2022.2.5,Linux x86_64,60.0528465,,,,,,,,,,,,73,testing_3,j2x,a,j2x_a,j2x_1_aja.wav,j2x_1_aja.wav,,TRUE,FALSE,,,,,,,,,,,,,,f,0.4826,space,0.8221,,,,,,,,0,25,25,72,1,,
5eac3dc896a6242689110c31,2023-06-16_10h17.57.655,phx_ver10,2022.2.5,Linux x86_64,60.0528465,,,,,,,,,,,,72,testing_3,zh2j,i,zh2j_i,zh2j_8_iji.wav,zh2j_1_izhi.wav,,FALSE,FALSE,,,,,,,,,,,,,,f,0.1511,space,0.4364,,,,,,,,0,26,26,71,1,,
5eac3dc896a6242689110c31,2023-06-16_10h17.57.655,phx_ver10,2022.2.5,Linux x86_64,60.0528465,,,,,,,,,,,,32,testing_3,zh2sh,ai,zh2sh_ai,zh2sh_8_aishai.wav,zh2sh_1_aizhai.wav,,FALSE,FALSE,,,,,,,,,,,,,,j,0.0399,space,0.2853,,,,,,,,0,27,27,31,1,,
5eac3dc896a6242689110c31,2023-06-16_10h17.57.655,phx_ver10,2022.2.5,Linux x86_64,60.0528465,,,,,,,,,,,,42,testing_3,zh2sh,ei,zh2sh_ei,zh2sh_8_eishei.wav,zh2sh_8_eishei.wav,,TRUE,FALSE,,,,,,,,,,,,,,f,0.0352,space,0.3976,,,,,,,,0,28,28,41,1,,
5eac3dc896a6242689110c31,2023-06-16_10h17.57.655,phx_ver10,2022.2.5,Linux x86_64,60.0528465,,,,,,,,,,,,10,testing_1,zh2x,i,zh2x_i,zh2x_8_ixi.wav,zh2x_8_ixi_copy.wav,,TRUE,TRUE,,,,,,,,,,,,,,f,0.0012,space,0.3462,,,,,,,,0,29,29,9,1,,
5eac3dc896a6242689110c31,2023-06-16_10h17.57.655,phx_ver10,2022.2.5,Linux x86_64,60.0528465,,,,,,,,,,,,9,testing_1,zh2x,i,zh2x_i,zh2x_1_izhi.wav,zh2x_1_izhi_copy.wav,,TRUE,TRUE,,,,,,,,,,,,,,f,0.0356,space,2.0822,,,,,,,,0,30,30,8,1,,
5eac3dc896a6242689110c31,2023-06-16_10h17.57.655,phx_ver10,2022.2.5,Linux x86_64,60.0528465,,,,,,,,,,,,85,testing_3,j2x,e,j2x_e,j2x_1_eje.wav,j2x_1_eje.wav,,TRUE,FALSE,,,,,,,,,,,,,,f,4.013,space,4.5883,,,,,,,,0,31,31,84,1,,
5eac3dc896a6242689110c31,2023-06-16_10h17.57.655,phx_ver10,2022.2.5,Linux x86_64,60.0528465,,,,,,,,,,,,3,testing_1,zh2x,a,zh2x_a,zh2x_1_azha.wav,zh2x_8_axa.wav,,FALSE,TRUE,,,,,,,,,,,,,,j,0.3002,space,0.8176,,,,,,,,0,32,32,2,1,,
5eac3dc896a6242689110c31,2023-06-16_10h17.57.655,phx_ver10,2022.2.5,Linux x86_64,60.0528465,,,,,,,,,,,,46,testing_3,zh2sh,i,zh2sh_i,zh2sh_8_ishi.wav,zh2sh_8_ishi.wav,,TRUE,FALSE,,,,,,,,,,,,,,f,0.0499,space,0.4328,,,,,,,,0,33,33,45,1,,
5eac3dc896a6242689110c31,2023-06-16_10h17.57.655,phx_ver10,2022.2.5,Linux x86_64,60.0528465,,,,,,,,,,,,52,testing_3,zh2j,a,zh2j_a,zh2j_8_aja.wav,zh2j_1_azha.wav,,FALSE,FALSE,,,,,,,,,,,,,,f,0.1201,space,0.6515,,,,,,,,0,34,34,51,1,,
5eac3dc896a6242689110c31,2023-06-16_10h17.57.655,phx_ver10,2022.2.5,Linux x86_64,60.0528465,,,,,,,,,,,,12,testing_1,zh2x,i,zh2x_i,zh2x_8_ixi.wav,zh2x_1_izhi.wav,,FALSE,TRUE,,,,,,,,,,,,,,j,0.0816,space,0.4544,,,,,,,,0,35,35,11,1,,
5eac3dc896a6242689110c31,2023-06-16_10h17.57.655,phx_ver10,2022.2.5,Linux x86_64,60.0528465,,,,,,,,,,,,110,testing_3,sh2x,e,sh2x_e,sh2x_8_exe.wav,sh2x_8_exe.wav,,TRUE,FALSE,,,,,,,,,,,,,,f,0.1358,space,3.8519,,,,,,,,0,36,36,109,1,,
5eac3dc896a6242689110c31,2023-06-16_10h17.57.655,phx_ver10,2022.2.5,Linux x86_64,60.0528465,,,,,,,,,,,,29,testing_3,zh2sh,ai,zh2sh_ai,zh2sh_1_aizhai.wav,zh2sh_1_aizhai.wav,,TRUE,FALSE,,,,,,,,,,,,,,f,0.3383,space,0.7515,,,,,,,,0,37,37,28,1,,
5eac3dc896a6242689110c31,2023-06-16_10h17.57.655,phx_ver10,2022.2.5,Linux x86_64,60.0528465,,,,,,,,,,,,99,testing_3,sh2x,a,sh2x_a,sh2x_1_asha.wav,sh2x_8_axa.wav,,FALSE,FALSE,,,,,,,,,,,,,,f,0.9023,space,7.2059,,,,,,,,0,38,38,98,1,,
5eac3dc896a6242689110c31,2023-06-16_10h17.57.655,phx_ver10,2022.2.5,Linux x86_64,60.0528465,,,,,,,,,,,,138,testing_3,sh2j,ei,sh2j_ei,sh2j_8_eijei.wav,sh2j_8_eijei.wav,,TRUE,FALSE,,,,,,,,,,,,,,f,1.3849,space,1.7691,,,,,,,,0,39,39,137,1,,
5eac3dc896a6242689110c31,2023-06-16_10h17.57.655,phx_ver10,2022.2.5,Linux x86_64,60.0528465,,,,,,,,,,,,23,testing_2,zh2x,ei,zh2x_ei,zh2x_1_eizhei.wav,zh2x_8_eixei.wav,,FALSE,FALSE,,,,,,,,,,,,,,j,0.4683,space,0.625,,,,,,,,0,40,40,22,1,,
5eac3dc896a6242689110c31,2023-06-16_10h17.57.655,phx_ver10,2022.2.5,Linux x86_64,60.0528465,,,,,,,,,,,,40,testing_3,zh2sh,e,zh2sh_e,zh2sh_8_eshe.wav,zh2sh_1_ezhe.wav,,FALSE,FALSE,,,,,,,,,,,,,,j,0.1344,space,0.4666,,,,,,,,0,41,41,39,1,,
5eac3dc896a6242689110c31,2023-06-16_10h17.57.655,phx_ver10,2022.2.5,Linux x86_64,60.0528465,,,,,,,,,,,,60,testing_3,zh2j,au,zh2j_au,zh2j_8_aujau.wav,zh2j_1_auzhau.wav,,FALSE,FALSE,,,,,,,,,,,,,,f,0.6864,space,1.133,,,,,,,,0,42,42,59,1,,
5eac3dc896a6242689110c31,2023-06-16_10h17.57.655,phx_ver10,2022.2.5,Linux x86_64,60.0528465,,,,,,,,,,,,68,testing_3,zh2j,ei,zh2j_ei,zh2j_8_eijei.wav,zh2j_1_eizhei.wav,,FALSE,FALSE,,,,,,,,,,,,,,f,0.9344,space,1.2543,,,,,,,,0,43,43,67,1,,
5eac3dc896a6242689110c31,2023-06-16_10h17.57.655,phx_ver10,2022.2.5,Linux x86_64,60.0528465,,,,,,,,,,,,122,testing_3,sh2j,a,sh2j_a,sh2j_8_aja.wav,sh2j_8_aja.wav,,TRUE,FALSE,,,,,,,,,,,,,,f,0.0614,space,0.2468,,,,,,,,0,44,44,121,1,,
5eac3dc896a6242689110c31,2023-06-16_10h17.57.655,phx_ver10,2022.2.5,Linux x86_64,60.0528465,,,,,,,,,,,,6,testing_1,zh2x,e,zh2x_e,zh2x_8_exe.wav,zh2x_8_exe_copy.wav,,TRUE,TRUE,,,,,,,,,,,,,,f,0.1778,space,0.4204,,,,,,,,0,45,45,5,1,,
5eac3dc896a6242689110c31,2023-06-16_10h17.57.655,phx_ver10,2022.2.5,Linux x86_64,60.0528465,,,,,,,,,,,,35,testing_3,zh2sh,au,zh2sh_au,zh2sh_1_auzhau.wav,zh2sh_8_aushau.wav,,FALSE,FALSE,,,,,,,,,,,,,,j,0.0611,space,0.3291,,,,,,,,0,46,46,34,1,,
5eac3dc896a6242689110c31,2023-06-16_10h17.57.655,phx_ver10,2022.2.5,Linux x86_64,60.0528465,,,,,,,,,,,,96,testing_3,j2x,i,j2x_i,j2x_8_ixi.wav,j2x_1_iji.wav,,FALSE,FALSE,,,,,,,,,,,,,,j,0.3018,space,0.4637,,,,,,,,0,47,47,95,1,,
5eac3dc896a6242689110c31,2023-06-16_10h17.57.655,phx_ver10,2022.2.5,Linux x86_64,60.0528465,,,,,,,,,,,,121,testing_3,sh2j,a,sh2j_a,sh2j_1_asha.wav,sh2j_1_asha.wav,,TRUE,FALSE,,,,,,,,,,,,,,f,1.9505,space,2.3116,,,,,,,,0,48,48,120,1,,
5eac3dc896a6242689110c31,2023-06-16_10h17.57.655,phx_ver10,2022.2.5,Linux x86_64,60.0528465,,,,,,,,,,,,5,testing_1,zh2x,e,zh2x_e,zh2x_1_ezhe.wav,zh2x_1_ezhe_copy.wav,,TRUE,TRUE,,,,,,,,,,,,,,f,0.1537,space,0.455,,,,,,,,0,49,49,4,1,,
5eac3dc896a6242689110c31,2023-06-16_10h17.57.655,phx_ver10,2022.2.5,Linux x86_64,60.0528465,,,,,,,,,,,,123,testing_3,sh2j,a,sh2j_a,sh2j_1_asha.wav,sh2j_8_aja.wav,,FALSE,FALSE,,,,,,,,,,,,,,j,0.0021,space,0.2971,,,,,,,,0,50,50,122,1,,
5eac3dc896a6242689110c31,2023-06-16_10h17.57.655,phx_ver10,2022.2.5,Linux x86_64,60.0528465,,,,,,,,,,,,120,testing_3,sh2x,i,sh2x_i,sh2x_8_ixi.wav,sh2x_1_ishi.wav,,FALSE,FALSE,,,,,,,,,,,,,,f,0.0856,space,0.3237,,,,,,,,0,51,51,119,1,,
5eac3dc896a6242689110c31,2023-06-16_10h17.57.655,phx_ver10,2022.2.5,Linux x86_64,60.0528465,,,,,,,,,,,,116,testing_3,sh2x,ei,sh2x_ei,sh2x_8_eixei.wav,sh2x_1_eishei.wav,,FALSE,FALSE,,,,,,,,,,,,,,f,0.6865,space,0.9428,,,,,,,,0,52,52,115,1,,
5eac3dc896a6242689110c31,2023-06-16_10h17.57.655,phx_ver10,2022.2.5,Linux x86_64,60.0528465,,,,,,,,,,,,22,testing_2,zh2x,ei,zh2x_ei,zh2x_8_eixei.wav,zh2x_8_eixei.wav,,TRUE,FALSE,,,,,,,,,,,,,,f,0.2665,space,0.6379,,,,,,,,0,53,53,21,1,,
5eac3dc896a6242689110c31,2023-06-16_10h17.57.655,phx_ver10,2022.2.5,Linux x86_64,60.0528465,,,,,,,,,,,,77,testing_3,j2x,ai,j2x_ai,j2x_1_aijai.wav,j2x_1_aijai.wav,,TRUE,FALSE,,,,,,,,,,,,,,f,1.2006,space,1.6069,,,,,,,,0,54,54,76,1,,
5eac3dc896a6242689110c31,2023-06-16_10h17.57.655,phx_ver10,2022.2.5,Linux x86_64,60.0528465,,,,,,,,,,,,104,testing_3,sh2x,ai,sh2x_ai,sh2x_8_aixai.wav,sh2x_1_aishai.wav,,FALSE,FALSE,,,,,,,,,,,,,,f,0.2288,space,0.5686,,,,,,,,0,55,55,103,1,,
5eac3dc896a6242689110c31,2023-06-16_10h17.57.655,phx_ver10,2022.2.5,Linux x86_64,60.0528465,,,,,,,,,,,,76,testing_3,j2x,a,j2x_a,j2x_8_axa.wav,j2x_1_aja.wav,,FALSE,FALSE,,,,,,,,,,,,,,j,0.0015,space,0.4534,,,,,,,,0,56,56,75,1,,
5eac3dc896a6242689110c31,2023-06-16_10h17.57.655,phx_ver10,2022.2.5,Linux x86_64,60.0528465,,,,,,,,,,,,55,testing_3,zh2j,ai,zh2j_ai,zh2j_1_aizhai.wav,zh2j_8_aijai.wav,,FALSE,FALSE,,,,,,,,,,,,,,f,0.6832,space,1.0112,,,,,,,,0,57,57,54,1,,
5eac3dc896a6242689110c31,2023-06-16_10h17.57.655,phx_ver10,2022.2.5,Linux x86_64,60.0528465,,,,,,,,,,,,34,testing_3,zh2sh,au,zh2sh_au,zh2sh_8_aushau.wav,zh2sh_8_aushau.wav,,TRUE,FALSE,,,,,,,,,,,,,,f,0.0729,space,0.3867,,,,,,,,0,58,58,33,1,,
5eac3dc896a6242689110c31,2023-06-16_10h17.57.655,phx_ver10,2022.2.5,Linux x86_64,60.0528465,,,,,,,,,,,,69,testing_3,zh2j,i,zh2j_i,zh2j_1_izhi.wav,zh2j_1_izhi.wav,,TRUE,FALSE,,,,,,,,,,,,,,f,0.0991,space,0.4145,,,,,,,,0,59,59,68,1,,
5eac3dc896a6242689110c31,2023-06-16_10h17.57.655,phx_ver10,2022.2.5,Linux x86_64,60.0528465,,,,,,,,,,,,118,testing_3,sh2x,i,sh2x_i,sh2x_8_ixi.wav,sh2x_8_ixi.wav,,TRUE,FALSE,,,,,,,,,,,,,,f,1.8574,space,2.1333,,,,,,,,0,60,60,117,1,,
5eac3dc896a6242689110c31,2023-06-16_10h17.57.655,phx_ver10,2022.2.5,Linux x86_64,60.0528465,,,,,,,,,,,,119,testing_3,sh2x,i,sh2x_i,sh2x_1_ishi.wav,sh2x_8_ixi.wav,,FALSE,FALSE,,,,,,,,,,,,,,f,0.0431,space,0.3852,,,,,,,,0,61,61,118,1,,
5eac3dc896a6242689110c31,2023-06-16_10h17.57.655,phx_ver10,2022.2.5,Linux x86_64,60.0528465,,,,,,,,,,,,109,testing_3,sh2x,e,sh2x_e,sh2x_1_eshe.wav,sh2x_1_eshe.wav,,TRUE,FALSE,,,,,,,,,,,,,,f,1.0184,space,1.5351,,,,,,,,0,62,62,108,1,,
5eac3dc896a6242689110c31,2023-06-16_10h17.57.655,phx_ver10,2022.2.5,Linux x86_64,60.0528465,,,,,,,,,,,,124,testing_3,sh2j,a,sh2j_a,sh2j_8_aja.wav,sh2j_1_asha.wav,,FALSE,FALSE,,,,,,,,,,,,,,j,0.534,space,0.9289,,,,,,,,0,63,63,123,1,,
5eac3dc896a6242689110c31,2023-06-16_10h17.57.655,phx_ver10,2022.2.5,Linux x86_64,60.0528465,,,,,,,,,,,,39,testing_3,zh2sh,e,zh2sh_e,zh2sh_1_ezhe.wav,zh2sh_8_eshe.wav,,FALSE,FALSE,,,,,,,,,,,,,,f,1.2155,space,1.6726,,,,,,,,0,64,64,38,1,,
5eac3dc896a6242689110c31,2023-06-16_10h17.57.655,phx_ver10,2022.2.5,Linux x86_64,60.0528465,,,,,,,,,,,,66,testing_3,zh2j,ei,zh2j_ei,zh2j_8_eijei.wav,zh2j_8_eijei.wav,,TRUE,FALSE,,,,,,,,,,,,,,j,2.9265,space,3.1323,,,,,,,,0,65,65,65,1,,
5eac3dc896a6242689110c31,2023-06-16_10h17.57.655,phx_ver10,2022.2.5,Linux x86_64,60.0528465,,,,,,,,,,,,36,testing_3,zh2sh,au,zh2sh_au,zh2sh_8_aushau.wav,zh2sh_1_auzhau.wav,,FALSE,FALSE,,,,,,,,,,,,,,j,0.5957,space,0.886,,,,,,,,0,66,66,35,1,,
5eac3dc896a6242689110c31,2023-06-16_10h17.57.655,phx_ver10,2022.2.5,Linux x86_64,60.0528465,,,,,,,,,,,,93,testing_3,j2x,i,j2x_i,j2x_1_iji.wav,j2x_1_iji.wav,,TRUE,FALSE,,,,,,,,,,,,,,f,0.2825,space,0.6845,,,,,,,,0,67,67,92,1,,
5eac3dc896a6242689110c31,2023-06-16_10h17.57.655,phx_ver10,2022.2.5,Linux x86_64,60.0528465,,,,,,,,,,,,114,testing_3,sh2x,ei,sh2x_ei,sh2x_8_eixei.wav,sh2x_8_eixei.wav,,TRUE,FALSE,,,,,,,,,,,,,,f,0.0344,space,0.4008,,,,,,,,0,68,68,113,1,,
5eac3dc896a6242689110c31,2023-06-16_10h17.57.655,phx_ver10,2022.2.5,Linux x86_64,60.0528465,,,,,,,,,,,,4,testing_1,zh2x,a,zh2x_a,zh2x_8_axa.wav,zh2x_1_azha.wav,,FALSE,TRUE,,,,,,,,,,,,,,j,0.1459,space,0.4033,,,,,,,,0,69,69,3,1,,
5eac3dc896a6242689110c31,2023-06-16_10h17.57.655,phx_ver10,2022.2.5,Linux x86_64,60.0528465,,,,,,,,,,,,24,testing_2,zh2x,ei,zh2x_ei,zh2x_8_eixei.wav,zh2x_1_eizhei.wav,,FALSE,FALSE,,,,,,,,,,,,,,j,0.5866,space,0.9081,,,,,,,,0,70,70,23,1,,
5eac3dc896a6242689110c31,2023-06-16_10h17.57.655,phx_ver10,2022.2.5,Linux x86_64,60.0528465,,,,,,,,,,,,81,testing_3,j2x,au,j2x_au,j2x_1_aujau.wav,j2x_1_aujau.wav,,TRUE,FALSE,,,,,,,,,,,,,,f,0.0012,space,1.2176,,,,,,,,0,71,71,80,1,,
5eac3dc896a6242689110c31,2023-06-16_10h17.57.655,phx_ver10,2022.2.5,Linux x86_64,60.0528465,,,,,,,,,,,,61,testing_3,zh2j,e,zh2j_e,zh2j_1_ezhe.wav,zh2j_1_ezhe.wav,,TRUE,FALSE,,,,,,,,,,,,,,f,0.4185,space,2.0465,,,,,,,,0,72,72,60,1,,
5eac3dc896a6242689110c31,2023-06-16_10h17.57.655,phx_ver10,2022.2.5,Linux x86_64,60.0528465,,,,,,,,,,,,133,testing_3,sh2j,e,sh2j_e,sh2j_1_eshe.wav,sh2j_1_eshe.wav,,TRUE,FALSE,,,,,,,,,,,,,,f,0.2194,space,0.6458,,,,,,,,0,73,73,132,1,,
5eac3dc896a6242689110c31,2023-06-16_10h17.57.655,phx_ver10,2022.2.5,Linux x86_64,60.0528465,,,,,,,,,,,,33,testing_3,zh2sh,au,zh2sh_au,zh2sh_1_auzhau.wav,zh2sh_1_auzhau.wav,,TRUE,FALSE,,,,,,,,,,,,,,f,0.4081,space,0.7686,,,,,,,,0,74,74,32,1,,
5eac3dc896a6242689110c31,2023-06-16_10h17.57.655,phx_ver10,2022.2.5,Linux x86_64,60.0528465,,,,,,,,,,,,128,testing_3,sh2j,ai,sh2j_ai,sh2j_8_aijai.wav,sh2j_1_aishai.wav,,FALSE,FALSE,,,,,,,,,,,,,,j,0.1534,space,0.5803,,,,,,,,0,75,75,127,1,,
5eac3dc896a6242689110c31,2023-06-16_10h17.57.655,phx_ver10,2022.2.5,Linux x86_64,60.0528465,,,,,,,,,,,,14,testing_2,zh2x,ai,zh2x_ai,zh2x_8_aixai.wav,zh2x_8_aixai.wav,,TRUE,FALSE,,,,,,,,,,,,,,f,1.2142,space,1.5484,,,,,,,,0,76,76,13,1,,
5eac3dc896a6242689110c31,2023-06-16_10h17.57.655,phx_ver10,2022.2.5,Linux x86_64,60.0528465,,,,,,,,,,,,98,testing_3,sh2x,a,sh2x_a,sh2x_8_axa.wav,sh2x_8_axa.wav,,TRUE,FALSE,,,,,,,,,,,,,,f,5.3949,space,5.9548,,,,,,,,0,77,77,97,1,,
5eac3dc896a6242689110c31,2023-06-16_10h17.57.655,phx_ver10,2022.2.5,Linux x86_64,60.0528465,,,,,,,,,,,,53,testing_3,zh2j,ai,zh2j_ai,zh2j_1_aizhai.wav,zh2j_1_aizhai.wav,,TRUE,FALSE,,,,,,,,,,,,,,f,0.1125,space,0.486,,,,,,,,0,78,78,52,1,,
5eac3dc896a6242689110c31,2023-06-16_10h17.57.655,phx_ver10,2022.2.5,Linux x86_64,60.0528465,,,,,,,,,,,,75,testing_3,j2x,a,j2x_a,j2x_1_aja.wav,j2x_8_axa.wav,,FALSE,FALSE,,,,,,,,,,,,,,j,1.1471,space,1.5175,,,,,,,,0,79,79,74,1,,
5eac3dc896a6242689110c31,2023-06-16_10h17.57.655,phx_ver10,2022.2.5,Linux x86_64,60.0528465,,,,,,,,,,,,17,testing_2,zh2x,au,zh2x_au,zh2x_1_auzhau.wav,zh2x_1_auzhau.wav,,TRUE,FALSE,,,,,,,,,,,,,,f,0.2556,space,0.6334,,,,,,,,0,80,80,16,1,,
5eac3dc896a6242689110c31,2023-06-16_10h17.57.655,phx_ver10,2022.2.5,Linux x86_64,60.0528465,,,,,,,,,,,,8,testing_1,zh2x,e,zh2x_e,zh2x_8_exe.wav,zh2x_1_ezhe.wav,,FALSE,TRUE,,,,,,,,,,,,,,j,0.368,space,0.735,,,,,,,,0,81,81,7,1,,
5eac3dc896a6242689110c31,2023-06-16_10h17.57.655,phx_ver10,2022.2.5,Linux x86_64,60.0528465,,,,,,,,,,,,89,testing_3,j2x,ei,j2x_ei,j2x_1_eijei.wav,j2x_1_eijei.wav,,TRUE,FALSE,,,,,,,,,,,,,,f,0.3348,space,0.772,,,,,,,,0,82,82,88,1,,
5eac3dc896a6242689110c31,2023-06-16_10h17.57.655,phx_ver10,2022.2.5,Linux x86_64,60.0528465,,,,,,,,,,,,50,testing_3,zh2j,a,zh2j_a,zh2j_8_aja.wav,zh2j_8_aja.wav,,TRUE,FALSE,,,,,,,,,,,,,,f,0.0687,space,0.4986,,,,,,,,0,83,83,49,1,,
5eac3dc896a6242689110c31,2023-06-16_10h17.57.655,phx_ver10,2022.2.5,Linux x86_64,60.0528465,,,,,,,,,,,,97,testing_3,sh2x,a,sh2x_a,sh2x_1_asha.wav,sh2x_1_asha.wav,,TRUE,FALSE,,,,,,,,,,,,,,f,0.2562,space,0.6246,,,,,,,,0,84,84,96,1,,
5eac3dc896a6242689110c31,2023-06-16_10h17.57.655,phx_ver10,2022.2.5,Linux x86_64,60.0528465,,,,,,,,,,,,74,testing_3,j2x,a,j2x_a,j2x_8_axa.wav,j2x_8_axa.wav,,TRUE,FALSE,,,,,,,,,,,,,,f,0.1124,space,0.462,,,,,,,,0,85,85,73,1,,
5eac3dc896a6242689110c31,2023-06-16_10h17.57.655,phx_ver10,2022.2.5,Linux x86_64,60.0528465,,,,,,,,,,,,82,testing_3,j2x,au,j2x_au,j2x_8_auxau.wav,j2x_8_auxau.wav,,TRUE,FALSE,,,,,,,,,,,,,,f,0.059,space,0.4408,,,,,,,,0,86,86,81,1,,
5eac3dc896a6242689110c31,2023-06-16_10h17.57.655,phx_ver10,2022.2.5,Linux x86_64,60.0528465,,,,,,,,,,,,130,testing_3,sh2j,au,sh2j_au,sh2j_8_aujau.wav,sh2j_8_aujau.wav,,TRUE,FALSE,,,,,,,,,,,,,,f,0.2841,space,0.6404,,,,,,,,0,87,87,129,1,,
5eac3dc896a6242689110c31,2023-06-16_10h17.57.655,phx_ver10,2022.2.5,Linux x86_64,60.0528465,,,,,,,,,,,,30,testing_3,zh2sh,ai,zh2sh_ai,zh2sh_8_aishai.wav,zh2sh_8_aishai.wav,,TRUE,FALSE,,,,,,,,,,,,,,f,0.4988,space,1.2113,,,,,,,,0,88,88,29,1,,
5eac3dc896a6242689110c31,2023-06-16_10h17.57.655,phx_ver10,2022.2.5,Linux x86_64,60.0528465,,,,,,,,,,,,51,testing_3,zh2j,a,zh2j_a,zh2j_1_azha.wav,zh2j_8_aja.wav,,FALSE,FALSE,,,,,,,,,,,,,,f,0.1535,space,0.4621,,,,,,,,0,89,89,50,1,,
5eac3dc896a6242689110c31,2023-06-16_10h17.57.655,phx_ver10,2022.2.5,Linux x86_64,60.0528465,,,,,,,,,,,,90,testing_3,j2x,ei,j2x_ei,j2x_8_eixei.wav,j2x_8_eixei.wav,,TRUE,FALSE,,,,,,,,,,,,,,f,0.1794,space,0.5354,,,,,,,,0,90,90,89,1,,
5eac3dc896a6242689110c31,2023-06-16_10h17.57.655,phx_ver10,2022.2.5,Linux x86_64,60.0528465,,,,,,,,,,,,135,testing_3,sh2j,e,sh2j_e,sh2j_1_eshe.wav,sh2j_8_eje.wav,,FALSE,FALSE,,,,,,,,,,,,,,j,0.1683,space,0.5295,,,,,,,,0,91,91,134,1,,
5eac3dc896a6242689110c31,2023-06-16_10h17.57.655,phx_ver10,2022.2.5,Linux x86_64,60.0528465,,,,,,,,,,,,83,testing_3,j2x,au,j2x_au,j2x_1_aujau.wav,j2x_8_auxau.wav,,FALSE,FALSE,,,,,,,,,,,,,,j,0.1495,space,0.5183,,,,,,,,0,92,92,82,1,,
5eac3dc896a6242689110c31,2023-06-16_10h17.57.655,phx_ver10,2022.2.5,Linux x86_64,60.0528465,,,,,,,,,,,,56,testing_3,zh2j,ai,zh2j_ai,zh2j_8_aijai.wav,zh2j_1_aizhai.wav,,FALSE,FALSE,,,,,,,,,,,,,,f,0.2344,space,0.5274,,,,,,,,0,93,93,55,1,,
5eac3dc896a6242689110c31,2023-06-16_10h17.57.655,phx_ver10,2022.2.5,Linux x86_64,60.0528465,,,,,,,,,,,,28,testing_3,zh2sh,a,zh2sh_a,zh2sh_8_asha.wav,zh2sh_1_azha.wav,,FALSE,FALSE,,,,,,,,,,,,,,f,0.0673,space,0.3837,,,,,,,,0,94,94,27,1,,
5eac3dc896a6242689110c31,2023-06-16_10h17.57.655,phx_ver10,2022.2.5,Linux x86_64,60.0528465,,,,,,,,,,,,7,testing_1,zh2x,e,zh2x_e,zh2x_1_ezhe.wav,zh2x_8_exe.wav,,FALSE,TRUE,,,,,,,,,,,,,,j,0.0666,space,0.4117,,,,,,,,0,95,95,6,1,,
5eac3dc896a6242689110c31,2023-06-16_10h17.57.655,phx_ver10,2022.2.5,Linux x86_64,60.0528465,,,,,,,,,,,,111,testing_3,sh2x,e,sh2x_e,sh2x_1_eshe.wav,sh2x_8_exe.wav,,FALSE,FALSE,,,,,,,,,,,,,,f,0.1477,space,0.4344,,,,,,,,0,96,96,110,1,,
5eac3dc896a6242689110c31,2023-06-16_10h17.57.655,phx_ver10,2022.2.5,Linux x86_64,60.0528465,,,,,,,,,,,,63,testing_3,zh2j,e,zh2j_e,zh2j_1_ezhe.wav,zh2j_8_eje.wav,,FALSE,FALSE,,,,,,,,,,,,,,f,0.4022,space,0.7182,,,,,,,,0,97,97,62,1,,
5eac3dc896a6242689110c31,2023-06-16_10h17.57.655,phx_ver10,2022.2.5,Linux x86_64,60.0528465,,,,,,,,,,,,47,testing_3,zh2sh,i,zh2sh_i,zh2sh_1_izhi.wav,zh2sh_8_ishi.wav,,FALSE,FALSE,,,,,,,,,,,,,,j,0.0024,space,0.3593,,,,,,,,0,98,98,46,1,,
5eac3dc896a6242689110c31,2023-06-16_10h17.57.655,phx_ver10,2022.2.5,Linux x86_64,60.0528465,,,,,,,,,,,,100,testing_3,sh2x,a,sh2x_a,sh2x_8_axa.wav,sh2x_1_asha.wav,,FALSE,FALSE,,,,,,,,,,,,,,f,25.859,space,28.4749,,,,,,,,0,99,99,99,1,,
5eac3dc896a6242689110c31,2023-06-16_10h17.57.655,phx_ver10,2022.2.5,Linux x86_64,60.0528465,,,,,,,,,,,,134,testing_3,sh2j,e,sh2j_e,sh2j_8_eje.wav,sh2j_8_eje.wav,,TRUE,FALSE,,,,,,,,,,,,,,f,0.4297,space,0.5911,,,,,,,,0,100,100,133,1,,
5eac3dc896a6242689110c31,2023-06-16_10h17.57.655,phx_ver10,2022.2.5,Linux x86_64,60.0528465,,,,,,,,,,,,91,testing_3,j2x,ei,j2x_ei,j2x_1_eijei.wav,j2x_8_eixei.wav,,FALSE,FALSE,,,,,,,,,,,,,,j,0.398,space,0.608,,,,,,,,0,101,101,90,1,,
5eac3dc896a6242689110c31,2023-06-16_10h17.57.655,phx_ver10,2022.2.5,Linux x86_64,60.0528465,,,,,,,,,,,,132,testing_3,sh2j,au,sh2j_au,sh2j_8_aujau.wav,sh2j_1_aushau.wav,,FALSE,FALSE,,,,,,,,,,,,,,j,0.1537,space,0.8197,,,,,,,,0,102,102,131,1,,
5eac3dc896a6242689110c31,2023-06-16_10h17.57.655,phx_ver10,2022.2.5,Linux x86_64,60.0528465,,,,,,,,,,,,127,testing_3,sh2j,ai,sh2j_ai,sh2j_1_aishai.wav,sh2j_8_aijai.wav,,FALSE,FALSE,,,,,,,,,,,,,,j,0.3189,space,0.5638,,,,,,,,0,103,103,126,1,,
5eac3dc896a6242689110c31,2023-06-16_10h17.57.655,phx_ver10,2022.2.5,Linux x86_64,60.0528465,,,,,,,,,,,,58,testing_3,zh2j,au,zh2j_au,zh2j_8_aujau.wav,zh2j_8_aujau.wav,,TRUE,FALSE,,,,,,,,,,,,,,f,3.6385,space,3.9387,,,,,,,,0,104,104,57,1,,
5eac3dc896a6242689110c31,2023-06-16_10h17.57.655,phx_ver10,2022.2.5,Linux x86_64,60.0528465,,,,,,,,,,,,16,testing_2,zh2x,ai,zh2x_ai,zh2x_8_aixai.wav,zh2x_1_aizhai.wav,,FALSE,FALSE,,,,,,,,,,,,,,j,0.0697,space,0.4292,,,,,,,,0,105,105,15,1,,
5eac3dc896a6242689110c31,2023-06-16_10h17.57.655,phx_ver10,2022.2.5,Linux x86_64,60.0528465,,,,,,,,,,,,78,testing_3,j2x,ai,j2x_ai,j2x_8_aixai.wav,j2x_8_aixai.wav,,TRUE,FALSE,,,,,,,,,,,,,,f,0.1404,space,0.4994,,,,,,,,0,106,106,77,1,,
5eac3dc896a6242689110c31,2023-06-16_10h17.57.655,phx_ver10,2022.2.5,Linux x86_64,60.0528465,,,,,,,,,,,,139,testing_3,sh2j,ei,sh2j_ei,sh2j_1_eishei.wav,sh2j_8_eijei.wav,,FALSE,FALSE,,,,,,,,,,,,,,j,0.07,space,0.3804,,,,,,,,0,107,107,138,1,,
5eac3dc896a6242689110c31,2023-06-16_10h17.57.655,phx_ver10,2022.2.5,Linux x86_64,60.0528465,,,,,,,,,,,,87,testing_3,j2x,e,j2x_e,j2x_1_eje.wav,j2x_8_exe.wav,,FALSE,FALSE,,,,,,,,,,,,,,j,0.1849,space,0.494,,,,,,,,0,108,108,86,1,,
5eac3dc896a6242689110c31,2023-06-16_10h17.57.655,phx_ver10,2022.2.5,Linux x86_64,60.0528465,,,,,,,,,,,,25,testing_3,zh2sh,a,zh2sh_a,zh2sh_1_azha.wav,zh2sh_1_azha.wav,,TRUE,FALSE,,,,,,,,,,,,,,f,0.3405,space,0.6826,,,,,,,,0,109,109,24,1,,
5eac3dc896a6242689110c31,2023-06-16_10h17.57.655,phx_ver10,2022.2.5,Linux x86_64,60.0528465,,,,,,,,,,,,94,testing_3,j2x,i,j2x_i,j2x_8_ixi.wav,j2x_8_ixi.wav,,TRUE,FALSE,,,,,,,,,,,,,,f,0.1145,space,0.4424,,,,,,,,0,110,110,93,1,,
5eac3dc896a6242689110c31,2023-06-16_10h17.57.655,phx_ver10,2022.2.5,Linux x86_64,60.0528465,,,,,,,,,,,,129,testing_3,sh2j,au,sh2j_au,sh2j_1_aushau.wav,sh2j_1_aushau.wav,,TRUE,FALSE,,,,,,,,,,,,,,f,0.1014,space,0.3868,,,,,,,,0,111,111,128,1,,
5eac3dc896a6242689110c31,2023-06-16_10h17.57.655,phx_ver10,2022.2.5,Linux x86_64,60.0528465,,,,,,,,,,,,142,testing_3,sh2j,i,sh2j_i,sh2j_8_iji.wav,sh2j_8_iji.wav,,TRUE,FALSE,,,,,,,,,,,,,,f,0.0147,space,0.4224,,,,,,,,0,112,112,141,1,,
5eac3dc896a6242689110c31,2023-06-16_10h17.57.655,phx_ver10,2022.2.5,Linux x86_64,60.0528465,,,,,,,,,,,,31,testing_3,zh2sh,ai,zh2sh_ai,zh2sh_1_aizhai.wav,zh2sh_8_aishai.wav,,FALSE,FALSE,,,,,,,,,,,,,,j,0.6188,space,0.913,,,,,,,,0,113,113,30,1,,
5eac3dc896a6242689110c31,2023-06-16_10h17.57.655,phx_ver10,2022.2.5,Linux x86_64,60.0528465,,,,,,,,,,,,95,testing_3,j2x,i,j2x_i,j2x_1_iji.wav,j2x_8_ixi.wav,,FALSE,FALSE,,,,,,,,,,,,,,j,0.2075,space,0.5166,,,,,,,,0,114,114,94,1,,
5eac3dc896a6242689110c31,2023-06-16_10h17.57.655,phx_ver10,2022.2.5,Linux x86_64,60.0528465,,,,,,,,,,,,15,testing_2,zh2x,ai,zh2x_ai,zh2x_1_aizhai.wav,zh2x_8_aixai.wav,,FALSE,FALSE,,,,,,,,,,,,,,j,0.3488,space,0.6295,,,,,,,,0,115,115,14,1,,
5eac3dc896a6242689110c31,2023-06-16_10h17.57.655,phx_ver10,2022.2.5,Linux x86_64,60.0528465,,,,,,,,,,,,19,testing_2,zh2x,au,zh2x_au,zh2x_1_auzhau.wav,zh2x_8_auxau.wav,,FALSE,FALSE,,,,,,,,,,,,,,j,0.1006,space,0.412,,,,,,,,0,116,116,18,1,,
5eac3dc896a6242689110c31,2023-06-16_10h17.57.655,phx_ver10,2022.2.5,Linux x86_64,60.0528465,,,,,,,,,,,,115,testing_3,sh2x,ei,sh2x_ei,sh2x_1_eishei.wav,sh2x_8_eixei.wav,,FALSE,FALSE,,,,,,,,,,,,,,f,0.5069,space,0.8046,,,,,,,,0,117,117,114,1,,
5eac3dc896a6242689110c31,2023-06-16_10h17.57.655,phx_ver10,2022.2.5,Linux x86_64,60.0528465,,,,,,,,,,,,112,testing_3,sh2x,e,sh2x_e,sh2x_8_exe.wav,sh2x_1_eshe.wav,,FALSE,FALSE,,,,,,,,,,,,,,f,0.2676,space,0.5976,,,,,,,,0,118,118,111,1,,
5eac3dc896a6242689110c31,2023-06-16_10h17.57.655,phx_ver10,2022.2.5,Linux x86_64,60.0528465,,,,,,,,,,,,136,testing_3,sh2j,e,sh2j_e,sh2j_8_eje.wav,sh2j_1_eshe.wav,,FALSE,FALSE,,,,,,,,,,,,,,j,0.2033,space,0.5195,,,,,,,,0,119,119,135,1,,
5eac3dc896a6242689110c31,2023-06-16_10h17.57.655,phx_ver10,2022.2.5,Linux x86_64,60.0528465,,,,,,,,,,,,113,testing_3,sh2x,ei,sh2x_ei,sh2x_1_eishei.wav,sh2x_1_eishei.wav,,TRUE,FALSE,,,,,,,,,,,,,,f,0.3528,space,0.8157,,,,,,,,0,120,120,112,1,,
5eac3dc896a6242689110c31,2023-06-16_10h17.57.655,phx_ver10,2022.2.5,Linux x86_64,60.0528465,,,,,,,,,,,,20,testing_2,zh2x,au,zh2x_au,zh2x_8_auxau.wav,zh2x_1_auzhau.wav,,FALSE,FALSE,,,,,,,,,,,,,,j,0.07,space,0.5013,,,,,,,,0,121,121,19,1,,
5eac3dc896a6242689110c31,2023-06-16_10h17.57.655,phx_ver10,2022.2.5,Linux x86_64,60.0528465,,,,,,,,,,,,137,testing_3,sh2j,ei,sh2j_ei,sh2j_1_eishei.wav,sh2j_1_eishei.wav,,TRUE,FALSE,,,,,,,,,,,,,,f,0.2227,space,0.4991,,,,,,,,0,122,122,136,1,,
5eac3dc896a6242689110c31,2023-06-16_10h17.57.655,phx_ver10,2022.2.5,Linux x86_64,60.0528465,,,,,,,,,,,,54,testing_3,zh2j,ai,zh2j_ai,zh2j_8_aijai.wav,zh2j_8_aijai.wav,,TRUE,FALSE,,,,,,,,,,,,,,f,0.0305,space,0.4082,,,,,,,,0,123,123,53,1,,
5eac3dc896a6242689110c31,2023-06-16_10h17.57.655,phx_ver10,2022.2.5,Linux x86_64,60.0528465,,,,,,,,,,,,143,testing_3,sh2j,i,sh2j_i,sh2j_1_ishi.wav,sh2j_8_iji.wav,,FALSE,FALSE,,,,,,,,,,,,,,j,0.2605,space,0.6081,,,,,,,,0,124,124,142,1,,
5eac3dc896a6242689110c31,2023-06-16_10h17.57.655,phx_ver10,2022.2.5,Linux x86_64,60.0528465,,,,,,,,,,,,44,testing_3,zh2sh,ei,zh2sh_ei,zh2sh_8_eishei.wav,zh2sh_1_eizhei.wav,,FALSE,FALSE,,,,,,,,,,,,,,j,0.2356,space,0.5339,,,,,,,,0,125,125,43,1,,
5eac3dc896a6242689110c31,2023-06-16_10h17.57.655,phx_ver10,2022.2.5,Linux x86_64,60.0528465,,,,,,,,,,,,103,testing_3,sh2x,ai,sh2x_ai,sh2x_1_aishai.wav,sh2x_8_aixai.wav,,FALSE,FALSE,,,,,,,,,,,,,,f,2.8536,space,3.186,,,,,,,,0,126,126,102,1,,
5eac3dc896a6242689110c31,2023-06-16_10h17.57.655,phx_ver10,2022.2.5,Linux x86_64,60.0528465,,,,,,,,,,,,27,testing_3,zh2sh,a,zh2sh_a,zh2sh_1_azha.wav,zh2sh_8_asha.wav,,FALSE,FALSE,,,,,,,,,,,,,,j,0.3381,space,0.5713,,,,,,,,0,127,127,26,1,,
5eac3dc896a6242689110c31,2023-06-16_10h17.57.655,phx_ver10,2022.2.5,Linux x86_64,60.0528465,,,,,,,,,,,,106,testing_3,sh2x,au,sh2x_au,sh2x_8_auxau.wav,sh2x_8_auxau.wav,,TRUE,FALSE,,,,,,,,,,,,,,f,0.3836,space,0.719,,,,,,,,0,128,128,105,1,,
5eac3dc896a6242689110c31,2023-06-16_10h17.57.655,phx_ver10,2022.2.5,Linux x86_64,60.0528465,,,,,,,,,,,,43,testing_3,zh2sh,ei,zh2sh_ei,zh2sh_1_eizhei.wav,zh2sh_8_eishei.wav,,FALSE,FALSE,,,,,,,,,,,,,,j,0.3154,space,0.5601,,,,,,,,0,129,129,42,1,,
5eac3dc896a6242689110c31,2023-06-16_10h17.57.655,phx_ver10,2022.2.5,Linux x86_64,60.0528465,,,,,,,,,,,,117,testing_3,sh2x,i,sh2x_i,sh2x_1_ishi.wav,sh2x_1_ishi.wav,,TRUE,FALSE,,,,,,,,,,,,,,f,0.4102,space,0.921,,,,,,,,0,130,130,116,1,,
5eac3dc896a6242689110c31,2023-06-16_10h17.57.655,phx_ver10,2022.2.5,Linux x86_64,60.0528465,,,,,,,,,,,,80,testing_3,j2x,ai,j2x_ai,j2x_8_aixai.wav,j2x_1_aijai.wav,,FALSE,FALSE,,,,,,,,,,,,,,j,0.2574,space,0.5242,,,,,,,,0,131,131,79,1,,
5eac3dc896a6242689110c31,2023-06-16_10h17.57.655,phx_ver10,2022.2.5,Linux x86_64,60.0528465,,,,,,,,,,,,101,testing_3,sh2x,ai,sh2x_ai,sh2x_1_aishai.wav,sh2x_1_aishai.wav,,TRUE,FALSE,,,,,,,,,,,,,,f,0.2657,space,0.5014,,,,,,,,0,132,132,100,1,,
5eac3dc896a6242689110c31,2023-06-16_10h17.57.655,phx_ver10,2022.2.5,Linux x86_64,60.0528465,,,,,,,,,,,,140,testing_3,sh2j,ei,sh2j_ei,sh2j_8_eijei.wav,sh2j_1_eishei.wav,,FALSE,FALSE,,,,,,,,,,,,,,j,0.6734,space,0.963,,,,,,,,0,133,133,139,1,,
5eac3dc896a6242689110c31,2023-06-16_10h17.57.655,phx_ver10,2022.2.5,Linux x86_64,60.0528465,,,,,,,,,,,,125,testing_3,sh2j,ai,sh2j_ai,sh2j_1_aishai.wav,sh2j_1_aishai.wav,,TRUE,FALSE,,,,,,,,,,,,,,f,0.5543,space,0.7637,,,,,,,,0,134,134,124,1,,
5eac3dc896a6242689110c31,2023-06-16_10h17.57.655,phx_ver10,2022.2.5,Linux x86_64,60.0528465,,,,,,,,,,,,92,testing_3,j2x,ei,j2x_ei,j2x_8_eixei.wav,j2x_1_eijei.wav,,FALSE,FALSE,,,,,,,,,,,,,,j,0.8423,space,1.1508,,,,,,,,0,135,135,91,1,,
5eac3dc896a6242689110c31,2023-06-16_10h17.57.655,phx_ver10,2022.2.5,Linux x86_64,60.0528465,,,,,,,,,,,,18,testing_2,zh2x,au,zh2x_au,zh2x_8_auxau.wav,zh2x_8_auxau.wav,,TRUE,FALSE,,,,,,,,,,,,,,f,0.371,space,0.6688,,,,,,,,0,136,136,17,1,,
5eac3dc896a6242689110c31,2023-06-16_10h17.57.655,phx_ver10,2022.2.5,Linux x86_64,60.0528465,,,,,,,,,,,,13,testing_2,zh2x,ai,zh2x_ai,zh2x_1_aizhai.wav,zh2x_1_aizhai.wav,,TRUE,FALSE,,,,,,,,,,,,,,f,0.441,space,0.7156,,,,,,,,0,137,137,12,1,,
5eac3dc896a6242689110c31,2023-06-16_10h17.57.655,phx_ver10,2022.2.5,Linux x86_64,60.0528465,,,,,,,,,,,,108,testing_3,sh2x,au,sh2x_au,sh2x_8_auxau.wav,sh2x_1_aushau.wav,,FALSE,FALSE,,,,,,,,,,,,,,f,0.1158,space,0.4004,,,,,,,,0,138,138,107,1,,
5eac3dc896a6242689110c31,2023-06-16_10h17.57.655,phx_ver10,2022.2.5,Linux x86_64,60.0528465,,,,,,,,,,,,64,testing_3,zh2j,e,zh2j_e,zh2j_8_eje.wav,zh2j_1_ezhe.wav,,FALSE,FALSE,,,,,,,,,,,,,,f,0.3832,space,0.6323,,,,,,,,0,139,139,63,1,,
5eac3dc896a6242689110c31,2023-06-16_10h17.57.655,phx_ver10,2022.2.5,Linux x86_64,60.0528465,,,,,,,,,,,,57,testing_3,zh2j,au,zh2j_au,zh2j_1_auzhau.wav,zh2j_1_auzhau.wav,,TRUE,FALSE,,,,,,,,,,,,,,f,0.2856,space,0.5305,,,,,,,,0,140,140,56,1,,
5eac3dc896a6242689110c31,2023-06-16_10h17.57.655,phx_ver10,2022.2.5,Linux x86_64,60.0528465,,,,,,,,,,,,126,testing_3,sh2j,ai,sh2j_ai,sh2j_8_aijai.wav,sh2j_8_aijai.wav,,TRUE,FALSE,,,,,,,,,,,,,,f,0.332,space,0.6181,,,,,,,,0,141,141,125,1,,
5eac3dc896a6242689110c31,2023-06-16_10h17.57.655,phx_ver10,2022.2.5,Linux x86_64,60.0528465,,,,,,,,,,,,48,testing_3,zh2sh,i,zh2sh_i,zh2sh_8_ishi.wav,zh2sh_1_izhi.wav,,FALSE,FALSE,,,,,,,,,,,,,,j,0.2941,space,0.5497,,,,,,,,0,142,142,47,1,,
5eac3dc896a6242689110c31,2023-06-16_10h17.57.655,phx_ver10,2022.2.5,Linux x86_64,60.0528465,,,,,,,,,,,,131,testing_3,sh2j,au,sh2j_au,sh2j_1_aushau.wav,sh2j_8_aujau.wav,,FALSE,FALSE,,,,,,,,,,,,,,j,0.3855,space,0.6368,,,,,,,,0,143,143,130,1,,
5eac3dc896a6242689110c31,2023-06-16_10h17.57.655,phx_ver10,2022.2.5,Linux x86_64,60.0528465,,,,,,,,,,,,,,,,,,,,,,,,,,,,,,,,,,,,,,,,,,,,,,,,,,,space,3.4976
