participant,date,expName,psychopyVersion,OS,frameRate,space_1.keys,space_1.rt,space_2.keys,space_2.rt,space_train.keys,space_train.rt,training.thisRepN,training.thisTrialN,training.thisN,training.thisIndex,training.ran,token_id,task,continuum,vowel,series,sound_1,sound_2,img,same,trained,FJ_attn.keys,FJ_attn.rt,space_attn.keys,space_attn.rt,if_attn_test.thisRepN,if_attn_test.thisTrialN,if_attn_test.thisN,if_attn_test.thisIndex,if_attn_test.ran,space_trans_1.keys,space_trans_1.rt,space_trans_11.keys,space_trans_11.rt,FJ_test.keys,FJ_test.rt,space_test.keys,space_test.rt,testing_pre.thisRepN,testing_pre.thisTrialN,testing_pre.thisN,testing_pre.thisIndex,testing_pre.ran,space_trans_2.keys,space_trans_2.rt,testing_all.thisRepN,testing_all.thisTrialN,testing_all.thisN,testing_all.thisIndex,testing_all.ran,space_ending.keys,space_ending.rt
5ebcb35ca857831117df7c04,2023-06-16_10h09.13.765,phx_ver10,2022.2.5,MacIntel,60.0024001,,,,,,,,,,,,,,,,,,,,,,,,,,,,,,,,,,,,,,,,,,,,,,,,,,,,
5ebcb35ca857831117df7c04,2023-06-16_10h09.13.765,phx_ver10,2022.2.5,MacIntel,60.0024001,space,1.6149,,,,,,,,,,,,,,,,,,,,,,,,,,,,,,,,,,,,,,,,,,,,,,,,,,
5ebcb35ca857831117df7c04,2023-06-16_10h09.13.765,phx_ver10,2022.2.5,MacIntel,60.0024001,,,space,40.4499,,,,,,,,,,,,,,,,,,,,,,,,,,,,,,,,,,,,,,,,,,,,,,,,
5ebcb35ca857831117df7c04,2023-06-16_10h09.13.765,phx_ver10,2022.2.5,MacIntel,60.0024001,,,,,space,2.2167,0,0,0,19,1,20,training,zh2x,e,zh2x_e,zh2x_2_ezhe.wav,,ezhe.jpg,,,,,,,,,,,,,,,,,,,,,,,,,,,,,,,,,
5ebcb35ca857831117df7c04,2023-06-16_10h09.13.765,phx_ver10,2022.2.5,MacIntel,60.0024001,,,,,space,0.9826,0,1,1,29,1,30,training,zh2x,e,zh2x_e,zh2x_7_exe.wav,,exe.jpg,,,,,,,,,,,,,,,,,,,,,,,,,,,,,,,,,
5ebcb35ca857831117df7c04,2023-06-16_10h09.13.765,phx_ver10,2022.2.5,MacIntel,60.0024001,,,,,space,0.9995,0,2,2,4,1,5,training,zh2x,a,zh2x_a,zh2x_2_azha.wav,,azha.jpg,,,,,,,,,,,,,,,,,,,,,,,,,,,,,,,,,
5ebcb35ca857831117df7c04,2023-06-16_10h09.13.765,phx_ver10,2022.2.5,MacIntel,60.0024001,,,,,space,0.534,0,3,3,40,1,41,training,zh2x,i,zh2x_i,zh2x_5_ixi.wav,,ixi.jpg,,,,,,,,,,,,,,,,,,,,,,,,,,,,,,,,,
5ebcb35ca857831117df7c04,2023-06-16_10h09.13.765,phx_ver10,2022.2.5,MacIntel,60.0024001,,,,,space,1.0342,0,4,4,34,1,35,training,zh2x,i,zh2x_i,zh2x_2_izhi.wav,,izhi.jpg,,,,,,,,,,,,,,,,,,,,,,,,,,,,,,,,,
5ebcb35ca857831117df7c04,2023-06-16_10h09.13.765,phx_ver10,2022.2.5,MacIntel,60.0024001,,,,,space,0.8592,0,5,5,36,1,37,training,zh2x,i,zh2x_i,zh2x_2_izhi.wav,,izhi.jpg,,,,,,,,,,,,,,,,,,,,,,,,,,,,,,,,,
5ebcb35ca857831117df7c04,2023-06-16_10h09.13.765,phx_ver10,2022.2.5,MacIntel,60.0024001,,,,,,,,,,,,,attn_test,,,,zh2x_1_azha.wav,zh2x_1_izhi.wav,azha.jpg,LEFT,,f,2.1669,space,3.7977,0,0,0,0,1,,,,,,,,,,,,,,,,,,,,,,
5ebcb35ca857831117df7c04,2023-06-16_10h09.13.765,phx_ver10,2022.2.5,MacIntel,60.0024001,,,,,space,1.5841,0,6,6,2,1,3,training,zh2x,a,zh2x_a,zh2x_2_azha.wav,,azha.jpg,,,,,,,,,,,,,,,,,,,,,,,,,,,,,,,,,
5ebcb35ca857831117df7c04,2023-06-16_10h09.13.765,phx_ver10,2022.2.5,MacIntel,60.0024001,,,,,space,1.9183,0,7,7,13,1,14,training,zh2x,a,zh2x_a,zh2x_7_axa.wav,,axa.jpg,,,,,,,,,,,,,,,,,,,,,,,,,,,,,,,,,
5ebcb35ca857831117df7c04,2023-06-16_10h09.13.765,phx_ver10,2022.2.5,MacIntel,60.0024001,,,,,space,0.5661,0,8,8,12,1,13,training,zh2x,a,zh2x_a,zh2x_7_axa.wav,,axa.jpg,,,,,,,,,,,,,,,,,,,,,,,,,,,,,,,,,
5ebcb35ca857831117df7c04,2023-06-16_10h09.13.765,phx_ver10,2022.2.5,MacIntel,60.0024001,,,,,space,0.5849,0,9,9,10,1,11,training,zh2x,a,zh2x_a,zh2x_6_axa.wav,,axa.jpg,,,,,,,,,,,,,,,,,,,,,,,,,,,,,,,,,
5ebcb35ca857831117df7c04,2023-06-16_10h09.13.765,phx_ver10,2022.2.5,MacIntel,60.0024001,,,,,space,0.8834,0,10,10,32,1,33,training,zh2x,i,zh2x_i,zh2x_1_izhi.wav,,izhi.jpg,,,,,,,,,,,,,,,,,,,,,,,,,,,,,,,,,
5ebcb35ca857831117df7c04,2023-06-16_10h09.13.765,phx_ver10,2022.2.5,MacIntel,60.0024001,,,,,space,0.3844,0,11,11,9,1,10,training,zh2x,a,zh2x_a,zh2x_6_axa.wav,,axa.jpg,,,,,,,,,,,,,,,,,,,,,,,,,,,,,,,,,
5ebcb35ca857831117df7c04,2023-06-16_10h09.13.765,phx_ver10,2022.2.5,MacIntel,60.0024001,,,,,,,,,,,,,attn_test,,,,zh2x_8_axa.wav,zh2x_8_ixi.wav,axa.jpg,LEFT,,f,0.3999,space,1.4645,0,0,0,0,1,,,,,,,,,,,,,,,,,,,,,,
5ebcb35ca857831117df7c04,2023-06-16_10h09.13.765,phx_ver10,2022.2.5,MacIntel,60.0024001,,,,,space,1.0492,0,12,12,7,1,8,training,zh2x,a,zh2x_a,zh2x_4_azha.wav,,azha.jpg,,,,,,,,,,,,,,,,,,,,,,,,,,,,,,,,,
5ebcb35ca857831117df7c04,2023-06-16_10h09.13.765,phx_ver10,2022.2.5,MacIntel,60.0024001,,,,,space,0.4437,0,13,13,31,1,32,training,zh2x,e,zh2x_e,zh2x_8_exe.wav,,exe.jpg,,,,,,,,,,,,,,,,,,,,,,,,,,,,,,,,,
5ebcb35ca857831117df7c04,2023-06-16_10h09.13.765,phx_ver10,2022.2.5,MacIntel,60.0024001,,,,,space,0.3343,0,14,14,1,1,2,training,zh2x,a,zh2x_a,zh2x_2_azha.wav,,azha.jpg,,,,,,,,,,,,,,,,,,,,,,,,,,,,,,,,,
5ebcb35ca857831117df7c04,2023-06-16_10h09.13.765,phx_ver10,2022.2.5,MacIntel,60.0024001,,,,,space,1.5887,0,15,15,47,1,48,training,zh2x,i,zh2x_i,zh2x_8_ixi.wav,,ixi.jpg,,,,,,,,,,,,,,,,,,,,,,,,,,,,,,,,,
5ebcb35ca857831117df7c04,2023-06-16_10h09.13.765,phx_ver10,2022.2.5,MacIntel,60.0024001,,,,,space,0.2339,0,16,16,17,1,18,training,zh2x,e,zh2x_e,zh2x_2_ezhe.wav,,ezhe.jpg,,,,,,,,,,,,,,,,,,,,,,,,,,,,,,,,,
5ebcb35ca857831117df7c04,2023-06-16_10h09.13.765,phx_ver10,2022.2.5,MacIntel,60.0024001,,,,,space,0.1691,0,17,17,44,1,45,training,zh2x,i,zh2x_i,zh2x_7_ixi.wav,,ixi.jpg,,,,,,,,,,,,,,,,,,,,,,,,,,,,,,,,,
5ebcb35ca857831117df7c04,2023-06-16_10h09.13.765,phx_ver10,2022.2.5,MacIntel,60.0024001,,,,,,,,,,,,,attn_test,,,,zh2x_8_ixi.wav,zh2x_1_azha.wav,azha.jpg,RIGHT,,j,0.651,space,1.6337,0,0,0,0,1,,,,,,,,,,,,,,,,,,,,,,
5ebcb35ca857831117df7c04,2023-06-16_10h09.13.765,phx_ver10,2022.2.5,MacIntel,60.0024001,,,,,space,2.4174,0,18,18,38,1,39,training,zh2x,i,zh2x_i,zh2x_3_izhi.wav,,izhi.jpg,,,,,,,,,,,,,,,,,,,,,,,,,,,,,,,,,
5ebcb35ca857831117df7c04,2023-06-16_10h09.13.765,phx_ver10,2022.2.5,MacIntel,60.0024001,,,,,space,4.9197,0,19,19,5,1,6,training,zh2x,a,zh2x_a,zh2x_3_azha.wav,,azha.jpg,,,,,,,,,,,,,,,,,,,,,,,,,,,,,,,,,
5ebcb35ca857831117df7c04,2023-06-16_10h09.13.765,phx_ver10,2022.2.5,MacIntel,60.0024001,,,,,space,0.7991,0,20,20,33,1,34,training,zh2x,i,zh2x_i,zh2x_2_izhi.wav,,izhi.jpg,,,,,,,,,,,,,,,,,,,,,,,,,,,,,,,,,
5ebcb35ca857831117df7c04,2023-06-16_10h09.13.765,phx_ver10,2022.2.5,MacIntel,60.0024001,,,,,space,0.6689,0,21,21,46,1,47,training,zh2x,i,zh2x_i,zh2x_7_ixi.wav,,ixi.jpg,,,,,,,,,,,,,,,,,,,,,,,,,,,,,,,,,
5ebcb35ca857831117df7c04,2023-06-16_10h09.13.765,phx_ver10,2022.2.5,MacIntel,60.0024001,,,,,space,0.4008,0,22,22,0,1,1,training,zh2x,a,zh2x_a,zh2x_1_azha.wav,,azha.jpg,,,,,,,,,,,,,,,,,,,,,,,,,,,,,,,,,
5ebcb35ca857831117df7c04,2023-06-16_10h09.13.765,phx_ver10,2022.2.5,MacIntel,60.0024001,,,,,space,0.3678,0,23,23,25,1,26,training,zh2x,e,zh2x_e,zh2x_6_exe.wav,,exe.jpg,,,,,,,,,,,,,,,,,,,,,,,,,,,,,,,,,
5ebcb35ca857831117df7c04,2023-06-16_10h09.13.765,phx_ver10,2022.2.5,MacIntel,60.0024001,,,,,,,,,,,,,attn_test,,,,zh2x_1_azha.wav,zh2x_8_exe.wav,azha.jpg,LEFT,,f,0.0153,space,0.7996,0,0,0,0,1,,,,,,,,,,,,,,,,,,,,,,
5ebcb35ca857831117df7c04,2023-06-16_10h09.13.765,phx_ver10,2022.2.5,MacIntel,60.0024001,,,,,space,1.5002,0,24,24,35,1,36,training,zh2x,i,zh2x_i,zh2x_2_izhi.wav,,izhi.jpg,,,,,,,,,,,,,,,,,,,,,,,,,,,,,,,,,
5ebcb35ca857831117df7c04,2023-06-16_10h09.13.765,phx_ver10,2022.2.5,MacIntel,60.0024001,,,,,space,0.4012,0,25,25,15,1,16,training,zh2x,a,zh2x_a,zh2x_8_axa.wav,,axa.jpg,,,,,,,,,,,,,,,,,,,,,,,,,,,,,,,,,
5ebcb35ca857831117df7c04,2023-06-16_10h09.13.765,phx_ver10,2022.2.5,MacIntel,60.0024001,,,,,space,0.5412,0,26,26,3,1,4,training,zh2x,a,zh2x_a,zh2x_2_azha.wav,,azha.jpg,,,,,,,,,,,,,,,,,,,,,,,,,,,,,,,,,
5ebcb35ca857831117df7c04,2023-06-16_10h09.13.765,phx_ver10,2022.2.5,MacIntel,60.0024001,,,,,space,0.9761,0,27,27,43,1,44,training,zh2x,i,zh2x_i,zh2x_7_ixi.wav,,ixi.jpg,,,,,,,,,,,,,,,,,,,,,,,,,,,,,,,,,
5ebcb35ca857831117df7c04,2023-06-16_10h09.13.765,phx_ver10,2022.2.5,MacIntel,60.0024001,,,,,space,0.9005,0,28,28,14,1,15,training,zh2x,a,zh2x_a,zh2x_7_axa.wav,,axa.jpg,,,,,,,,,,,,,,,,,,,,,,,,,,,,,,,,,
5ebcb35ca857831117df7c04,2023-06-16_10h09.13.765,phx_ver10,2022.2.5,MacIntel,60.0024001,,,,,space,0.5341,0,29,29,42,1,43,training,zh2x,i,zh2x_i,zh2x_6_ixi.wav,,ixi.jpg,,,,,,,,,,,,,,,,,,,,,,,,,,,,,,,,,
5ebcb35ca857831117df7c04,2023-06-16_10h09.13.765,phx_ver10,2022.2.5,MacIntel,60.0024001,,,,,,,,,,,,,attn_test,,,,zh2x_1_izhi.wav,zh2x_1_ezhe.wav,izhi.jpg,LEFT,,f,0.1669,space,0.5471,0,0,0,0,1,,,,,,,,,,,,,,,,,,,,,,
5ebcb35ca857831117df7c04,2023-06-16_10h09.13.765,phx_ver10,2022.2.5,MacIntel,60.0024001,,,,,space,0.3766,0,30,30,30,1,31,training,zh2x,e,zh2x_e,zh2x_7_exe.wav,,exe.jpg,,,,,,,,,,,,,,,,,,,,,,,,,,,,,,,,,
5ebcb35ca857831117df7c04,2023-06-16_10h09.13.765,phx_ver10,2022.2.5,MacIntel,60.0024001,,,,,space,0.2414,0,31,31,20,1,21,training,zh2x,e,zh2x_e,zh2x_2_ezhe.wav,,ezhe.jpg,,,,,,,,,,,,,,,,,,,,,,,,,,,,,,,,,
5ebcb35ca857831117df7c04,2023-06-16_10h09.13.765,phx_ver10,2022.2.5,MacIntel,60.0024001,,,,,space,0.2177,0,32,32,6,1,7,training,zh2x,a,zh2x_a,zh2x_3_azha.wav,,azha.jpg,,,,,,,,,,,,,,,,,,,,,,,,,,,,,,,,,
5ebcb35ca857831117df7c04,2023-06-16_10h09.13.765,phx_ver10,2022.2.5,MacIntel,60.0024001,,,,,space,0.2924,0,33,33,24,1,25,training,zh2x,e,zh2x_e,zh2x_5_exe.wav,,exe.jpg,,,,,,,,,,,,,,,,,,,,,,,,,,,,,,,,,
5ebcb35ca857831117df7c04,2023-06-16_10h09.13.765,phx_ver10,2022.2.5,MacIntel,60.0024001,,,,,space,0.3673,0,34,34,41,1,42,training,zh2x,i,zh2x_i,zh2x_6_ixi.wav,,ixi.jpg,,,,,,,,,,,,,,,,,,,,,,,,,,,,,,,,,
5ebcb35ca857831117df7c04,2023-06-16_10h09.13.765,phx_ver10,2022.2.5,MacIntel,60.0024001,,,,,space,0.0181,0,35,35,23,1,24,training,zh2x,e,zh2x_e,zh2x_4_ezhe.wav,,ezhe.jpg,,,,,,,,,,,,,,,,,,,,,,,,,,,,,,,,,
5ebcb35ca857831117df7c04,2023-06-16_10h09.13.765,phx_ver10,2022.2.5,MacIntel,60.0024001,,,,,,,,,,,,,attn_test,,,,zh2x_8_exe.wav,zh2x_1_izhi.wav,exe.jpg,LEFT,,f,0.0667,space,0.5834,0,0,0,0,1,,,,,,,,,,,,,,,,,,,,,,
5ebcb35ca857831117df7c04,2023-06-16_10h09.13.765,phx_ver10,2022.2.5,MacIntel,60.0024001,,,,,space,0.5859,0,36,36,22,1,23,training,zh2x,e,zh2x_e,zh2x_3_ezhe.wav,,ezhe.jpg,,,,,,,,,,,,,,,,,,,,,,,,,,,,,,,,,
5ebcb35ca857831117df7c04,2023-06-16_10h09.13.765,phx_ver10,2022.2.5,MacIntel,60.0024001,,,,,space,0.2506,0,37,37,16,1,17,training,zh2x,e,zh2x_e,zh2x_1_ezhe.wav,,ezhe.jpg,,,,,,,,,,,,,,,,,,,,,,,,,,,,,,,,,
5ebcb35ca857831117df7c04,2023-06-16_10h09.13.765,phx_ver10,2022.2.5,MacIntel,60.0024001,,,,,space,0.3503,0,38,38,37,1,38,training,zh2x,i,zh2x_i,zh2x_3_izhi.wav,,izhi.jpg,,,,,,,,,,,,,,,,,,,,,,,,,,,,,,,,,
5ebcb35ca857831117df7c04,2023-06-16_10h09.13.765,phx_ver10,2022.2.5,MacIntel,60.0024001,,,,,space,0.1009,0,39,39,39,1,40,training,zh2x,i,zh2x_i,zh2x_4_izhi.wav,,izhi.jpg,,,,,,,,,,,,,,,,,,,,,,,,,,,,,,,,,
5ebcb35ca857831117df7c04,2023-06-16_10h09.13.765,phx_ver10,2022.2.5,MacIntel,60.0024001,,,,,space,0.5805,0,40,40,45,1,46,training,zh2x,i,zh2x_i,zh2x_7_ixi.wav,,ixi.jpg,,,,,,,,,,,,,,,,,,,,,,,,,,,,,,,,,
5ebcb35ca857831117df7c04,2023-06-16_10h09.13.765,phx_ver10,2022.2.5,MacIntel,60.0024001,,,,,space,0.3008,0,41,41,8,1,9,training,zh2x,a,zh2x_a,zh2x_5_axa.wav,,axa.jpg,,,,,,,,,,,,,,,,,,,,,,,,,,,,,,,,,
5ebcb35ca857831117df7c04,2023-06-16_10h09.13.765,phx_ver10,2022.2.5,MacIntel,60.0024001,,,,,,,,,,,,,attn_test,,,,zh2x_8_axa.wav,zh2x_1_ezhe.wav,axa.jpg,LEFT,,f,0.3572,space,0.7538,0,0,0,0,1,,,,,,,,,,,,,,,,,,,,,,
5ebcb35ca857831117df7c04,2023-06-16_10h09.13.765,phx_ver10,2022.2.5,MacIntel,60.0024001,,,,,space,0.4985,0,42,42,26,1,27,training,zh2x,e,zh2x_e,zh2x_6_exe.wav,,exe.jpg,,,,,,,,,,,,,,,,,,,,,,,,,,,,,,,,,
5ebcb35ca857831117df7c04,2023-06-16_10h09.13.765,phx_ver10,2022.2.5,MacIntel,60.0024001,,,,,space,0.4528,0,43,43,11,1,12,training,zh2x,a,zh2x_a,zh2x_7_axa.wav,,axa.jpg,,,,,,,,,,,,,,,,,,,,,,,,,,,,,,,,,
5ebcb35ca857831117df7c04,2023-06-16_10h09.13.765,phx_ver10,2022.2.5,MacIntel,60.0024001,,,,,space,0.267,0,44,44,27,1,28,training,zh2x,e,zh2x_e,zh2x_7_exe.wav,,exe.jpg,,,,,,,,,,,,,,,,,,,,,,,,,,,,,,,,,
5ebcb35ca857831117df7c04,2023-06-16_10h09.13.765,phx_ver10,2022.2.5,MacIntel,60.0024001,,,,,space,0.1432,0,45,45,28,1,29,training,zh2x,e,zh2x_e,zh2x_7_exe.wav,,exe.jpg,,,,,,,,,,,,,,,,,,,,,,,,,,,,,,,,,
5ebcb35ca857831117df7c04,2023-06-16_10h09.13.765,phx_ver10,2022.2.5,MacIntel,60.0024001,,,,,space,0.4016,0,46,46,21,1,22,training,zh2x,e,zh2x_e,zh2x_3_ezhe.wav,,ezhe.jpg,,,,,,,,,,,,,,,,,,,,,,,,,,,,,,,,,
5ebcb35ca857831117df7c04,2023-06-16_10h09.13.765,phx_ver10,2022.2.5,MacIntel,60.0024001,,,,,space,0.1006,0,47,47,18,1,19,training,zh2x,e,zh2x_e,zh2x_2_ezhe.wav,,ezhe.jpg,,,,,,,,,,,,,,,,,,,,,,,,,,,,,,,,,
5ebcb35ca857831117df7c04,2023-06-16_10h09.13.765,phx_ver10,2022.2.5,MacIntel,60.0024001,,,,,,,,,,,,,attn_test,,,,zh2x_1_izhi.wav,zh2x_1_ezhe.wav,ezhe.jpg,RIGHT,,j,0.5365,space,1.1022,,,,,,,,,,,,,,,,,,,,,,,,,,,
5ebcb35ca857831117df7c04,2023-06-16_10h09.13.765,phx_ver10,2022.2.5,MacIntel,60.0024001,,,,,,,,,,,,,,,,,,,,,,,,,,,,,,,space,0.6174,,,,,,,,,,,,,,,,,,,,
5ebcb35ca857831117df7c04,2023-06-16_10h09.13.765,phx_ver10,2022.2.5,MacIntel,60.0024001,,,,,,,,,,,,,,,,,,,,,,,,,,,,,,,,,space,3.7328,,,,,,,,,,,,,,,,,,
5ebcb35ca857831117df7c04,2023-06-16_10h09.13.765,phx_ver10,2022.2.5,MacIntel,60.0024001,,,,,,,,,,,,1,testing_pre,,,,ifi.wav,ifi.wav,,TRUE,,,,,,,,,,,,,,,f,3.3037,space,3.8022,0,0,0,0,1,,,,,,,,,
5ebcb35ca857831117df7c04,2023-06-16_10h09.13.765,phx_ver10,2022.2.5,MacIntel,60.0024001,,,,,,,,,,,,5,testing_pre,,,,ihi.wav,ifi.wav,,FALSE,,,,,,,,,,,,,,,f,1.1671,space,1.7151,0,1,1,4,1,,,,,,,,,
5ebcb35ca857831117df7c04,2023-06-16_10h09.13.765,phx_ver10,2022.2.5,MacIntel,60.0024001,,,,,,,,,,,,4,testing_pre,,,,eihei.wav,eihei.wav,,TRUE,,,,,,,,,,,,,,,f,0.3684,space,0.9666,0,2,2,3,1,,,,,,,,,
5ebcb35ca857831117df7c04,2023-06-16_10h09.13.765,phx_ver10,2022.2.5,MacIntel,60.0024001,,,,,,,,,,,,2,testing_pre,,,,auhau.wav,aufau.wav,,FALSE,,,,,,,,,,,,,,,j,0.9351,space,1.4358,0,3,3,1,1,,,,,,,,,
5ebcb35ca857831117df7c04,2023-06-16_10h09.13.765,phx_ver10,2022.2.5,MacIntel,60.0024001,,,,,,,,,,,,3,testing_pre,,,,afa.wav,aha.wav,,FALSE,,,,,,,,,,,,,,,j,0.5509,space,1.1338,0,4,4,2,1,,,,,,,,,
5ebcb35ca857831117df7c04,2023-06-16_10h09.13.765,phx_ver10,2022.2.5,MacIntel,60.0024001,,,,,,,,,,,,,,,,,,,,,,,,,,,,,,,,,,,,,,,,,,,,space,0.534,,,,,,,
5ebcb35ca857831117df7c04,2023-06-16_10h09.13.765,phx_ver10,2022.2.5,MacIntel,60.0024001,,,,,,,,,,,,71,testing_3,zh2j,i,zh2j_i,zh2j_1_izhi.wav,zh2j_8_iji.wav,,FALSE,FALSE,,,,,,,,,,,,,,f,0.385,space,0.868,,,,,,,,0,0,0,70,1,,
5ebcb35ca857831117df7c04,2023-06-16_10h09.13.765,phx_ver10,2022.2.5,MacIntel,60.0024001,,,,,,,,,,,,25,testing_3,zh2sh,a,zh2sh_a,zh2sh_1_azha.wav,zh2sh_1_azha.wav,,TRUE,FALSE,,,,,,,,,,,,,,f,0.0831,space,0.6176,,,,,,,,0,1,1,24,1,,
5ebcb35ca857831117df7c04,2023-06-16_10h09.13.765,phx_ver10,2022.2.5,MacIntel,60.0024001,,,,,,,,,,,,72,testing_3,zh2j,i,zh2j_i,zh2j_8_iji.wav,zh2j_1_izhi.wav,,FALSE,FALSE,,,,,,,,,,,,,,f,0.2709,space,0.6866,,,,,,,,0,2,2,71,1,,
5ebcb35ca857831117df7c04,2023-06-16_10h09.13.765,phx_ver10,2022.2.5,MacIntel,60.0024001,,,,,,,,,,,,49,testing_3,zh2j,a,zh2j_a,zh2j_1_azha.wav,zh2j_1_azha.wav,,TRUE,FALSE,,,,,,,,,,,,,,f,0.1356,space,0.6153,,,,,,,,0,3,3,48,1,,
5ebcb35ca857831117df7c04,2023-06-16_10h09.13.765,phx_ver10,2022.2.5,MacIntel,60.0024001,,,,,,,,,,,,142,testing_3,sh2j,i,sh2j_i,sh2j_8_iji.wav,sh2j_8_iji.wav,,TRUE,FALSE,,,,,,,,,,,,,,f,0.7696,space,1.4187,,,,,,,,0,4,4,141,1,,
5ebcb35ca857831117df7c04,2023-06-16_10h09.13.765,phx_ver10,2022.2.5,MacIntel,60.0024001,,,,,,,,,,,,46,testing_3,zh2sh,i,zh2sh_i,zh2sh_8_ishi.wav,zh2sh_8_ishi.wav,,TRUE,FALSE,,,,,,,,,,,,,,f,0.3343,space,0.8505,,,,,,,,0,5,5,45,1,,
5ebcb35ca857831117df7c04,2023-06-16_10h09.13.765,phx_ver10,2022.2.5,MacIntel,60.0024001,,,,,,,,,,,,42,testing_3,zh2sh,ei,zh2sh_ei,zh2sh_8_eishei.wav,zh2sh_8_eishei.wav,,TRUE,FALSE,,,,,,,,,,,,,,f,0.1831,space,0.7841,,,,,,,,0,6,6,41,1,,
5ebcb35ca857831117df7c04,2023-06-16_10h09.13.765,phx_ver10,2022.2.5,MacIntel,60.0024001,,,,,,,,,,,,48,testing_3,zh2sh,i,zh2sh_i,zh2sh_8_ishi.wav,zh2sh_1_izhi.wav,,FALSE,FALSE,,,,,,,,,,,,,,j,0.4683,space,1.1353,,,,,,,,0,7,7,47,1,,
5ebcb35ca857831117df7c04,2023-06-16_10h09.13.765,phx_ver10,2022.2.5,MacIntel,60.0024001,,,,,,,,,,,,81,testing_3,j2x,au,j2x_au,j2x_1_aujau.wav,j2x_1_aujau.wav,,TRUE,FALSE,,,,,,,,,,,,,,f,0.1187,space,0.7857,,,,,,,,0,8,8,80,1,,
5ebcb35ca857831117df7c04,2023-06-16_10h09.13.765,phx_ver10,2022.2.5,MacIntel,60.0024001,,,,,,,,,,,,11,testing_1,zh2x,i,zh2x_i,zh2x_1_izhi.wav,zh2x_8_ixi.wav,,FALSE,TRUE,,,,,,,,,,,,,,j,0.6507,space,1.0992,,,,,,,,0,9,9,10,1,,
5ebcb35ca857831117df7c04,2023-06-16_10h09.13.765,phx_ver10,2022.2.5,MacIntel,60.0024001,,,,,,,,,,,,58,testing_3,zh2j,au,zh2j_au,zh2j_8_aujau.wav,zh2j_8_aujau.wav,,TRUE,FALSE,,,,,,,,,,,,,,f,0.5671,space,0.9577,,,,,,,,0,10,10,57,1,,
5ebcb35ca857831117df7c04,2023-06-16_10h09.13.765,phx_ver10,2022.2.5,MacIntel,60.0024001,,,,,,,,,,,,136,testing_3,sh2j,e,sh2j_e,sh2j_8_eje.wav,sh2j_1_eshe.wav,,FALSE,FALSE,,,,,,,,,,,,,,j,0.5091,space,1.0169,,,,,,,,0,11,11,135,1,,
5ebcb35ca857831117df7c04,2023-06-16_10h09.13.765,phx_ver10,2022.2.5,MacIntel,60.0024001,,,,,,,,,,,,40,testing_3,zh2sh,e,zh2sh_e,zh2sh_8_eshe.wav,zh2sh_1_ezhe.wav,,FALSE,FALSE,,,,,,,,,,,,,,j,1.6684,space,2.0855,,,,,,,,0,12,12,39,1,,
5ebcb35ca857831117df7c04,2023-06-16_10h09.13.765,phx_ver10,2022.2.5,MacIntel,60.0024001,,,,,,,,,,,,7,testing_1,zh2x,e,zh2x_e,zh2x_1_ezhe.wav,zh2x_8_exe.wav,,FALSE,TRUE,,,,,,,,,,,,,,j,0.8853,space,1.2165,,,,,,,,0,13,13,6,1,,
5ebcb35ca857831117df7c04,2023-06-16_10h09.13.765,phx_ver10,2022.2.5,MacIntel,60.0024001,,,,,,,,,,,,64,testing_3,zh2j,e,zh2j_e,zh2j_8_eje.wav,zh2j_1_ezhe.wav,,FALSE,FALSE,,,,,,,,,,,,,,f,0.4517,space,0.8153,,,,,,,,0,14,14,63,1,,
5ebcb35ca857831117df7c04,2023-06-16_10h09.13.765,phx_ver10,2022.2.5,MacIntel,60.0024001,,,,,,,,,,,,50,testing_3,zh2j,a,zh2j_a,zh2j_8_aja.wav,zh2j_8_aja.wav,,TRUE,FALSE,,,,,,,,,,,,,,f,0.0509,space,0.6503,,,,,,,,0,15,15,49,1,,
5ebcb35ca857831117df7c04,2023-06-16_10h09.13.765,phx_ver10,2022.2.5,MacIntel,60.0024001,,,,,,,,,,,,59,testing_3,zh2j,au,zh2j_au,zh2j_1_auzhau.wav,zh2j_8_aujau.wav,,FALSE,FALSE,,,,,,,,,,,,,,f,0.3001,space,0.6979,,,,,,,,0,16,16,58,1,,
5ebcb35ca857831117df7c04,2023-06-16_10h09.13.765,phx_ver10,2022.2.5,MacIntel,60.0024001,,,,,,,,,,,,39,testing_3,zh2sh,e,zh2sh_e,zh2sh_1_ezhe.wav,zh2sh_8_eshe.wav,,FALSE,FALSE,,,,,,,,,,,,,,j,0.4351,space,0.8575,,,,,,,,0,17,17,38,1,,
5ebcb35ca857831117df7c04,2023-06-16_10h09.13.765,phx_ver10,2022.2.5,MacIntel,60.0024001,,,,,,,,,,,,60,testing_3,zh2j,au,zh2j_au,zh2j_8_aujau.wav,zh2j_1_auzhau.wav,,FALSE,FALSE,,,,,,,,,,,,,,f,0.1667,space,0.5291,,,,,,,,0,18,18,59,1,,
5ebcb35ca857831117df7c04,2023-06-16_10h09.13.765,phx_ver10,2022.2.5,MacIntel,60.0024001,,,,,,,,,,,,137,testing_3,sh2j,ei,sh2j_ei,sh2j_1_eishei.wav,sh2j_1_eishei.wav,,TRUE,FALSE,,,,,,,,,,,,,,f,0.2521,space,0.7363,,,,,,,,0,19,19,136,1,,
5ebcb35ca857831117df7c04,2023-06-16_10h09.13.765,phx_ver10,2022.2.5,MacIntel,60.0024001,,,,,,,,,,,,67,testing_3,zh2j,ei,zh2j_ei,zh2j_1_eizhei.wav,zh2j_8_eijei.wav,,FALSE,FALSE,,,,,,,,,,,,,,f,0.3024,space,0.6181,,,,,,,,0,20,20,66,1,,
5ebcb35ca857831117df7c04,2023-06-16_10h09.13.765,phx_ver10,2022.2.5,MacIntel,60.0024001,,,,,,,,,,,,94,testing_3,j2x,i,j2x_i,j2x_8_ixi.wav,j2x_8_ixi.wav,,TRUE,FALSE,,,,,,,,,,,,,,f,0.1174,space,0.6172,,,,,,,,0,21,21,93,1,,
5ebcb35ca857831117df7c04,2023-06-16_10h09.13.765,phx_ver10,2022.2.5,MacIntel,60.0024001,,,,,,,,,,,,118,testing_3,sh2x,i,sh2x_i,sh2x_8_ixi.wav,sh2x_8_ixi.wav,,TRUE,FALSE,,,,,,,,,,,,,,f,0.0171,space,0.382,,,,,,,,0,22,22,117,1,,
5ebcb35ca857831117df7c04,2023-06-16_10h09.13.765,phx_ver10,2022.2.5,MacIntel,60.0024001,,,,,,,,,,,,138,testing_3,sh2j,ei,sh2j_ei,sh2j_8_eijei.wav,sh2j_8_eijei.wav,,TRUE,FALSE,,,,,,,,,,,,,,f,0.049,space,0.4155,,,,,,,,0,23,23,137,1,,
5ebcb35ca857831117df7c04,2023-06-16_10h09.13.765,phx_ver10,2022.2.5,MacIntel,60.0024001,,,,,,,,,,,,63,testing_3,zh2j,e,zh2j_e,zh2j_1_ezhe.wav,zh2j_8_eje.wav,,FALSE,FALSE,,,,,,,,,,,,,,f,0.1004,space,0.5661,,,,,,,,0,24,24,62,1,,
5ebcb35ca857831117df7c04,2023-06-16_10h09.13.765,phx_ver10,2022.2.5,MacIntel,60.0024001,,,,,,,,,,,,144,testing_3,sh2j,i,sh2j_i,sh2j_8_iji.wav,sh2j_1_ishi.wav,,FALSE,FALSE,,,,,,,,,,,,,,j,0.3168,space,0.6692,,,,,,,,0,25,25,143,1,,
5ebcb35ca857831117df7c04,2023-06-16_10h09.13.765,phx_ver10,2022.2.5,MacIntel,60.0024001,,,,,,,,,,,,121,testing_3,sh2j,a,sh2j_a,sh2j_1_asha.wav,sh2j_1_asha.wav,,TRUE,FALSE,,,,,,,,,,,,,,f,0.101,space,0.5718,,,,,,,,0,26,26,120,1,,
5ebcb35ca857831117df7c04,2023-06-16_10h09.13.765,phx_ver10,2022.2.5,MacIntel,60.0024001,,,,,,,,,,,,62,testing_3,zh2j,e,zh2j_e,zh2j_8_eje.wav,zh2j_8_eje.wav,,TRUE,FALSE,,,,,,,,,,,,,,f,0.0076,space,0.5083,,,,,,,,0,27,27,61,1,,
5ebcb35ca857831117df7c04,2023-06-16_10h09.13.765,phx_ver10,2022.2.5,MacIntel,60.0024001,,,,,,,,,,,,105,testing_3,sh2x,au,sh2x_au,sh2x_1_aushau.wav,sh2x_1_aushau.wav,,TRUE,FALSE,,,,,,,,,,,,,,f,0.6219,space,0.9887,,,,,,,,0,28,28,104,1,,
5ebcb35ca857831117df7c04,2023-06-16_10h09.13.765,phx_ver10,2022.2.5,MacIntel,60.0024001,,,,,,,,,,,,2,testing_1,zh2x,a,zh2x_a,zh2x_8_axa.wav,zh2x_8_axa_copy.wav,,TRUE,TRUE,,,,,,,,,,,,,,f,0.0006,space,0.4339,,,,,,,,0,29,29,1,1,,
5ebcb35ca857831117df7c04,2023-06-16_10h09.13.765,phx_ver10,2022.2.5,MacIntel,60.0024001,,,,,,,,,,,,83,testing_3,j2x,au,j2x_au,j2x_1_aujau.wav,j2x_8_auxau.wav,,FALSE,FALSE,,,,,,,,,,,,,,j,0.3814,space,0.7993,,,,,,,,0,30,30,82,1,,
5ebcb35ca857831117df7c04,2023-06-16_10h09.13.765,phx_ver10,2022.2.5,MacIntel,60.0024001,,,,,,,,,,,,127,testing_3,sh2j,ai,sh2j_ai,sh2j_1_aishai.wav,sh2j_8_aijai.wav,,FALSE,FALSE,,,,,,,,,,,,,,j,0.2351,space,0.5852,,,,,,,,0,31,31,126,1,,
5ebcb35ca857831117df7c04,2023-06-16_10h09.13.765,phx_ver10,2022.2.5,MacIntel,60.0024001,,,,,,,,,,,,56,testing_3,zh2j,ai,zh2j_ai,zh2j_8_aijai.wav,zh2j_1_aizhai.wav,,FALSE,FALSE,,,,,,,,,,,,,,f,0.0669,space,0.4338,,,,,,,,0,32,32,55,1,,
5ebcb35ca857831117df7c04,2023-06-16_10h09.13.765,phx_ver10,2022.2.5,MacIntel,60.0024001,,,,,,,,,,,,53,testing_3,zh2j,ai,zh2j_ai,zh2j_1_aizhai.wav,zh2j_1_aizhai.wav,,TRUE,FALSE,,,,,,,,,,,,,,f,0.1829,space,0.5846,,,,,,,,0,33,33,52,1,,
5ebcb35ca857831117df7c04,2023-06-16_10h09.13.765,phx_ver10,2022.2.5,MacIntel,60.0024001,,,,,,,,,,,,13,testing_2,zh2x,ai,zh2x_ai,zh2x_1_aizhai.wav,zh2x_1_aizhai.wav,,TRUE,FALSE,,,,,,,,,,,,,,f,0.1503,space,1.3997,,,,,,,,0,34,34,12,1,,
5ebcb35ca857831117df7c04,2023-06-16_10h09.13.765,phx_ver10,2022.2.5,MacIntel,60.0024001,,,,,,,,,,,,87,testing_3,j2x,e,j2x_e,j2x_1_eje.wav,j2x_8_exe.wav,,FALSE,FALSE,,,,,,,,,,,,,,j,0.2705,space,0.6763,,,,,,,,0,35,35,86,1,,
5ebcb35ca857831117df7c04,2023-06-16_10h09.13.765,phx_ver10,2022.2.5,MacIntel,60.0024001,,,,,,,,,,,,96,testing_3,j2x,i,j2x_i,j2x_8_ixi.wav,j2x_1_iji.wav,,FALSE,FALSE,,,,,,,,,,,,,,j,1.429,space,1.6791,,,,,,,,0,36,36,95,1,,
5ebcb35ca857831117df7c04,2023-06-16_10h09.13.765,phx_ver10,2022.2.5,MacIntel,60.0024001,,,,,,,,,,,,10,testing_1,zh2x,i,zh2x_i,zh2x_8_ixi.wav,zh2x_8_ixi_copy.wav,,TRUE,TRUE,,,,,,,,,,,,,,f,0.1678,space,0.5013,,,,,,,,0,37,37,9,1,,
5ebcb35ca857831117df7c04,2023-06-16_10h09.13.765,phx_ver10,2022.2.5,MacIntel,60.0024001,,,,,,,,,,,,8,testing_1,zh2x,e,zh2x_e,zh2x_8_exe.wav,zh2x_1_ezhe.wav,,FALSE,TRUE,,,,,,,,,,,,,,j,0.399,space,0.7177,,,,,,,,0,38,38,7,1,,
5ebcb35ca857831117df7c04,2023-06-16_10h09.13.765,phx_ver10,2022.2.5,MacIntel,60.0024001,,,,,,,,,,,,95,testing_3,j2x,i,j2x_i,j2x_1_iji.wav,j2x_8_ixi.wav,,FALSE,FALSE,,,,,,,,,,,,,,j,0.4997,space,0.9036,,,,,,,,0,39,39,94,1,,
5ebcb35ca857831117df7c04,2023-06-16_10h09.13.765,phx_ver10,2022.2.5,MacIntel,60.0024001,,,,,,,,,,,,12,testing_1,zh2x,i,zh2x_i,zh2x_8_ixi.wav,zh2x_1_izhi.wav,,FALSE,TRUE,,,,,,,,,,,,,,j,0.354,space,0.6168,,,,,,,,0,40,40,11,1,,
5ebcb35ca857831117df7c04,2023-06-16_10h09.13.765,phx_ver10,2022.2.5,MacIntel,60.0024001,,,,,,,,,,,,82,testing_3,j2x,au,j2x_au,j2x_8_auxau.wav,j2x_8_auxau.wav,,TRUE,FALSE,,,,,,,,,,,,,,f,0.3368,space,0.7158,,,,,,,,0,41,41,81,1,,
5ebcb35ca857831117df7c04,2023-06-16_10h09.13.765,phx_ver10,2022.2.5,MacIntel,60.0024001,,,,,,,,,,,,126,testing_3,sh2j,ai,sh2j_ai,sh2j_8_aijai.wav,sh2j_8_aijai.wav,,TRUE,FALSE,,,,,,,,,,,,,,f,0.3933,space,0.7421,,,,,,,,0,42,42,125,1,,
5ebcb35ca857831117df7c04,2023-06-16_10h09.13.765,phx_ver10,2022.2.5,MacIntel,60.0024001,,,,,,,,,,,,139,testing_3,sh2j,ei,sh2j_ei,sh2j_1_eishei.wav,sh2j_8_eijei.wav,,FALSE,FALSE,,,,,,,,,,,,,,j,0.2016,space,0.4956,,,,,,,,0,43,43,138,1,,
5ebcb35ca857831117df7c04,2023-06-16_10h09.13.765,phx_ver10,2022.2.5,MacIntel,60.0024001,,,,,,,,,,,,74,testing_3,j2x,a,j2x_a,j2x_8_axa.wav,j2x_8_axa.wav,,TRUE,FALSE,,,,,,,,,,,,,,f,0.2338,space,0.5168,,,,,,,,0,44,44,73,1,,
5ebcb35ca857831117df7c04,2023-06-16_10h09.13.765,phx_ver10,2022.2.5,MacIntel,60.0024001,,,,,,,,,,,,119,testing_3,sh2x,i,sh2x_i,sh2x_1_ishi.wav,sh2x_8_ixi.wav,,FALSE,FALSE,,,,,,,,,,,,,,f,0.0848,space,0.4183,,,,,,,,0,45,45,118,1,,
5ebcb35ca857831117df7c04,2023-06-16_10h09.13.765,phx_ver10,2022.2.5,MacIntel,60.0024001,,,,,,,,,,,,45,testing_3,zh2sh,i,zh2sh_i,zh2sh_1_izhi.wav,zh2sh_1_izhi.wav,,TRUE,FALSE,,,,,,,,,,,,,,f,0.2677,space,0.5986,,,,,,,,0,46,46,44,1,,
5ebcb35ca857831117df7c04,2023-06-16_10h09.13.765,phx_ver10,2022.2.5,MacIntel,60.0024001,,,,,,,,,,,,98,testing_3,sh2x,a,sh2x_a,sh2x_8_axa.wav,sh2x_8_axa.wav,,TRUE,FALSE,,,,,,,,,,,,,,f,0.4301,space,0.7161,,,,,,,,0,47,47,97,1,,
5ebcb35ca857831117df7c04,2023-06-16_10h09.13.765,phx_ver10,2022.2.5,MacIntel,60.0024001,,,,,,,,,,,,16,testing_2,zh2x,ai,zh2x_ai,zh2x_8_aixai.wav,zh2x_1_aizhai.wav,,FALSE,FALSE,,,,,,,,,,,,,,j,0.318,space,0.6,,,,,,,,0,48,48,15,1,,
5ebcb35ca857831117df7c04,2023-06-16_10h09.13.765,phx_ver10,2022.2.5,MacIntel,60.0024001,,,,,,,,,,,,66,testing_3,zh2j,ei,zh2j_ei,zh2j_8_eijei.wav,zh2j_8_eijei.wav,,TRUE,FALSE,,,,,,,,,,,,,,f,0.5162,space,0.7508,,,,,,,,0,49,49,65,1,,
5ebcb35ca857831117df7c04,2023-06-16_10h09.13.765,phx_ver10,2022.2.5,MacIntel,60.0024001,,,,,,,,,,,,84,testing_3,j2x,au,j2x_au,j2x_8_auxau.wav,j2x_1_aujau.wav,,FALSE,FALSE,,,,,,,,,,,,,,j,0.401,space,2.2339,,,,,,,,0,50,50,83,1,,
5ebcb35ca857831117df7c04,2023-06-16_10h09.13.765,phx_ver10,2022.2.5,MacIntel,60.0024001,,,,,,,,,,,,18,testing_2,zh2x,au,zh2x_au,zh2x_8_auxau.wav,zh2x_8_auxau.wav,,TRUE,FALSE,,,,,,,,,,,,,,f,0.4675,space,0.858,,,,,,,,0,51,51,17,1,,
5ebcb35ca857831117df7c04,2023-06-16_10h09.13.765,phx_ver10,2022.2.5,MacIntel,60.0024001,,,,,,,,,,,,27,testing_3,zh2sh,a,zh2sh_a,zh2sh_1_azha.wav,zh2sh_8_asha.wav,,FALSE,FALSE,,,,,,,,,,,,,,j,0.7922,space,1.0586,,,,,,,,0,52,52,26,1,,
5ebcb35ca857831117df7c04,2023-06-16_10h09.13.765,phx_ver10,2022.2.5,MacIntel,60.0024001,,,,,,,,,,,,93,testing_3,j2x,i,j2x_i,j2x_1_iji.wav,j2x_1_iji.wav,,TRUE,FALSE,,,,,,,,,,,,,,f,0.9031,space,1.4336,,,,,,,,0,53,53,92,1,,
5ebcb35ca857831117df7c04,2023-06-16_10h09.13.765,phx_ver10,2022.2.5,MacIntel,60.0024001,,,,,,,,,,,,31,testing_3,zh2sh,ai,zh2sh_ai,zh2sh_1_aizhai.wav,zh2sh_8_aishai.wav,,FALSE,FALSE,,,,,,,,,,,,,,j,0.6674,space,1.0338,,,,,,,,0,54,54,30,1,,
5ebcb35ca857831117df7c04,2023-06-16_10h09.13.765,phx_ver10,2022.2.5,MacIntel,60.0024001,,,,,,,,,,,,109,testing_3,sh2x,e,sh2x_e,sh2x_1_eshe.wav,sh2x_1_eshe.wav,,TRUE,FALSE,,,,,,,,,,,,,,f,0.1502,space,0.5339,,,,,,,,0,55,55,108,1,,
5ebcb35ca857831117df7c04,2023-06-16_10h09.13.765,phx_ver10,2022.2.5,MacIntel,60.0024001,,,,,,,,,,,,52,testing_3,zh2j,a,zh2j_a,zh2j_8_aja.wav,zh2j_1_azha.wav,,FALSE,FALSE,,,,,,,,,,,,,,f,0.3664,space,0.7342,,,,,,,,0,56,56,51,1,,
5ebcb35ca857831117df7c04,2023-06-16_10h09.13.765,phx_ver10,2022.2.5,MacIntel,60.0024001,,,,,,,,,,,,102,testing_3,sh2x,ai,sh2x_ai,sh2x_8_aixai.wav,sh2x_8_aixai.wav,,TRUE,FALSE,,,,,,,,,,,,,,f,0.3353,space,0.6348,,,,,,,,0,57,57,101,1,,
5ebcb35ca857831117df7c04,2023-06-16_10h09.13.765,phx_ver10,2022.2.5,MacIntel,60.0024001,,,,,,,,,,,,120,testing_3,sh2x,i,sh2x_i,sh2x_8_ixi.wav,sh2x_1_ishi.wav,,FALSE,FALSE,,,,,,,,,,,,,,f,0.0337,space,0.4005,,,,,,,,0,58,58,119,1,,
5ebcb35ca857831117df7c04,2023-06-16_10h09.13.765,phx_ver10,2022.2.5,MacIntel,60.0024001,,,,,,,,,,,,15,testing_2,zh2x,ai,zh2x_ai,zh2x_1_aizhai.wav,zh2x_8_aixai.wav,,FALSE,FALSE,,,,,,,,,,,,,,j,0.1005,space,0.4247,,,,,,,,0,59,59,14,1,,
5ebcb35ca857831117df7c04,2023-06-16_10h09.13.765,phx_ver10,2022.2.5,MacIntel,60.0024001,,,,,,,,,,,,44,testing_3,zh2sh,ei,zh2sh_ei,zh2sh_8_eishei.wav,zh2sh_1_eizhei.wav,,FALSE,FALSE,,,,,,,,,,,,,,j,0.3472,space,0.6417,,,,,,,,0,60,60,43,1,,
5ebcb35ca857831117df7c04,2023-06-16_10h09.13.765,phx_ver10,2022.2.5,MacIntel,60.0024001,,,,,,,,,,,,68,testing_3,zh2j,ei,zh2j_ei,zh2j_8_eijei.wav,zh2j_1_eizhei.wav,,FALSE,FALSE,,,,,,,,,,,,,,f,0.4523,space,0.7022,,,,,,,,0,61,61,67,1,,
5ebcb35ca857831117df7c04,2023-06-16_10h09.13.765,phx_ver10,2022.2.5,MacIntel,60.0024001,,,,,,,,,,,,143,testing_3,sh2j,i,sh2j_i,sh2j_1_ishi.wav,sh2j_8_iji.wav,,FALSE,FALSE,,,,,,,,,,,,,,j,0.1851,space,0.5183,,,,,,,,0,62,62,142,1,,
5ebcb35ca857831117df7c04,2023-06-16_10h09.13.765,phx_ver10,2022.2.5,MacIntel,60.0024001,,,,,,,,,,,,34,testing_3,zh2sh,au,zh2sh_au,zh2sh_8_aushau.wav,zh2sh_8_aushau.wav,,TRUE,FALSE,,,,,,,,,,,,,,f,0.1862,space,0.5362,,,,,,,,0,63,63,33,1,,
5ebcb35ca857831117df7c04,2023-06-16_10h09.13.765,phx_ver10,2022.2.5,MacIntel,60.0024001,,,,,,,,,,,,103,testing_3,sh2x,ai,sh2x_ai,sh2x_1_aishai.wav,sh2x_8_aixai.wav,,FALSE,FALSE,,,,,,,,,,,,,,f,0.2708,space,0.7212,,,,,,,,0,64,64,102,1,,
5ebcb35ca857831117df7c04,2023-06-16_10h09.13.765,phx_ver10,2022.2.5,MacIntel,60.0024001,,,,,,,,,,,,70,testing_3,zh2j,i,zh2j_i,zh2j_8_iji.wav,zh2j_8_iji.wav,,TRUE,FALSE,,,,,,,,,,,,,,j,3.7509,space,4.1695,,,,,,,,0,65,65,69,1,,
5ebcb35ca857831117df7c04,2023-06-16_10h09.13.765,phx_ver10,2022.2.5,MacIntel,60.0024001,,,,,,,,,,,,55,testing_3,zh2j,ai,zh2j_ai,zh2j_1_aizhai.wav,zh2j_8_aijai.wav,,FALSE,FALSE,,,,,,,,,,,,,,f,0.4516,space,0.8165,,,,,,,,0,66,66,54,1,,
5ebcb35ca857831117df7c04,2023-06-16_10h09.13.765,phx_ver10,2022.2.5,MacIntel,60.0024001,,,,,,,,,,,,112,testing_3,sh2x,e,sh2x_e,sh2x_8_exe.wav,sh2x_1_eshe.wav,,FALSE,FALSE,,,,,,,,,,,,,,f,0.3556,space,0.6546,,,,,,,,0,67,67,111,1,,
5ebcb35ca857831117df7c04,2023-06-16_10h09.13.765,phx_ver10,2022.2.5,MacIntel,60.0024001,,,,,,,,,,,,26,testing_3,zh2sh,a,zh2sh_a,zh2sh_8_asha.wav,zh2sh_8_asha.wav,,TRUE,FALSE,,,,,,,,,,,,,,f,0.1773,space,0.544,,,,,,,,0,68,68,25,1,,
5ebcb35ca857831117df7c04,2023-06-16_10h09.13.765,phx_ver10,2022.2.5,MacIntel,60.0024001,,,,,,,,,,,,110,testing_3,sh2x,e,sh2x_e,sh2x_8_exe.wav,sh2x_8_exe.wav,,TRUE,FALSE,,,,,,,,,,,,,,f,0.184,space,0.5661,,,,,,,,0,69,69,109,1,,
5ebcb35ca857831117df7c04,2023-06-16_10h09.13.765,phx_ver10,2022.2.5,MacIntel,60.0024001,,,,,,,,,,,,128,testing_3,sh2j,ai,sh2j_ai,sh2j_8_aijai.wav,sh2j_1_aishai.wav,,FALSE,FALSE,,,,,,,,,,,,,,j,0.2482,space,0.5998,,,,,,,,0,70,70,127,1,,
5ebcb35ca857831117df7c04,2023-06-16_10h09.13.765,phx_ver10,2022.2.5,MacIntel,60.0024001,,,,,,,,,,,,106,testing_3,sh2x,au,sh2x_au,sh2x_8_auxau.wav,sh2x_8_auxau.wav,,TRUE,FALSE,,,,,,,,,,,,,,f,0.0515,space,0.4174,,,,,,,,0,71,71,105,1,,
5ebcb35ca857831117df7c04,2023-06-16_10h09.13.765,phx_ver10,2022.2.5,MacIntel,60.0024001,,,,,,,,,,,,89,testing_3,j2x,ei,j2x_ei,j2x_1_eijei.wav,j2x_1_eijei.wav,,TRUE,FALSE,,,,,,,,,,,,,,f,0.2014,space,0.5172,,,,,,,,0,72,72,88,1,,
5ebcb35ca857831117df7c04,2023-06-16_10h09.13.765,phx_ver10,2022.2.5,MacIntel,60.0024001,,,,,,,,,,,,47,testing_3,zh2sh,i,zh2sh_i,zh2sh_1_izhi.wav,zh2sh_8_ishi.wav,,FALSE,FALSE,,,,,,,,,,,,,,j,0.2219,space,0.4681,,,,,,,,0,73,73,46,1,,
5ebcb35ca857831117df7c04,2023-06-16_10h09.13.765,phx_ver10,2022.2.5,MacIntel,60.0024001,,,,,,,,,,,,117,testing_3,sh2x,i,sh2x_i,sh2x_1_ishi.wav,sh2x_1_ishi.wav,,TRUE,FALSE,,,,,,,,,,,,,,f,0.1829,space,0.5324,,,,,,,,0,74,74,116,1,,
5ebcb35ca857831117df7c04,2023-06-16_10h09.13.765,phx_ver10,2022.2.5,MacIntel,60.0024001,,,,,,,,,,,,75,testing_3,j2x,a,j2x_a,j2x_1_aja.wav,j2x_8_axa.wav,,FALSE,FALSE,,,,,,,,,,,,,,j,0.2832,space,0.5771,,,,,,,,0,75,75,74,1,,
5ebcb35ca857831117df7c04,2023-06-16_10h09.13.765,phx_ver10,2022.2.5,MacIntel,60.0024001,,,,,,,,,,,,125,testing_3,sh2j,ai,sh2j_ai,sh2j_1_aishai.wav,sh2j_1_aishai.wav,,TRUE,FALSE,,,,,,,,,,,,,,f,0.0862,space,0.3059,,,,,,,,0,76,76,124,1,,
5ebcb35ca857831117df7c04,2023-06-16_10h09.13.765,phx_ver10,2022.2.5,MacIntel,60.0024001,,,,,,,,,,,,99,testing_3,sh2x,a,sh2x_a,sh2x_1_asha.wav,sh2x_8_axa.wav,,FALSE,FALSE,,,,,,,,,,,,,,f,0.4563,space,0.656,,,,,,,,0,77,77,98,1,,
5ebcb35ca857831117df7c04,2023-06-16_10h09.13.765,phx_ver10,2022.2.5,MacIntel,60.0024001,,,,,,,,,,,,41,testing_3,zh2sh,ei,zh2sh_ei,zh2sh_1_eizhei.wav,zh2sh_1_eizhei.wav,,TRUE,FALSE,,,,,,,,,,,,,,f,0.2788,space,0.4616,,,,,,,,0,78,78,40,1,,
5ebcb35ca857831117df7c04,2023-06-16_10h09.13.765,phx_ver10,2022.2.5,MacIntel,60.0024001,,,,,,,,,,,,124,testing_3,sh2j,a,sh2j_a,sh2j_8_aja.wav,sh2j_1_asha.wav,,FALSE,FALSE,,,,,,,,,,,,,,j,0.3153,space,0.617,,,,,,,,0,79,79,123,1,,
5ebcb35ca857831117df7c04,2023-06-16_10h09.13.765,phx_ver10,2022.2.5,MacIntel,60.0024001,,,,,,,,,,,,85,testing_3,j2x,e,j2x_e,j2x_1_eje.wav,j2x_1_eje.wav,,TRUE,FALSE,,,,,,,,,,,,,,f,0.1165,space,0.3847,,,,,,,,0,80,80,84,1,,
5ebcb35ca857831117df7c04,2023-06-16_10h09.13.765,phx_ver10,2022.2.5,MacIntel,60.0024001,,,,,,,,,,,,79,testing_3,j2x,ai,j2x_ai,j2x_1_aijai.wav,j2x_8_aixai.wav,,FALSE,FALSE,,,,,,,,,,,,,,j,1.9191,space,2.3378,,,,,,,,0,81,81,78,1,,
5ebcb35ca857831117df7c04,2023-06-16_10h09.13.765,phx_ver10,2022.2.5,MacIntel,60.0024001,,,,,,,,,,,,51,testing_3,zh2j,a,zh2j_a,zh2j_1_azha.wav,zh2j_8_aja.wav,,FALSE,FALSE,,,,,,,,,,,,,,f,0.5682,space,0.7337,,,,,,,,0,82,82,50,1,,
5ebcb35ca857831117df7c04,2023-06-16_10h09.13.765,phx_ver10,2022.2.5,MacIntel,60.0024001,,,,,,,,,,,,1,testing_1,zh2x,a,zh2x_a,zh2x_1_azha.wav,zh2x_1_azha_copy.wav,,TRUE,TRUE,,,,,,,,,,,,,,f,0.1336,space,0.6001,,,,,,,,0,83,83,0,1,,
5ebcb35ca857831117df7c04,2023-06-16_10h09.13.765,phx_ver10,2022.2.5,MacIntel,60.0024001,,,,,,,,,,,,4,testing_1,zh2x,a,zh2x_a,zh2x_8_axa.wav,zh2x_1_azha.wav,,FALSE,TRUE,,,,,,,,,,,,,,j,0.6848,space,1.1674,,,,,,,,0,84,84,3,1,,
5ebcb35ca857831117df7c04,2023-06-16_10h09.13.765,phx_ver10,2022.2.5,MacIntel,60.0024001,,,,,,,,,,,,5,testing_1,zh2x,e,zh2x_e,zh2x_1_ezhe.wav,zh2x_1_ezhe_copy.wav,,TRUE,TRUE,,,,,,,,,,,,,,f,0.0679,space,0.4349,,,,,,,,0,85,85,4,1,,
5ebcb35ca857831117df7c04,2023-06-16_10h09.13.765,phx_ver10,2022.2.5,MacIntel,60.0024001,,,,,,,,,,,,90,testing_3,j2x,ei,j2x_ei,j2x_8_eixei.wav,j2x_8_eixei.wav,,TRUE,FALSE,,,,,,,,,,,,,,j,1.1373,space,3.3512,,,,,,,,0,86,86,89,1,,
5ebcb35ca857831117df7c04,2023-06-16_10h09.13.765,phx_ver10,2022.2.5,MacIntel,60.0024001,,,,,,,,,,,,54,testing_3,zh2j,ai,zh2j_ai,zh2j_8_aijai.wav,zh2j_8_aijai.wav,,TRUE,FALSE,,,,,,,,,,,,,,f,0.469,space,0.8511,,,,,,,,0,87,87,53,1,,
5ebcb35ca857831117df7c04,2023-06-16_10h09.13.765,phx_ver10,2022.2.5,MacIntel,60.0024001,,,,,,,,,,,,122,testing_3,sh2j,a,sh2j_a,sh2j_8_aja.wav,sh2j_8_aja.wav,,TRUE,FALSE,,,,,,,,,,,,,,f,0.4008,space,0.7007,,,,,,,,0,88,88,121,1,,
5ebcb35ca857831117df7c04,2023-06-16_10h09.13.765,phx_ver10,2022.2.5,MacIntel,60.0024001,,,,,,,,,,,,114,testing_3,sh2x,ei,sh2x_ei,sh2x_8_eixei.wav,sh2x_8_eixei.wav,,TRUE,FALSE,,,,,,,,,,,,,,f,0.3669,space,0.6501,,,,,,,,0,89,89,113,1,,
5ebcb35ca857831117df7c04,2023-06-16_10h09.13.765,phx_ver10,2022.2.5,MacIntel,60.0024001,,,,,,,,,,,,37,testing_3,zh2sh,e,zh2sh_e,zh2sh_1_ezhe.wav,zh2sh_1_ezhe.wav,,TRUE,FALSE,,,,,,,,,,,,,,f,0.3504,space,0.6344,,,,,,,,0,90,90,36,1,,
5ebcb35ca857831117df7c04,2023-06-16_10h09.13.765,phx_ver10,2022.2.5,MacIntel,60.0024001,,,,,,,,,,,,101,testing_3,sh2x,ai,sh2x_ai,sh2x_1_aishai.wav,sh2x_1_aishai.wav,,TRUE,FALSE,,,,,,,,,,,,,,f,0.1825,space,0.7154,,,,,,,,0,91,91,100,1,,
5ebcb35ca857831117df7c04,2023-06-16_10h09.13.765,phx_ver10,2022.2.5,MacIntel,60.0024001,,,,,,,,,,,,21,testing_2,zh2x,ei,zh2x_ei,zh2x_1_eizhei.wav,zh2x_1_eizhei.wav,,TRUE,FALSE,,,,,,,,,,,,,,f,0.2678,space,0.5494,,,,,,,,0,92,92,20,1,,
5ebcb35ca857831117df7c04,2023-06-16_10h09.13.765,phx_ver10,2022.2.5,MacIntel,60.0024001,,,,,,,,,,,,38,testing_3,zh2sh,e,zh2sh_e,zh2sh_8_eshe.wav,zh2sh_8_eshe.wav,,TRUE,FALSE,,,,,,,,,,,,,,f,0.2841,space,0.6006,,,,,,,,0,93,93,37,1,,
5ebcb35ca857831117df7c04,2023-06-16_10h09.13.765,phx_ver10,2022.2.5,MacIntel,60.0024001,,,,,,,,,,,,113,testing_3,sh2x,ei,sh2x_ei,sh2x_1_eishei.wav,sh2x_1_eishei.wav,,TRUE,FALSE,,,,,,,,,,,,,,f,0.0337,space,0.4342,,,,,,,,0,94,94,112,1,,
5ebcb35ca857831117df7c04,2023-06-16_10h09.13.765,phx_ver10,2022.2.5,MacIntel,60.0024001,,,,,,,,,,,,76,testing_3,j2x,a,j2x_a,j2x_8_axa.wav,j2x_1_aja.wav,,FALSE,FALSE,,,,,,,,,,,,,,j,0.2173,space,0.5158,,,,,,,,0,95,95,75,1,,
5ebcb35ca857831117df7c04,2023-06-16_10h09.13.765,phx_ver10,2022.2.5,MacIntel,60.0024001,,,,,,,,,,,,43,testing_3,zh2sh,ei,zh2sh_ei,zh2sh_1_eizhei.wav,zh2sh_8_eishei.wav,,FALSE,FALSE,,,,,,,,,,,,,,j,0.2004,space,0.5481,,,,,,,,0,96,96,42,1,,
5ebcb35ca857831117df7c04,2023-06-16_10h09.13.765,phx_ver10,2022.2.5,MacIntel,60.0024001,,,,,,,,,,,,9,testing_1,zh2x,i,zh2x_i,zh2x_1_izhi.wav,zh2x_1_izhi_copy.wav,,TRUE,TRUE,,,,,,,,,,,,,,f,0.1673,space,0.4837,,,,,,,,0,97,97,8,1,,
5ebcb35ca857831117df7c04,2023-06-16_10h09.13.765,phx_ver10,2022.2.5,MacIntel,60.0024001,,,,,,,,,,,,35,testing_3,zh2sh,au,zh2sh_au,zh2sh_1_auzhau.wav,zh2sh_8_aushau.wav,,FALSE,FALSE,,,,,,,,,,,,,,j,0.3335,space,0.717,,,,,,,,0,98,98,34,1,,
5ebcb35ca857831117df7c04,2023-06-16_10h09.13.765,phx_ver10,2022.2.5,MacIntel,60.0024001,,,,,,,,,,,,86,testing_3,j2x,e,j2x_e,j2x_8_exe.wav,j2x_8_exe.wav,,TRUE,FALSE,,,,,,,,,,,,,,f,0.3515,space,0.5844,,,,,,,,0,99,99,85,1,,
5ebcb35ca857831117df7c04,2023-06-16_10h09.13.765,phx_ver10,2022.2.5,MacIntel,60.0024001,,,,,,,,,,,,80,testing_3,j2x,ai,j2x_ai,j2x_8_aixai.wav,j2x_1_aijai.wav,,FALSE,FALSE,,,,,,,,,,,,,,j,1.6854,space,2.051,,,,,,,,0,100,100,79,1,,
5ebcb35ca857831117df7c04,2023-06-16_10h09.13.765,phx_ver10,2022.2.5,MacIntel,60.0024001,,,,,,,,,,,,17,testing_2,zh2x,au,zh2x_au,zh2x_1_auzhau.wav,zh2x_1_auzhau.wav,,TRUE,FALSE,,,,,,,,,,,,,,j,1.5673,space,2.8508,,,,,,,,0,101,101,16,1,,
5ebcb35ca857831117df7c04,2023-06-16_10h09.13.765,phx_ver10,2022.2.5,MacIntel,60.0024001,,,,,,,,,,,,28,testing_3,zh2sh,a,zh2sh_a,zh2sh_8_asha.wav,zh2sh_1_azha.wav,,FALSE,FALSE,,,,,,,,,,,,,,j,0.6673,space,1.1183,,,,,,,,0,102,102,27,1,,
5ebcb35ca857831117df7c04,2023-06-16_10h09.13.765,phx_ver10,2022.2.5,MacIntel,60.0024001,,,,,,,,,,,,108,testing_3,sh2x,au,sh2x_au,sh2x_8_auxau.wav,sh2x_1_aushau.wav,,FALSE,FALSE,,,,,,,,,,,,,,j,3.1494,space,3.516,,,,,,,,0,103,103,107,1,,
5ebcb35ca857831117df7c04,2023-06-16_10h09.13.765,phx_ver10,2022.2.5,MacIntel,60.0024001,,,,,,,,,,,,30,testing_3,zh2sh,ai,zh2sh_ai,zh2sh_8_aishai.wav,zh2sh_8_aishai.wav,,TRUE,FALSE,,,,,,,,,,,,,,j,3.801,space,4.0665,,,,,,,,0,104,104,29,1,,
5ebcb35ca857831117df7c04,2023-06-16_10h09.13.765,phx_ver10,2022.2.5,MacIntel,60.0024001,,,,,,,,,,,,73,testing_3,j2x,a,j2x_a,j2x_1_aja.wav,j2x_1_aja.wav,,TRUE,FALSE,,,,,,,,,,,,,,f,0.2993,space,0.6011,,,,,,,,0,105,105,72,1,,
5ebcb35ca857831117df7c04,2023-06-16_10h09.13.765,phx_ver10,2022.2.5,MacIntel,60.0024001,,,,,,,,,,,,123,testing_3,sh2j,a,sh2j_a,sh2j_1_asha.wav,sh2j_8_aja.wav,,FALSE,FALSE,,,,,,,,,,,,,,f,0.5852,space,0.9344,,,,,,,,0,106,106,122,1,,
5ebcb35ca857831117df7c04,2023-06-16_10h09.13.765,phx_ver10,2022.2.5,MacIntel,60.0024001,,,,,,,,,,,,133,testing_3,sh2j,e,sh2j_e,sh2j_1_eshe.wav,sh2j_1_eshe.wav,,TRUE,FALSE,,,,,,,,,,,,,,f,0.1007,space,0.5193,,,,,,,,0,107,107,132,1,,
5ebcb35ca857831117df7c04,2023-06-16_10h09.13.765,phx_ver10,2022.2.5,MacIntel,60.0024001,,,,,,,,,,,,29,testing_3,zh2sh,ai,zh2sh_ai,zh2sh_1_aizhai.wav,zh2sh_1_aizhai.wav,,TRUE,FALSE,,,,,,,,,,,,,,f,0.0696,space,0.4494,,,,,,,,0,108,108,28,1,,
5ebcb35ca857831117df7c04,2023-06-16_10h09.13.765,phx_ver10,2022.2.5,MacIntel,60.0024001,,,,,,,,,,,,131,testing_3,sh2j,au,sh2j_au,sh2j_1_aushau.wav,sh2j_8_aujau.wav,,FALSE,FALSE,,,,,,,,,,,,,,j,1.966,space,2.3509,,,,,,,,0,109,109,130,1,,
5ebcb35ca857831117df7c04,2023-06-16_10h09.13.765,phx_ver10,2022.2.5,MacIntel,60.0024001,,,,,,,,,,,,97,testing_3,sh2x,a,sh2x_a,sh2x_1_asha.wav,sh2x_1_asha.wav,,TRUE,FALSE,,,,,,,,,,,,,,f,0.2502,space,0.6006,,,,,,,,0,110,110,96,1,,
5ebcb35ca857831117df7c04,2023-06-16_10h09.13.765,phx_ver10,2022.2.5,MacIntel,60.0024001,,,,,,,,,,,,36,testing_3,zh2sh,au,zh2sh_au,zh2sh_8_aushau.wav,zh2sh_1_auzhau.wav,,FALSE,FALSE,,,,,,,,,,,,,,j,0.0336,space,0.4009,,,,,,,,0,111,111,35,1,,
5ebcb35ca857831117df7c04,2023-06-16_10h09.13.765,phx_ver10,2022.2.5,MacIntel,60.0024001,,,,,,,,,,,,111,testing_3,sh2x,e,sh2x_e,sh2x_1_eshe.wav,sh2x_8_exe.wav,,FALSE,FALSE,,,,,,,,,,,,,,f,0.101,space,0.367,,,,,,,,0,112,112,110,1,,
5ebcb35ca857831117df7c04,2023-06-16_10h09.13.765,phx_ver10,2022.2.5,MacIntel,60.0024001,,,,,,,,,,,,69,testing_3,zh2j,i,zh2j_i,zh2j_1_izhi.wav,zh2j_1_izhi.wav,,TRUE,FALSE,,,,,,,,,,,,,,f,0.2059,space,0.3504,,,,,,,,0,113,113,68,1,,
5ebcb35ca857831117df7c04,2023-06-16_10h09.13.765,phx_ver10,2022.2.5,MacIntel,60.0024001,,,,,,,,,,,,141,testing_3,sh2j,i,sh2j_i,sh2j_1_ishi.wav,sh2j_1_ishi.wav,,TRUE,FALSE,,,,,,,,,,,,,,f,0.4877,space,0.6194,,,,,,,,0,114,114,140,1,,
5ebcb35ca857831117df7c04,2023-06-16_10h09.13.765,phx_ver10,2022.2.5,MacIntel,60.0024001,,,,,,,,,,,,134,testing_3,sh2j,e,sh2j_e,sh2j_8_eje.wav,sh2j_8_eje.wav,,TRUE,FALSE,,,,,,,,,,,,,,f,0.0004,space,0.3651,,,,,,,,0,115,115,133,1,,
5ebcb35ca857831117df7c04,2023-06-16_10h09.13.765,phx_ver10,2022.2.5,MacIntel,60.0024001,,,,,,,,,,,,3,testing_1,zh2x,a,zh2x_a,zh2x_1_azha.wav,zh2x_8_axa.wav,,FALSE,TRUE,,,,,,,,,,,,,,j,0.2577,space,0.6817,,,,,,,,0,116,116,2,1,,
5ebcb35ca857831117df7c04,2023-06-16_10h09.13.765,phx_ver10,2022.2.5,MacIntel,60.0024001,,,,,,,,,,,,19,testing_2,zh2x,au,zh2x_au,zh2x_1_auzhau.wav,zh2x_8_auxau.wav,,FALSE,FALSE,,,,,,,,,,,,,,j,0.4837,space,0.7693,,,,,,,,0,117,117,18,1,,
5ebcb35ca857831117df7c04,2023-06-16_10h09.13.765,phx_ver10,2022.2.5,MacIntel,60.0024001,,,,,,,,,,,,100,testing_3,sh2x,a,sh2x_a,sh2x_8_axa.wav,sh2x_1_asha.wav,,FALSE,FALSE,,,,,,,,,,,,,,j,0.052,space,0.2206,,,,,,,,0,118,118,99,1,,
5ebcb35ca857831117df7c04,2023-06-16_10h09.13.765,phx_ver10,2022.2.5,MacIntel,60.0024001,,,,,,,,,,,,6,testing_1,zh2x,e,zh2x_e,zh2x_8_exe.wav,zh2x_8_exe_copy.wav,,TRUE,TRUE,,,,,,,,,,,,,,f,0.2342,space,0.4677,,,,,,,,0,119,119,5,1,,
5ebcb35ca857831117df7c04,2023-06-16_10h09.13.765,phx_ver10,2022.2.5,MacIntel,60.0024001,,,,,,,,,,,,57,testing_3,zh2j,au,zh2j_au,zh2j_1_auzhau.wav,zh2j_1_auzhau.wav,,TRUE,FALSE,,,,,,,,,,,,,,f,0.119,space,0.4189,,,,,,,,0,120,120,56,1,,
5ebcb35ca857831117df7c04,2023-06-16_10h09.13.765,phx_ver10,2022.2.5,MacIntel,60.0024001,,,,,,,,,,,,132,testing_3,sh2j,au,sh2j_au,sh2j_8_aujau.wav,sh2j_1_aushau.wav,,FALSE,FALSE,,,,,,,,,,,,,,j,0.1847,space,0.3681,,,,,,,,0,121,121,131,1,,
5ebcb35ca857831117df7c04,2023-06-16_10h09.13.765,phx_ver10,2022.2.5,MacIntel,60.0024001,,,,,,,,,,,,65,testing_3,zh2j,ei,zh2j_ei,zh2j_1_eizhei.wav,zh2j_1_eizhei.wav,,TRUE,FALSE,,,,,,,,,,,,,,f,0.0335,space,0.2174,,,,,,,,0,122,122,64,1,,
5ebcb35ca857831117df7c04,2023-06-16_10h09.13.765,phx_ver10,2022.2.5,MacIntel,60.0024001,,,,,,,,,,,,91,testing_3,j2x,ei,j2x_ei,j2x_1_eijei.wav,j2x_8_eixei.wav,,FALSE,FALSE,,,,,,,,,,,,,,j,0.3176,space,0.4508,,,,,,,,0,123,123,90,1,,
5ebcb35ca857831117df7c04,2023-06-16_10h09.13.765,phx_ver10,2022.2.5,MacIntel,60.0024001,,,,,,,,,,,,24,testing_2,zh2x,ei,zh2x_ei,zh2x_8_eixei.wav,zh2x_1_eizhei.wav,,FALSE,FALSE,,,,,,,,,,,,,,j,0.2507,space,0.3826,,,,,,,,0,124,124,23,1,,
5ebcb35ca857831117df7c04,2023-06-16_10h09.13.765,phx_ver10,2022.2.5,MacIntel,60.0024001,,,,,,,,,,,,130,testing_3,sh2j,au,sh2j_au,sh2j_8_aujau.wav,sh2j_8_aujau.wav,,TRUE,FALSE,,,,,,,,,,,,,,f,0.1681,space,0.3511,,,,,,,,0,125,125,129,1,,
5ebcb35ca857831117df7c04,2023-06-16_10h09.13.765,phx_ver10,2022.2.5,MacIntel,60.0024001,,,,,,,,,,,,61,testing_3,zh2j,e,zh2j_e,zh2j_1_ezhe.wav,zh2j_1_ezhe.wav,,TRUE,FALSE,,,,,,,,,,,,,,f,0.0669,space,0.1252,,,,,,,,0,126,126,60,1,,
5ebcb35ca857831117df7c04,2023-06-16_10h09.13.765,phx_ver10,2022.2.5,MacIntel,60.0024001,,,,,,,,,,,,135,testing_3,sh2j,e,sh2j_e,sh2j_1_eshe.wav,sh2j_8_eje.wav,,FALSE,FALSE,,,,,,,,,,,,,,j,0.9999,space,1.1509,,,,,,,,0,127,127,134,1,,
5ebcb35ca857831117df7c04,2023-06-16_10h09.13.765,phx_ver10,2022.2.5,MacIntel,60.0024001,,,,,,,,,,,,14,testing_2,zh2x,ai,zh2x_ai,zh2x_8_aixai.wav,zh2x_8_aixai.wav,,TRUE,FALSE,,,,,,,,,,,,,,f,0.0005,space,0.1708,,,,,,,,0,128,128,13,1,,
5ebcb35ca857831117df7c04,2023-06-16_10h09.13.765,phx_ver10,2022.2.5,MacIntel,60.0024001,,,,,,,,,,,,107,testing_3,sh2x,au,sh2x_au,sh2x_1_aushau.wav,sh2x_8_auxau.wav,,FALSE,FALSE,,,,,,,,,,,,,,f,0.7674,space,0.8495,,,,,,,,0,129,129,106,1,,
5ebcb35ca857831117df7c04,2023-06-16_10h09.13.765,phx_ver10,2022.2.5,MacIntel,60.0024001,,,,,,,,,,,,115,testing_3,sh2x,ei,sh2x_ei,sh2x_1_eishei.wav,sh2x_8_eixei.wav,,FALSE,FALSE,,,,,,,,,,,,,,f,0.0675,space,0.2511,,,,,,,,0,130,130,114,1,,
5ebcb35ca857831117df7c04,2023-06-16_10h09.13.765,phx_ver10,2022.2.5,MacIntel,60.0024001,,,,,,,,,,,,32,testing_3,zh2sh,ai,zh2sh_ai,zh2sh_8_aishai.wav,zh2sh_1_aizhai.wav,,FALSE,FALSE,,,,,,,,,,,,,,j,0.5172,space,0.6865,,,,,,,,0,131,131,31,1,,
5ebcb35ca857831117df7c04,2023-06-16_10h09.13.765,phx_ver10,2022.2.5,MacIntel,60.0024001,,,,,,,,,,,,129,testing_3,sh2j,au,sh2j_au,sh2j_1_aushau.wav,sh2j_1_aushau.wav,,TRUE,FALSE,,,,,,,,,,,,,,f,0.234,space,0.517,,,,,,,,0,132,132,128,1,,
5ebcb35ca857831117df7c04,2023-06-16_10h09.13.765,phx_ver10,2022.2.5,MacIntel,60.0024001,,,,,,,,,,,,20,testing_2,zh2x,au,zh2x_au,zh2x_8_auxau.wav,zh2x_1_auzhau.wav,,FALSE,FALSE,,,,,,,,,,,,,,j,0.1486,space,0.3712,,,,,,,,0,133,133,19,1,,
5ebcb35ca857831117df7c04,2023-06-16_10h09.13.765,phx_ver10,2022.2.5,MacIntel,60.0024001,,,,,,,,,,,,78,testing_3,j2x,ai,j2x_ai,j2x_8_aixai.wav,j2x_8_aixai.wav,,TRUE,FALSE,,,,,,,,,,,,,,f,0.3955,space,0.5844,,,,,,,,0,134,134,77,1,,
5ebcb35ca857831117df7c04,2023-06-16_10h09.13.765,phx_ver10,2022.2.5,MacIntel,60.0024001,,,,,,,,,,,,92,testing_3,j2x,ei,j2x_ei,j2x_8_eixei.wav,j2x_1_eijei.wav,,FALSE,FALSE,,,,,,,,,,,,,,j,0.5133,space,0.6961,,,,,,,,0,135,135,91,1,,
5ebcb35ca857831117df7c04,2023-06-16_10h09.13.765,phx_ver10,2022.2.5,MacIntel,60.0024001,,,,,,,,,,,,23,testing_2,zh2x,ei,zh2x_ei,zh2x_1_eizhei.wav,zh2x_8_eixei.wav,,FALSE,FALSE,,,,,,,,,,,,,,j,0.2005,space,0.3833,,,,,,,,0,136,136,22,1,,
5ebcb35ca857831117df7c04,2023-06-16_10h09.13.765,phx_ver10,2022.2.5,MacIntel,60.0024001,,,,,,,,,,,,116,testing_3,sh2x,ei,sh2x_ei,sh2x_8_eixei.wav,sh2x_1_eishei.wav,,FALSE,FALSE,,,,,,,,,,,,,,f,0.1343,space,0.4342,,,,,,,,0,137,137,115,1,,
5ebcb35ca857831117df7c04,2023-06-16_10h09.13.765,phx_ver10,2022.2.5,MacIntel,60.0024001,,,,,,,,,,,,77,testing_3,j2x,ai,j2x_ai,j2x_1_aijai.wav,j2x_1_aijai.wav,,TRUE,FALSE,,,,,,,,,,,,,,f,0.3006,space,0.4338,,,,,,,,0,138,138,76,1,,
5ebcb35ca857831117df7c04,2023-06-16_10h09.13.765,phx_ver10,2022.2.5,MacIntel,60.0024001,,,,,,,,,,,,88,testing_3,j2x,e,j2x_e,j2x_8_exe.wav,j2x_1_eje.wav,,FALSE,FALSE,,,,,,,,,,,,,,j,0.8684,space,1.0339,,,,,,,,0,139,139,87,1,,
5ebcb35ca857831117df7c04,2023-06-16_10h09.13.765,phx_ver10,2022.2.5,MacIntel,60.0024001,,,,,,,,,,,,22,testing_2,zh2x,ei,zh2x_ei,zh2x_8_eixei.wav,zh2x_8_eixei.wav,,TRUE,FALSE,,,,,,,,,,,,,,f,0.2346,space,0.4512,,,,,,,,0,140,140,21,1,,
5ebcb35ca857831117df7c04,2023-06-16_10h09.13.765,phx_ver10,2022.2.5,MacIntel,60.0024001,,,,,,,,,,,,104,testing_3,sh2x,ai,sh2x_ai,sh2x_8_aixai.wav,sh2x_1_aishai.wav,,FALSE,FALSE,,,,,,,,,,,,,,f,0.5363,space,0.6524,,,,,,,,0,141,141,103,1,,
5ebcb35ca857831117df7c04,2023-06-16_10h09.13.765,phx_ver10,2022.2.5,MacIntel,60.0024001,,,,,,,,,,,,140,testing_3,sh2j,ei,sh2j_ei,sh2j_8_eijei.wav,sh2j_1_eishei.wav,,FALSE,FALSE,,,,,,,,,,,,,,j,0.7309,space,0.9222,,,,,,,,0,142,142,139,1,,
5ebcb35ca857831117df7c04,2023-06-16_10h09.13.765,phx_ver10,2022.2.5,MacIntel,60.0024001,,,,,,,,,,,,33,testing_3,zh2sh,au,zh2sh_au,zh2sh_1_auzhau.wav,zh2sh_1_auzhau.wav,,TRUE,FALSE,,,,,,,,,,,,,,f,0.7674,space,0.899,,,,,,,,0,143,143,32,1,,
5ebcb35ca857831117df7c04,2023-06-16_10h09.13.765,phx_ver10,2022.2.5,MacIntel,60.0024001,,,,,,,,,,,,,,,,,,,,,,,,,,,,,,,,,,,,,,,,,,,,,,,,,,,space,2.9995
