participant,date,expName,psychopyVersion,OS,frameRate,space_1.keys,space_1.rt,space_2.keys,space_2.rt,space_train.keys,space_train.rt,training.thisRepN,training.thisTrialN,training.thisN,training.thisIndex,training.ran,token_id,task,continuum,vowel,series,sound_1,sound_2,img,same,trained,FJ_attn.keys,FJ_attn.rt,space_attn.keys,space_attn.rt,if_attn_test.thisRepN,if_attn_test.thisTrialN,if_attn_test.thisN,if_attn_test.thisIndex,if_attn_test.ran,space_trans_1.keys,space_trans_1.rt,space_trans_11.keys,space_trans_11.rt,FJ_test.keys,FJ_test.rt,space_test.keys,space_test.rt,testing_pre.thisRepN,testing_pre.thisTrialN,testing_pre.thisN,testing_pre.thisIndex,testing_pre.ran,space_trans_2.keys,space_trans_2.rt,testing_all.thisRepN,testing_all.thisTrialN,testing_all.thisN,testing_all.thisIndex,testing_all.ran,space_ending.keys,space_ending.rt
5ec2720ae69a920447fa71a4,2023-06-16_18h52.17.560,phx_ver10,2022.2.5,Win32,59.96282305,,,,,,,,,,,,,,,,,,,,,,,,,,,,,,,,,,,,,,,,,,,,,,,,,,,,
5ec2720ae69a920447fa71a4,2023-06-16_18h52.17.560,phx_ver10,2022.2.5,Win32,59.96282305,space,13.0756,,,,,,,,,,,,,,,,,,,,,,,,,,,,,,,,,,,,,,,,,,,,,,,,,,
5ec2720ae69a920447fa71a4,2023-06-16_18h52.17.560,phx_ver10,2022.2.5,Win32,59.96282305,,,space,5.6427,,,,,,,,,,,,,,,,,,,,,,,,,,,,,,,,,,,,,,,,,,,,,,,,
5ec2720ae69a920447fa71a4,2023-06-16_18h52.17.560,phx_ver10,2022.2.5,Win32,59.96282305,,,,,space,7.67,0,0,0,47,1,48,training,zh2x,i,zh2x_i,zh2x_8_ixi.wav,,ixi.jpg,,,,,,,,,,,,,,,,,,,,,,,,,,,,,,,,,
5ec2720ae69a920447fa71a4,2023-06-16_18h52.17.560,phx_ver10,2022.2.5,Win32,59.96282305,,,,,space,3.726,0,1,1,43,1,44,training,zh2x,i,zh2x_i,zh2x_7_ixi.wav,,ixi.jpg,,,,,,,,,,,,,,,,,,,,,,,,,,,,,,,,,
5ec2720ae69a920447fa71a4,2023-06-16_18h52.17.560,phx_ver10,2022.2.5,Win32,59.96282305,,,,,space,9.0751,0,2,2,24,1,25,training,zh2x,e,zh2x_e,zh2x_5_exe.wav,,exe.jpg,,,,,,,,,,,,,,,,,,,,,,,,,,,,,,,,,
5ec2720ae69a920447fa71a4,2023-06-16_18h52.17.560,phx_ver10,2022.2.5,Win32,59.96282305,,,,,space,4.2094,0,3,3,37,1,38,training,zh2x,i,zh2x_i,zh2x_3_izhi.wav,,izhi.jpg,,,,,,,,,,,,,,,,,,,,,,,,,,,,,,,,,
5ec2720ae69a920447fa71a4,2023-06-16_18h52.17.560,phx_ver10,2022.2.5,Win32,59.96282305,,,,,space,4.2981,0,4,4,10,1,11,training,zh2x,a,zh2x_a,zh2x_6_axa.wav,,axa.jpg,,,,,,,,,,,,,,,,,,,,,,,,,,,,,,,,,
5ec2720ae69a920447fa71a4,2023-06-16_18h52.17.560,phx_ver10,2022.2.5,Win32,59.96282305,,,,,space,1.758,0,5,5,44,1,45,training,zh2x,i,zh2x_i,zh2x_7_ixi.wav,,ixi.jpg,,,,,,,,,,,,,,,,,,,,,,,,,,,,,,,,,
5ec2720ae69a920447fa71a4,2023-06-16_18h52.17.560,phx_ver10,2022.2.5,Win32,59.96282305,,,,,,,,,,,,,attn_test,,,,zh2x_1_izhi.wav,zh2x_8_axa.wav,axa.jpg,RIGHT,,f,11.2556,space,15.6649,0,0,0,0,1,,,,,,,,,,,,,,,,,,,,,,
5ec2720ae69a920447fa71a4,2023-06-16_18h52.17.560,phx_ver10,2022.2.5,Win32,59.96282305,,,,,space,5.9707,0,6,6,38,1,39,training,zh2x,i,zh2x_i,zh2x_3_izhi.wav,,izhi.jpg,,,,,,,,,,,,,,,,,,,,,,,,,,,,,,,,,
5ec2720ae69a920447fa71a4,2023-06-16_18h52.17.560,phx_ver10,2022.2.5,Win32,59.96282305,,,,,space,1.4542,0,7,7,29,1,30,training,zh2x,e,zh2x_e,zh2x_7_exe.wav,,exe.jpg,,,,,,,,,,,,,,,,,,,,,,,,,,,,,,,,,
5ec2720ae69a920447fa71a4,2023-06-16_18h52.17.560,phx_ver10,2022.2.5,Win32,59.96282305,,,,,space,1.3116,0,8,8,35,1,36,training,zh2x,i,zh2x_i,zh2x_2_izhi.wav,,izhi.jpg,,,,,,,,,,,,,,,,,,,,,,,,,,,,,,,,,
5ec2720ae69a920447fa71a4,2023-06-16_18h52.17.560,phx_ver10,2022.2.5,Win32,59.96282305,,,,,space,1.6019,0,9,9,6,1,7,training,zh2x,a,zh2x_a,zh2x_3_azha.wav,,azha.jpg,,,,,,,,,,,,,,,,,,,,,,,,,,,,,,,,,
5ec2720ae69a920447fa71a4,2023-06-16_18h52.17.560,phx_ver10,2022.2.5,Win32,59.96282305,,,,,space,1.7185,0,10,10,22,1,23,training,zh2x,e,zh2x_e,zh2x_3_ezhe.wav,,ezhe.jpg,,,,,,,,,,,,,,,,,,,,,,,,,,,,,,,,,
5ec2720ae69a920447fa71a4,2023-06-16_18h52.17.560,phx_ver10,2022.2.5,Win32,59.96282305,,,,,space,1.2529,0,11,11,18,1,19,training,zh2x,e,zh2x_e,zh2x_2_ezhe.wav,,ezhe.jpg,,,,,,,,,,,,,,,,,,,,,,,,,,,,,,,,,
5ec2720ae69a920447fa71a4,2023-06-16_18h52.17.560,phx_ver10,2022.2.5,Win32,59.96282305,,,,,,,,,,,,,attn_test,,,,zh2x_8_ixi.wav,zh2x_8_exe.wav,exe.jpg,RIGHT,,j,6.3935,space,7.4254,0,0,0,0,1,,,,,,,,,,,,,,,,,,,,,,
5ec2720ae69a920447fa71a4,2023-06-16_18h52.17.560,phx_ver10,2022.2.5,Win32,59.96282305,,,,,space,5.6512,0,12,12,11,1,12,training,zh2x,a,zh2x_a,zh2x_7_axa.wav,,axa.jpg,,,,,,,,,,,,,,,,,,,,,,,,,,,,,,,,,
5ec2720ae69a920447fa71a4,2023-06-16_18h52.17.560,phx_ver10,2022.2.5,Win32,59.96282305,,,,,space,1.9377,0,13,13,26,1,27,training,zh2x,e,zh2x_e,zh2x_6_exe.wav,,exe.jpg,,,,,,,,,,,,,,,,,,,,,,,,,,,,,,,,,
5ec2720ae69a920447fa71a4,2023-06-16_18h52.17.560,phx_ver10,2022.2.5,Win32,59.96282305,,,,,space,1.1029,0,14,14,33,1,34,training,zh2x,i,zh2x_i,zh2x_2_izhi.wav,,izhi.jpg,,,,,,,,,,,,,,,,,,,,,,,,,,,,,,,,,
5ec2720ae69a920447fa71a4,2023-06-16_18h52.17.560,phx_ver10,2022.2.5,Win32,59.96282305,,,,,space,1.6013,0,15,15,12,1,13,training,zh2x,a,zh2x_a,zh2x_7_axa.wav,,axa.jpg,,,,,,,,,,,,,,,,,,,,,,,,,,,,,,,,,
5ec2720ae69a920447fa71a4,2023-06-16_18h52.17.560,phx_ver10,2022.2.5,Win32,59.96282305,,,,,space,1.3055,0,16,16,2,1,3,training,zh2x,a,zh2x_a,zh2x_2_azha.wav,,azha.jpg,,,,,,,,,,,,,,,,,,,,,,,,,,,,,,,,,
5ec2720ae69a920447fa71a4,2023-06-16_18h52.17.560,phx_ver10,2022.2.5,Win32,59.96282305,,,,,space,1.1926,0,17,17,13,1,14,training,zh2x,a,zh2x_a,zh2x_7_axa.wav,,axa.jpg,,,,,,,,,,,,,,,,,,,,,,,,,,,,,,,,,
5ec2720ae69a920447fa71a4,2023-06-16_18h52.17.560,phx_ver10,2022.2.5,Win32,59.96282305,,,,,,,,,,,,,attn_test,,,,zh2x_8_ixi.wav,zh2x_1_izhi.wav,izhi.jpg,RIGHT,,f,1.1608,space,2.5636,0,0,0,0,1,,,,,,,,,,,,,,,,,,,,,,
5ec2720ae69a920447fa71a4,2023-06-16_18h52.17.560,phx_ver10,2022.2.5,Win32,59.96282305,,,,,space,2.6851,0,18,18,5,1,6,training,zh2x,a,zh2x_a,zh2x_3_azha.wav,,azha.jpg,,,,,,,,,,,,,,,,,,,,,,,,,,,,,,,,,
5ec2720ae69a920447fa71a4,2023-06-16_18h52.17.560,phx_ver10,2022.2.5,Win32,59.96282305,,,,,space,0.6011,0,19,19,14,1,15,training,zh2x,a,zh2x_a,zh2x_7_axa.wav,,axa.jpg,,,,,,,,,,,,,,,,,,,,,,,,,,,,,,,,,
5ec2720ae69a920447fa71a4,2023-06-16_18h52.17.560,phx_ver10,2022.2.5,Win32,59.96282305,,,,,space,0.9605,0,20,20,31,1,32,training,zh2x,e,zh2x_e,zh2x_8_exe.wav,,exe.jpg,,,,,,,,,,,,,,,,,,,,,,,,,,,,,,,,,
5ec2720ae69a920447fa71a4,2023-06-16_18h52.17.560,phx_ver10,2022.2.5,Win32,59.96282305,,,,,space,1.4068,0,21,21,23,1,24,training,zh2x,e,zh2x_e,zh2x_4_ezhe.wav,,ezhe.jpg,,,,,,,,,,,,,,,,,,,,,,,,,,,,,,,,,
5ec2720ae69a920447fa71a4,2023-06-16_18h52.17.560,phx_ver10,2022.2.5,Win32,59.96282305,,,,,space,1.0358,0,22,22,16,1,17,training,zh2x,e,zh2x_e,zh2x_1_ezhe.wav,,ezhe.jpg,,,,,,,,,,,,,,,,,,,,,,,,,,,,,,,,,
5ec2720ae69a920447fa71a4,2023-06-16_18h52.17.560,phx_ver10,2022.2.5,Win32,59.96282305,,,,,space,0.9054,0,23,23,28,1,29,training,zh2x,e,zh2x_e,zh2x_7_exe.wav,,exe.jpg,,,,,,,,,,,,,,,,,,,,,,,,,,,,,,,,,
5ec2720ae69a920447fa71a4,2023-06-16_18h52.17.560,phx_ver10,2022.2.5,Win32,59.96282305,,,,,,,,,,,,,attn_test,,,,zh2x_1_azha.wav,zh2x_8_exe.wav,azha.jpg,LEFT,,j,6.9,space,7.4319,0,0,0,0,1,,,,,,,,,,,,,,,,,,,,,,
5ec2720ae69a920447fa71a4,2023-06-16_18h52.17.560,phx_ver10,2022.2.5,Win32,59.96282305,,,,,space,2.9417,0,24,24,0,1,1,training,zh2x,a,zh2x_a,zh2x_1_azha.wav,,azha.jpg,,,,,,,,,,,,,,,,,,,,,,,,,,,,,,,,,
5ec2720ae69a920447fa71a4,2023-06-16_18h52.17.560,phx_ver10,2022.2.5,Win32,59.96282305,,,,,space,1.1192,0,25,25,39,1,40,training,zh2x,i,zh2x_i,zh2x_4_izhi.wav,,izhi.jpg,,,,,,,,,,,,,,,,,,,,,,,,,,,,,,,,,
5ec2720ae69a920447fa71a4,2023-06-16_18h52.17.560,phx_ver10,2022.2.5,Win32,59.96282305,,,,,space,1.3665,0,26,26,3,1,4,training,zh2x,a,zh2x_a,zh2x_2_azha.wav,,azha.jpg,,,,,,,,,,,,,,,,,,,,,,,,,,,,,,,,,
5ec2720ae69a920447fa71a4,2023-06-16_18h52.17.560,phx_ver10,2022.2.5,Win32,59.96282305,,,,,space,0.8781,0,27,27,46,1,47,training,zh2x,i,zh2x_i,zh2x_7_ixi.wav,,ixi.jpg,,,,,,,,,,,,,,,,,,,,,,,,,,,,,,,,,
5ec2720ae69a920447fa71a4,2023-06-16_18h52.17.560,phx_ver10,2022.2.5,Win32,59.96282305,,,,,space,0.1651,0,28,28,41,1,42,training,zh2x,i,zh2x_i,zh2x_6_ixi.wav,,ixi.jpg,,,,,,,,,,,,,,,,,,,,,,,,,,,,,,,,,
5ec2720ae69a920447fa71a4,2023-06-16_18h52.17.560,phx_ver10,2022.2.5,Win32,59.96282305,,,,,space,1.2356,0,29,29,19,1,20,training,zh2x,e,zh2x_e,zh2x_2_ezhe.wav,,ezhe.jpg,,,,,,,,,,,,,,,,,,,,,,,,,,,,,,,,,
5ec2720ae69a920447fa71a4,2023-06-16_18h52.17.560,phx_ver10,2022.2.5,Win32,59.96282305,,,,,,,,,,,,,attn_test,,,,zh2x_8_ixi.wav,zh2x_8_exe.wav,ixi.jpg,LEFT,,f,0.7418,space,1.3006,0,0,0,0,1,,,,,,,,,,,,,,,,,,,,,,
5ec2720ae69a920447fa71a4,2023-06-16_18h52.17.560,phx_ver10,2022.2.5,Win32,59.96282305,,,,,space,0.9015,0,30,30,32,1,33,training,zh2x,i,zh2x_i,zh2x_1_izhi.wav,,izhi.jpg,,,,,,,,,,,,,,,,,,,,,,,,,,,,,,,,,
5ec2720ae69a920447fa71a4,2023-06-16_18h52.17.560,phx_ver10,2022.2.5,Win32,59.96282305,,,,,space,0.5383,0,31,31,34,1,35,training,zh2x,i,zh2x_i,zh2x_2_izhi.wav,,izhi.jpg,,,,,,,,,,,,,,,,,,,,,,,,,,,,,,,,,
5ec2720ae69a920447fa71a4,2023-06-16_18h52.17.560,phx_ver10,2022.2.5,Win32,59.96282305,,,,,space,0.8573,0,32,32,17,1,18,training,zh2x,e,zh2x_e,zh2x_2_ezhe.wav,,ezhe.jpg,,,,,,,,,,,,,,,,,,,,,,,,,,,,,,,,,
5ec2720ae69a920447fa71a4,2023-06-16_18h52.17.560,phx_ver10,2022.2.5,Win32,59.96282305,,,,,space,0.5179,0,33,33,25,1,26,training,zh2x,e,zh2x_e,zh2x_6_exe.wav,,exe.jpg,,,,,,,,,,,,,,,,,,,,,,,,,,,,,,,,,
5ec2720ae69a920447fa71a4,2023-06-16_18h52.17.560,phx_ver10,2022.2.5,Win32,59.96282305,,,,,space,1.1527,0,34,34,8,1,9,training,zh2x,a,zh2x_a,zh2x_5_axa.wav,,axa.jpg,,,,,,,,,,,,,,,,,,,,,,,,,,,,,,,,,
5ec2720ae69a920447fa71a4,2023-06-16_18h52.17.560,phx_ver10,2022.2.5,Win32,59.96282305,,,,,space,0.8382,0,35,35,36,1,37,training,zh2x,i,zh2x_i,zh2x_2_izhi.wav,,izhi.jpg,,,,,,,,,,,,,,,,,,,,,,,,,,,,,,,,,
5ec2720ae69a920447fa71a4,2023-06-16_18h52.17.560,phx_ver10,2022.2.5,Win32,59.96282305,,,,,,,,,,,,,attn_test,,,,zh2x_1_izhi.wav,zh2x_1_ezhe.wav,ezhe.jpg,RIGHT,,j,0.6685,space,1.4777,0,0,0,0,1,,,,,,,,,,,,,,,,,,,,,,
5ec2720ae69a920447fa71a4,2023-06-16_18h52.17.560,phx_ver10,2022.2.5,Win32,59.96282305,,,,,space,1.3491,0,36,36,21,1,22,training,zh2x,e,zh2x_e,zh2x_3_ezhe.wav,,ezhe.jpg,,,,,,,,,,,,,,,,,,,,,,,,,,,,,,,,,
5ec2720ae69a920447fa71a4,2023-06-16_18h52.17.560,phx_ver10,2022.2.5,Win32,59.96282305,,,,,space,0.5815,0,37,37,20,1,21,training,zh2x,e,zh2x_e,zh2x_2_ezhe.wav,,ezhe.jpg,,,,,,,,,,,,,,,,,,,,,,,,,,,,,,,,,
5ec2720ae69a920447fa71a4,2023-06-16_18h52.17.560,phx_ver10,2022.2.5,Win32,59.96282305,,,,,space,0.3689,0,38,38,40,1,41,training,zh2x,i,zh2x_i,zh2x_5_ixi.wav,,ixi.jpg,,,,,,,,,,,,,,,,,,,,,,,,,,,,,,,,,
5ec2720ae69a920447fa71a4,2023-06-16_18h52.17.560,phx_ver10,2022.2.5,Win32,59.96282305,,,,,space,0.6691,0,39,39,15,1,16,training,zh2x,a,zh2x_a,zh2x_8_axa.wav,,axa.jpg,,,,,,,,,,,,,,,,,,,,,,,,,,,,,,,,,
5ec2720ae69a920447fa71a4,2023-06-16_18h52.17.560,phx_ver10,2022.2.5,Win32,59.96282305,,,,,space,0.8353,0,40,40,30,1,31,training,zh2x,e,zh2x_e,zh2x_7_exe.wav,,exe.jpg,,,,,,,,,,,,,,,,,,,,,,,,,,,,,,,,,
5ec2720ae69a920447fa71a4,2023-06-16_18h52.17.560,phx_ver10,2022.2.5,Win32,59.96282305,,,,,space,0.9814,0,41,41,4,1,5,training,zh2x,a,zh2x_a,zh2x_2_azha.wav,,azha.jpg,,,,,,,,,,,,,,,,,,,,,,,,,,,,,,,,,
5ec2720ae69a920447fa71a4,2023-06-16_18h52.17.560,phx_ver10,2022.2.5,Win32,59.96282305,,,,,,,,,,,,,attn_test,,,,zh2x_1_izhi.wav,zh2x_1_ezhe.wav,ezhe.jpg,RIGHT,,j,0.2889,space,0.7437,0,0,0,0,1,,,,,,,,,,,,,,,,,,,,,,
5ec2720ae69a920447fa71a4,2023-06-16_18h52.17.560,phx_ver10,2022.2.5,Win32,59.96282305,,,,,space,1.1343,0,42,42,9,1,10,training,zh2x,a,zh2x_a,zh2x_6_axa.wav,,axa.jpg,,,,,,,,,,,,,,,,,,,,,,,,,,,,,,,,,
5ec2720ae69a920447fa71a4,2023-06-16_18h52.17.560,phx_ver10,2022.2.5,Win32,59.96282305,,,,,space,0.8342,0,43,43,7,1,8,training,zh2x,a,zh2x_a,zh2x_4_azha.wav,,azha.jpg,,,,,,,,,,,,,,,,,,,,,,,,,,,,,,,,,
5ec2720ae69a920447fa71a4,2023-06-16_18h52.17.560,phx_ver10,2022.2.5,Win32,59.96282305,,,,,space,0.622,0,44,44,27,1,28,training,zh2x,e,zh2x_e,zh2x_7_exe.wav,,exe.jpg,,,,,,,,,,,,,,,,,,,,,,,,,,,,,,,,,
5ec2720ae69a920447fa71a4,2023-06-16_18h52.17.560,phx_ver10,2022.2.5,Win32,59.96282305,,,,,space,0.7671,0,45,45,42,1,43,training,zh2x,i,zh2x_i,zh2x_6_ixi.wav,,ixi.jpg,,,,,,,,,,,,,,,,,,,,,,,,,,,,,,,,,
5ec2720ae69a920447fa71a4,2023-06-16_18h52.17.560,phx_ver10,2022.2.5,Win32,59.96282305,,,,,space,1.1203,0,46,46,1,1,2,training,zh2x,a,zh2x_a,zh2x_2_azha.wav,,azha.jpg,,,,,,,,,,,,,,,,,,,,,,,,,,,,,,,,,
5ec2720ae69a920447fa71a4,2023-06-16_18h52.17.560,phx_ver10,2022.2.5,Win32,59.96282305,,,,,space,0.6197,0,47,47,45,1,46,training,zh2x,i,zh2x_i,zh2x_7_ixi.wav,,ixi.jpg,,,,,,,,,,,,,,,,,,,,,,,,,,,,,,,,,
5ec2720ae69a920447fa71a4,2023-06-16_18h52.17.560,phx_ver10,2022.2.5,Win32,59.96282305,,,,,,,,,,,,,attn_test,,,,zh2x_8_ixi.wav,zh2x_8_axa.wav,ixi.jpg,LEFT,,f,1.7314,space,2.3045,,,,,,,,,,,,,,,,,,,,,,,,,,,
5ec2720ae69a920447fa71a4,2023-06-16_18h52.17.560,phx_ver10,2022.2.5,Win32,59.96282305,,,,,,,,,,,,,,,,,,,,,,,,,,,,,,,space,2.1157,,,,,,,,,,,,,,,,,,,,
5ec2720ae69a920447fa71a4,2023-06-16_18h52.17.560,phx_ver10,2022.2.5,Win32,59.96282305,,,,,,,,,,,,,,,,,,,,,,,,,,,,,,,,,space,21.0718,,,,,,,,,,,,,,,,,,
5ec2720ae69a920447fa71a4,2023-06-16_18h52.17.560,phx_ver10,2022.2.5,Win32,59.96282305,,,,,,,,,,,,1,testing_pre,,,,ifi.wav,ifi.wav,,TRUE,,,,,,,,,,,,,,,f,9.4529,space,10.9481,0,0,0,0,1,,,,,,,,,
5ec2720ae69a920447fa71a4,2023-06-16_18h52.17.560,phx_ver10,2022.2.5,Win32,59.96282305,,,,,,,,,,,,5,testing_pre,,,,ihi.wav,ifi.wav,,FALSE,,,,,,,,,,,,,,,f,3.8549,space,4.408,0,1,1,4,1,,,,,,,,,
5ec2720ae69a920447fa71a4,2023-06-16_18h52.17.560,phx_ver10,2022.2.5,Win32,59.96282305,,,,,,,,,,,,2,testing_pre,,,,auhau.wav,aufau.wav,,FALSE,,,,,,,,,,,,,,,j,1.66,space,2.5767,0,2,2,1,1,,,,,,,,,
5ec2720ae69a920447fa71a4,2023-06-16_18h52.17.560,phx_ver10,2022.2.5,Win32,59.96282305,,,,,,,,,,,,3,testing_pre,,,,afa.wav,aha.wav,,FALSE,,,,,,,,,,,,,,,j,1.5192,space,2.0687,0,3,3,2,1,,,,,,,,,
5ec2720ae69a920447fa71a4,2023-06-16_18h52.17.560,phx_ver10,2022.2.5,Win32,59.96282305,,,,,,,,,,,,4,testing_pre,,,,eihei.wav,eihei.wav,,TRUE,,,,,,,,,,,,,,,f,1.442,space,1.9716,0,4,4,3,1,,,,,,,,,
5ec2720ae69a920447fa71a4,2023-06-16_18h52.17.560,phx_ver10,2022.2.5,Win32,59.96282305,,,,,,,,,,,,,,,,,,,,,,,,,,,,,,,,,,,,,,,,,,,,space,1.3651,,,,,,,
5ec2720ae69a920447fa71a4,2023-06-16_18h52.17.560,phx_ver10,2022.2.5,Win32,59.96282305,,,,,,,,,,,,97,testing_3,sh2x,a,sh2x_a,sh2x_1_asha.wav,sh2x_1_asha.wav,,TRUE,FALSE,,,,,,,,,,,,,,f,2.384,space,2.8503,,,,,,,,0,0,0,96,1,,
5ec2720ae69a920447fa71a4,2023-06-16_18h52.17.560,phx_ver10,2022.2.5,Win32,59.96282305,,,,,,,,,,,,75,testing_3,j2x,a,j2x_a,j2x_1_aja.wav,j2x_8_axa.wav,,FALSE,FALSE,,,,,,,,,,,,,,f,1.0196,space,1.6394,,,,,,,,0,1,1,74,1,,
5ec2720ae69a920447fa71a4,2023-06-16_18h52.17.560,phx_ver10,2022.2.5,Win32,59.96282305,,,,,,,,,,,,116,testing_3,sh2x,ei,sh2x_ei,sh2x_8_eixei.wav,sh2x_1_eishei.wav,,FALSE,FALSE,,,,,,,,,,,,,,f,0.1394,space,0.6407,,,,,,,,0,2,2,115,1,,
5ec2720ae69a920447fa71a4,2023-06-16_18h52.17.560,phx_ver10,2022.2.5,Win32,59.96282305,,,,,,,,,,,,59,testing_3,zh2j,au,zh2j_au,zh2j_1_auzhau.wav,zh2j_8_aujau.wav,,FALSE,FALSE,,,,,,,,,,,,,,f,0.3116,space,0.735,,,,,,,,0,3,3,58,1,,
5ec2720ae69a920447fa71a4,2023-06-16_18h52.17.560,phx_ver10,2022.2.5,Win32,59.96282305,,,,,,,,,,,,81,testing_3,j2x,au,j2x_au,j2x_1_aujau.wav,j2x_1_aujau.wav,,TRUE,FALSE,,,,,,,,,,,,,,f,0.5108,space,0.9853,,,,,,,,0,4,4,80,1,,
5ec2720ae69a920447fa71a4,2023-06-16_18h52.17.560,phx_ver10,2022.2.5,Win32,59.96282305,,,,,,,,,,,,90,testing_3,j2x,ei,j2x_ei,j2x_8_eixei.wav,j2x_8_eixei.wav,,TRUE,FALSE,,,,,,,,,,,,,,f,0.3191,space,0.7184,,,,,,,,0,5,5,89,1,,
5ec2720ae69a920447fa71a4,2023-06-16_18h52.17.560,phx_ver10,2022.2.5,Win32,59.96282305,,,,,,,,,,,,134,testing_3,sh2j,e,sh2j_e,sh2j_8_eje.wav,sh2j_8_eje.wav,,TRUE,FALSE,,,,,,,,,,,,,,f,0.2778,space,0.6942,,,,,,,,0,6,6,133,1,,
5ec2720ae69a920447fa71a4,2023-06-16_18h52.17.560,phx_ver10,2022.2.5,Win32,59.96282305,,,,,,,,,,,,46,testing_3,zh2sh,i,zh2sh_i,zh2sh_8_ishi.wav,zh2sh_8_ishi.wav,,TRUE,FALSE,,,,,,,,,,,,,,f,0.4014,space,0.8675,,,,,,,,0,7,7,45,1,,
5ec2720ae69a920447fa71a4,2023-06-16_18h52.17.560,phx_ver10,2022.2.5,Win32,59.96282305,,,,,,,,,,,,110,testing_3,sh2x,e,sh2x_e,sh2x_8_exe.wav,sh2x_8_exe.wav,,TRUE,FALSE,,,,,,,,,,,,,,f,0.208,space,0.6513,,,,,,,,0,8,8,109,1,,
5ec2720ae69a920447fa71a4,2023-06-16_18h52.17.560,phx_ver10,2022.2.5,Win32,59.96282305,,,,,,,,,,,,71,testing_3,zh2j,i,zh2j_i,zh2j_1_izhi.wav,zh2j_8_iji.wav,,FALSE,FALSE,,,,,,,,,,,,,,f,0.151,space,0.585,,,,,,,,0,9,9,70,1,,
5ec2720ae69a920447fa71a4,2023-06-16_18h52.17.560,phx_ver10,2022.2.5,Win32,59.96282305,,,,,,,,,,,,33,testing_3,zh2sh,au,zh2sh_au,zh2sh_1_auzhau.wav,zh2sh_1_auzhau.wav,,TRUE,FALSE,,,,,,,,,,,,,,f,2.0981,space,3.1729,,,,,,,,0,10,10,32,1,,
5ec2720ae69a920447fa71a4,2023-06-16_18h52.17.560,phx_ver10,2022.2.5,Win32,59.96282305,,,,,,,,,,,,17,testing_2,zh2x,au,zh2x_au,zh2x_1_auzhau.wav,zh2x_1_auzhau.wav,,TRUE,FALSE,,,,,,,,,,,,,,f,0.2846,space,0.6513,,,,,,,,0,11,11,16,1,,
5ec2720ae69a920447fa71a4,2023-06-16_18h52.17.560,phx_ver10,2022.2.5,Win32,59.96282305,,,,,,,,,,,,47,testing_3,zh2sh,i,zh2sh_i,zh2sh_1_izhi.wav,zh2sh_8_ishi.wav,,FALSE,FALSE,,,,,,,,,,,,,,j,1.256,space,1.5997,,,,,,,,0,12,12,46,1,,
5ec2720ae69a920447fa71a4,2023-06-16_18h52.17.560,phx_ver10,2022.2.5,Win32,59.96282305,,,,,,,,,,,,121,testing_3,sh2j,a,sh2j_a,sh2j_1_asha.wav,sh2j_1_asha.wav,,TRUE,FALSE,,,,,,,,,,,,,,f,0.5853,space,0.9183,,,,,,,,0,13,13,120,1,,
5ec2720ae69a920447fa71a4,2023-06-16_18h52.17.560,phx_ver10,2022.2.5,Win32,59.96282305,,,,,,,,,,,,101,testing_3,sh2x,ai,sh2x_ai,sh2x_1_aishai.wav,sh2x_1_aishai.wav,,TRUE,FALSE,,,,,,,,,,,,,,f,0.2366,space,0.5678,,,,,,,,0,14,14,100,1,,
5ec2720ae69a920447fa71a4,2023-06-16_18h52.17.560,phx_ver10,2022.2.5,Win32,59.96282305,,,,,,,,,,,,21,testing_2,zh2x,ei,zh2x_ei,zh2x_1_eizhei.wav,zh2x_1_eizhei.wav,,TRUE,FALSE,,,,,,,,,,,,,,f,0.1347,space,0.4178,,,,,,,,0,15,15,20,1,,
5ec2720ae69a920447fa71a4,2023-06-16_18h52.17.560,phx_ver10,2022.2.5,Win32,59.96282305,,,,,,,,,,,,54,testing_3,zh2j,ai,zh2j_ai,zh2j_8_aijai.wav,zh2j_8_aijai.wav,,TRUE,FALSE,,,,,,,,,,,,,,f,0.1454,space,0.3853,,,,,,,,0,16,16,53,1,,
5ec2720ae69a920447fa71a4,2023-06-16_18h52.17.560,phx_ver10,2022.2.5,Win32,59.96282305,,,,,,,,,,,,58,testing_3,zh2j,au,zh2j_au,zh2j_8_aujau.wav,zh2j_8_aujau.wav,,TRUE,FALSE,,,,,,,,,,,,,,f,0.1853,space,0.3845,,,,,,,,0,17,17,57,1,,
5ec2720ae69a920447fa71a4,2023-06-16_18h52.17.560,phx_ver10,2022.2.5,Win32,59.96282305,,,,,,,,,,,,85,testing_3,j2x,e,j2x_e,j2x_1_eje.wav,j2x_1_eje.wav,,TRUE,FALSE,,,,,,,,,,,,,,f,0.0516,space,0.2502,,,,,,,,0,18,18,84,1,,
5ec2720ae69a920447fa71a4,2023-06-16_18h52.17.560,phx_ver10,2022.2.5,Win32,59.96282305,,,,,,,,,,,,88,testing_3,j2x,e,j2x_e,j2x_8_exe.wav,j2x_1_eje.wav,,FALSE,FALSE,,,,,,,,,,,,,,f,0.2171,space,0.3674,,,,,,,,0,19,19,87,1,,
5ec2720ae69a920447fa71a4,2023-06-16_18h52.17.560,phx_ver10,2022.2.5,Win32,59.96282305,,,,,,,,,,,,20,testing_2,zh2x,au,zh2x_au,zh2x_8_auxau.wav,zh2x_1_auzhau.wav,,FALSE,FALSE,,,,,,,,,,,,,,j,0.6852,space,0.991,,,,,,,,0,20,20,19,1,,
5ec2720ae69a920447fa71a4,2023-06-16_18h52.17.560,phx_ver10,2022.2.5,Win32,59.96282305,,,,,,,,,,,,99,testing_3,sh2x,a,sh2x_a,sh2x_1_asha.wav,sh2x_8_axa.wav,,FALSE,FALSE,,,,,,,,,,,,,,j,3.2129,space,3.4166,,,,,,,,0,21,21,98,1,,
5ec2720ae69a920447fa71a4,2023-06-16_18h52.17.560,phx_ver10,2022.2.5,Win32,59.96282305,,,,,,,,,,,,138,testing_3,sh2j,ei,sh2j_ei,sh2j_8_eijei.wav,sh2j_8_eijei.wav,,TRUE,FALSE,,,,,,,,,,,,,,f,0.4656,space,0.6165,,,,,,,,0,22,22,137,1,,
5ec2720ae69a920447fa71a4,2023-06-16_18h52.17.560,phx_ver10,2022.2.5,Win32,59.96282305,,,,,,,,,,,,131,testing_3,sh2j,au,sh2j_au,sh2j_1_aushau.wav,sh2j_8_aujau.wav,,FALSE,FALSE,,,,,,,,,,,,,,j,0.685,space,0.9357,,,,,,,,0,23,23,130,1,,
5ec2720ae69a920447fa71a4,2023-06-16_18h52.17.560,phx_ver10,2022.2.5,Win32,59.96282305,,,,,,,,,,,,122,testing_3,sh2j,a,sh2j_a,sh2j_8_aja.wav,sh2j_8_aja.wav,,TRUE,FALSE,,,,,,,,,,,,,,f,0.6316,space,0.821,,,,,,,,0,24,24,121,1,,
5ec2720ae69a920447fa71a4,2023-06-16_18h52.17.560,phx_ver10,2022.2.5,Win32,59.96282305,,,,,,,,,,,,53,testing_3,zh2j,ai,zh2j_ai,zh2j_1_aizhai.wav,zh2j_1_aizhai.wav,,TRUE,FALSE,,,,,,,,,,,,,,f,0.0681,space,0.2347,,,,,,,,0,25,25,52,1,,
5ec2720ae69a920447fa71a4,2023-06-16_18h52.17.560,phx_ver10,2022.2.5,Win32,59.96282305,,,,,,,,,,,,118,testing_3,sh2x,i,sh2x_i,sh2x_8_ixi.wav,sh2x_8_ixi.wav,,TRUE,FALSE,,,,,,,,,,,,,,f,0.2676,space,0.503,,,,,,,,0,26,26,117,1,,
5ec2720ae69a920447fa71a4,2023-06-16_18h52.17.560,phx_ver10,2022.2.5,Win32,59.96282305,,,,,,,,,,,,78,testing_3,j2x,ai,j2x_ai,j2x_8_aixai.wav,j2x_8_aixai.wav,,TRUE,FALSE,,,,,,,,,,,,,,f,0.0065,space,0.1899,,,,,,,,0,27,27,77,1,,
5ec2720ae69a920447fa71a4,2023-06-16_18h52.17.560,phx_ver10,2022.2.5,Win32,59.96282305,,,,,,,,,,,,38,testing_3,zh2sh,e,zh2sh_e,zh2sh_8_eshe.wav,zh2sh_8_eshe.wav,,TRUE,FALSE,,,,,,,,,,,,,,f,0.076,space,0.2836,,,,,,,,0,28,28,37,1,,
5ec2720ae69a920447fa71a4,2023-06-16_18h52.17.560,phx_ver10,2022.2.5,Win32,59.96282305,,,,,,,,,,,,129,testing_3,sh2j,au,sh2j_au,sh2j_1_aushau.wav,sh2j_1_aushau.wav,,TRUE,FALSE,,,,,,,,,,,,,,f,0.0181,space,0.1726,,,,,,,,0,29,29,128,1,,
5ec2720ae69a920447fa71a4,2023-06-16_18h52.17.560,phx_ver10,2022.2.5,Win32,59.96282305,,,,,,,,,,,,144,testing_3,sh2j,i,sh2j_i,sh2j_8_iji.wav,sh2j_1_ishi.wav,,FALSE,FALSE,,,,,,,,,,,,,,j,0.3909,space,0.6669,,,,,,,,0,30,30,143,1,,
5ec2720ae69a920447fa71a4,2023-06-16_18h52.17.560,phx_ver10,2022.2.5,Win32,59.96282305,,,,,,,,,,,,60,testing_3,zh2j,au,zh2j_au,zh2j_8_aujau.wav,zh2j_1_auzhau.wav,,FALSE,FALSE,,,,,,,,,,,,,,f,0.2846,space,0.4416,,,,,,,,0,31,31,59,1,,
5ec2720ae69a920447fa71a4,2023-06-16_18h52.17.560,phx_ver10,2022.2.5,Win32,59.96282305,,,,,,,,,,,,36,testing_3,zh2sh,au,zh2sh_au,zh2sh_8_aushau.wav,zh2sh_1_auzhau.wav,,FALSE,FALSE,,,,,,,,,,,,,,j,0.4702,space,0.6957,,,,,,,,0,32,32,35,1,,
5ec2720ae69a920447fa71a4,2023-06-16_18h52.17.560,phx_ver10,2022.2.5,Win32,59.96282305,,,,,,,,,,,,51,testing_3,zh2j,a,zh2j_a,zh2j_1_azha.wav,zh2j_8_aja.wav,,FALSE,FALSE,,,,,,,,,,,,,,f,0.2046,space,0.3851,,,,,,,,0,33,33,50,1,,
5ec2720ae69a920447fa71a4,2023-06-16_18h52.17.560,phx_ver10,2022.2.5,Win32,59.96282305,,,,,,,,,,,,6,testing_1,zh2x,e,zh2x_e,zh2x_8_exe.wav,zh2x_8_exe_copy.wav,,TRUE,TRUE,,,,,,,,,,,,,,f,0.1351,space,0.2915,,,,,,,,0,34,34,5,1,,
5ec2720ae69a920447fa71a4,2023-06-16_18h52.17.560,phx_ver10,2022.2.5,Win32,59.96282305,,,,,,,,,,,,1,testing_1,zh2x,a,zh2x_a,zh2x_1_azha.wav,zh2x_1_azha_copy.wav,,TRUE,TRUE,,,,,,,,,,,,,,f,0.0182,space,0.1352,,,,,,,,0,35,35,0,1,,
5ec2720ae69a920447fa71a4,2023-06-16_18h52.17.560,phx_ver10,2022.2.5,Win32,59.96282305,,,,,,,,,,,,56,testing_3,zh2j,ai,zh2j_ai,zh2j_8_aijai.wav,zh2j_1_aizhai.wav,,FALSE,FALSE,,,,,,,,,,,,,,f,0.1526,space,0.3109,,,,,,,,0,36,36,55,1,,
5ec2720ae69a920447fa71a4,2023-06-16_18h52.17.560,phx_ver10,2022.2.5,Win32,59.96282305,,,,,,,,,,,,119,testing_3,sh2x,i,sh2x_i,sh2x_1_ishi.wav,sh2x_8_ixi.wav,,FALSE,FALSE,,,,,,,,,,,,,,f,0.1575,space,0.3171,,,,,,,,0,37,37,118,1,,
5ec2720ae69a920447fa71a4,2023-06-16_18h52.17.560,phx_ver10,2022.2.5,Win32,59.96282305,,,,,,,,,,,,40,testing_3,zh2sh,e,zh2sh_e,zh2sh_8_eshe.wav,zh2sh_1_ezhe.wav,,FALSE,FALSE,,,,,,,,,,,,,,j,0.7834,space,1.0333,,,,,,,,0,38,38,39,1,,
5ec2720ae69a920447fa71a4,2023-06-16_18h52.17.560,phx_ver10,2022.2.5,Win32,59.96282305,,,,,,,,,,,,44,testing_3,zh2sh,ei,zh2sh_ei,zh2sh_8_eishei.wav,zh2sh_1_eizhei.wav,,FALSE,FALSE,,,,,,,,,,,,,,j,2.6174,space,2.7852,,,,,,,,0,39,39,43,1,,
5ec2720ae69a920447fa71a4,2023-06-16_18h52.17.560,phx_ver10,2022.2.5,Win32,59.96282305,,,,,,,,,,,,135,testing_3,sh2j,e,sh2j_e,sh2j_1_eshe.wav,sh2j_8_eje.wav,,FALSE,FALSE,,,,,,,,,,,,,,j,0.6897,space,0.9343,,,,,,,,0,40,40,134,1,,
5ec2720ae69a920447fa71a4,2023-06-16_18h52.17.560,phx_ver10,2022.2.5,Win32,59.96282305,,,,,,,,,,,,141,testing_3,sh2j,i,sh2j_i,sh2j_1_ishi.wav,sh2j_1_ishi.wav,,TRUE,FALSE,,,,,,,,,,,,,,f,0.1171,space,0.2509,,,,,,,,0,41,41,140,1,,
5ec2720ae69a920447fa71a4,2023-06-16_18h52.17.560,phx_ver10,2022.2.5,Win32,59.96282305,,,,,,,,,,,,5,testing_1,zh2x,e,zh2x_e,zh2x_1_ezhe.wav,zh2x_1_ezhe_copy.wav,,TRUE,TRUE,,,,,,,,,,,,,,f,0.0579,space,0.1913,,,,,,,,0,42,42,4,1,,
5ec2720ae69a920447fa71a4,2023-06-16_18h52.17.560,phx_ver10,2022.2.5,Win32,59.96282305,,,,,,,,,,,,72,testing_3,zh2j,i,zh2j_i,zh2j_8_iji.wav,zh2j_1_izhi.wav,,FALSE,FALSE,,,,,,,,,,,,,,f,0.0445,space,0.1661,,,,,,,,0,43,43,71,1,,
5ec2720ae69a920447fa71a4,2023-06-16_18h52.17.560,phx_ver10,2022.2.5,Win32,59.96282305,,,,,,,,,,,,30,testing_3,zh2sh,ai,zh2sh_ai,zh2sh_8_aishai.wav,zh2sh_8_aishai.wav,,TRUE,FALSE,,,,,,,,,,,,,,f,0.0685,space,0.1949,,,,,,,,0,44,44,29,1,,
5ec2720ae69a920447fa71a4,2023-06-16_18h52.17.560,phx_ver10,2022.2.5,Win32,59.96282305,,,,,,,,,,,,65,testing_3,zh2j,ei,zh2j_ei,zh2j_1_eizhei.wav,zh2j_1_eizhei.wav,,TRUE,FALSE,,,,,,,,,,,,,,f,1.0083,space,1.3171,,,,,,,,0,45,45,64,1,,
5ec2720ae69a920447fa71a4,2023-06-16_18h52.17.560,phx_ver10,2022.2.5,Win32,59.96282305,,,,,,,,,,,,139,testing_3,sh2j,ei,sh2j_ei,sh2j_1_eishei.wav,sh2j_8_eijei.wav,,FALSE,FALSE,,,,,,,,,,,,,,j,0.5603,space,0.811,,,,,,,,0,46,46,138,1,,
5ec2720ae69a920447fa71a4,2023-06-16_18h52.17.560,phx_ver10,2022.2.5,Win32,59.96282305,,,,,,,,,,,,15,testing_2,zh2x,ai,zh2x_ai,zh2x_1_aizhai.wav,zh2x_8_aixai.wav,,FALSE,FALSE,,,,,,,,,,,,,,j,0.4844,space,0.7169,,,,,,,,0,47,47,14,1,,
5ec2720ae69a920447fa71a4,2023-06-16_18h52.17.560,phx_ver10,2022.2.5,Win32,59.96282305,,,,,,,,,,,,127,testing_3,sh2j,ai,sh2j_ai,sh2j_1_aishai.wav,sh2j_8_aijai.wav,,FALSE,FALSE,,,,,,,,,,,,,,j,0.3942,space,0.5944,,,,,,,,0,48,48,126,1,,
5ec2720ae69a920447fa71a4,2023-06-16_18h52.17.560,phx_ver10,2022.2.5,Win32,59.96282305,,,,,,,,,,,,84,testing_3,j2x,au,j2x_au,j2x_8_auxau.wav,j2x_1_aujau.wav,,FALSE,FALSE,,,,,,,,,,,,,,j,0.5341,space,0.7323,,,,,,,,0,49,49,83,1,,
5ec2720ae69a920447fa71a4,2023-06-16_18h52.17.560,phx_ver10,2022.2.5,Win32,59.96282305,,,,,,,,,,,,8,testing_1,zh2x,e,zh2x_e,zh2x_8_exe.wav,zh2x_1_ezhe.wav,,FALSE,TRUE,,,,,,,,,,,,,,j,0.4699,space,0.6871,,,,,,,,0,50,50,7,1,,
5ec2720ae69a920447fa71a4,2023-06-16_18h52.17.560,phx_ver10,2022.2.5,Win32,59.96282305,,,,,,,,,,,,66,testing_3,zh2j,ei,zh2j_ei,zh2j_8_eijei.wav,zh2j_8_eijei.wav,,TRUE,FALSE,,,,,,,,,,,,,,f,0.6179,space,0.784,,,,,,,,0,51,51,65,1,,
5ec2720ae69a920447fa71a4,2023-06-16_18h52.17.560,phx_ver10,2022.2.5,Win32,59.96282305,,,,,,,,,,,,126,testing_3,sh2j,ai,sh2j_ai,sh2j_8_aijai.wav,sh2j_8_aijai.wav,,TRUE,FALSE,,,,,,,,,,,,,,f,0.0477,space,0.1581,,,,,,,,0,52,52,125,1,,
5ec2720ae69a920447fa71a4,2023-06-16_18h52.17.560,phx_ver10,2022.2.5,Win32,59.96282305,,,,,,,,,,,,125,testing_3,sh2j,ai,sh2j_ai,sh2j_1_aishai.wav,sh2j_1_aishai.wav,,TRUE,FALSE,,,,,,,,,,,,,,f,0.1024,space,0.2345,,,,,,,,0,53,53,124,1,,
5ec2720ae69a920447fa71a4,2023-06-16_18h52.17.560,phx_ver10,2022.2.5,Win32,59.96282305,,,,,,,,,,,,67,testing_3,zh2j,ei,zh2j_ei,zh2j_1_eizhei.wav,zh2j_8_eijei.wav,,FALSE,FALSE,,,,,,,,,,,,,,f,0.067,space,0.1933,,,,,,,,0,54,54,66,1,,
5ec2720ae69a920447fa71a4,2023-06-16_18h52.17.560,phx_ver10,2022.2.5,Win32,59.96282305,,,,,,,,,,,,34,testing_3,zh2sh,au,zh2sh_au,zh2sh_8_aushau.wav,zh2sh_8_aushau.wav,,TRUE,FALSE,,,,,,,,,,,,,,f,0.0178,space,0.1528,,,,,,,,0,55,55,33,1,,
5ec2720ae69a920447fa71a4,2023-06-16_18h52.17.560,phx_ver10,2022.2.5,Win32,59.96282305,,,,,,,,,,,,104,testing_3,sh2x,ai,sh2x_ai,sh2x_8_aixai.wav,sh2x_1_aishai.wav,,FALSE,FALSE,,,,,,,,,,,,,,f,0.0346,space,0.1664,,,,,,,,0,56,56,103,1,,
5ec2720ae69a920447fa71a4,2023-06-16_18h52.17.560,phx_ver10,2022.2.5,Win32,59.96282305,,,,,,,,,,,,117,testing_3,sh2x,i,sh2x_i,sh2x_1_ishi.wav,sh2x_1_ishi.wav,,TRUE,FALSE,,,,,,,,,,,,,,f,0.0667,space,0.2004,,,,,,,,0,57,57,116,1,,
5ec2720ae69a920447fa71a4,2023-06-16_18h52.17.560,phx_ver10,2022.2.5,Win32,59.96282305,,,,,,,,,,,,69,testing_3,zh2j,i,zh2j_i,zh2j_1_izhi.wav,zh2j_1_izhi.wav,,TRUE,FALSE,,,,,,,,,,,,,,f,0.0786,space,0.228,,,,,,,,0,58,58,68,1,,
5ec2720ae69a920447fa71a4,2023-06-16_18h52.17.560,phx_ver10,2022.2.5,Win32,59.96282305,,,,,,,,,,,,70,testing_3,zh2j,i,zh2j_i,zh2j_8_iji.wav,zh2j_8_iji.wav,,TRUE,FALSE,,,,,,,,,,,,,,f,0.7506,space,1.0541,,,,,,,,0,59,59,69,1,,
5ec2720ae69a920447fa71a4,2023-06-16_18h52.17.560,phx_ver10,2022.2.5,Win32,59.96282305,,,,,,,,,,,,37,testing_3,zh2sh,e,zh2sh_e,zh2sh_1_ezhe.wav,zh2sh_1_ezhe.wav,,TRUE,FALSE,,,,,,,,,,,,,,f,0.1512,space,0.4362,,,,,,,,0,60,60,36,1,,
5ec2720ae69a920447fa71a4,2023-06-16_18h52.17.560,phx_ver10,2022.2.5,Win32,59.96282305,,,,,,,,,,,,41,testing_3,zh2sh,ei,zh2sh_ei,zh2sh_1_eizhei.wav,zh2sh_1_eizhei.wav,,TRUE,FALSE,,,,,,,,,,,,,,f,0.2402,space,0.4567,,,,,,,,0,61,61,40,1,,
5ec2720ae69a920447fa71a4,2023-06-16_18h52.17.560,phx_ver10,2022.2.5,Win32,59.96282305,,,,,,,,,,,,111,testing_3,sh2x,e,sh2x_e,sh2x_1_eshe.wav,sh2x_8_exe.wav,,FALSE,FALSE,,,,,,,,,,,,,,j,0.9291,space,1.179,,,,,,,,0,62,62,110,1,,
5ec2720ae69a920447fa71a4,2023-06-16_18h52.17.560,phx_ver10,2022.2.5,Win32,59.96282305,,,,,,,,,,,,50,testing_3,zh2j,a,zh2j_a,zh2j_8_aja.wav,zh2j_8_aja.wav,,TRUE,FALSE,,,,,,,,,,,,,,f,0.0898,space,0.2686,,,,,,,,0,63,63,49,1,,
5ec2720ae69a920447fa71a4,2023-06-16_18h52.17.560,phx_ver10,2022.2.5,Win32,59.96282305,,,,,,,,,,,,91,testing_3,j2x,ei,j2x_ei,j2x_1_eijei.wav,j2x_8_eixei.wav,,FALSE,FALSE,,,,,,,,,,,,,,j,0.3345,space,0.5511,,,,,,,,0,64,64,90,1,,
5ec2720ae69a920447fa71a4,2023-06-16_18h52.17.560,phx_ver10,2022.2.5,Win32,59.96282305,,,,,,,,,,,,82,testing_3,j2x,au,j2x_au,j2x_8_auxau.wav,j2x_8_auxau.wav,,TRUE,FALSE,,,,,,,,,,,,,,f,0.0008,space,0.2,,,,,,,,0,65,65,81,1,,
5ec2720ae69a920447fa71a4,2023-06-16_18h52.17.560,phx_ver10,2022.2.5,Win32,59.96282305,,,,,,,,,,,,45,testing_3,zh2sh,i,zh2sh_i,zh2sh_1_izhi.wav,zh2sh_1_izhi.wav,,TRUE,FALSE,,,,,,,,,,,,,,f,0.1286,space,0.3448,,,,,,,,0,66,66,44,1,,
5ec2720ae69a920447fa71a4,2023-06-16_18h52.17.560,phx_ver10,2022.2.5,Win32,59.96282305,,,,,,,,,,,,124,testing_3,sh2j,a,sh2j_a,sh2j_8_aja.wav,sh2j_1_asha.wav,,FALSE,FALSE,,,,,,,,,,,,,,j,0.2671,space,0.4673,,,,,,,,0,67,67,123,1,,
5ec2720ae69a920447fa71a4,2023-06-16_18h52.17.560,phx_ver10,2022.2.5,Win32,59.96282305,,,,,,,,,,,,132,testing_3,sh2j,au,sh2j_au,sh2j_8_aujau.wav,sh2j_1_aushau.wav,,FALSE,FALSE,,,,,,,,,,,,,,j,0.3112,space,0.4947,,,,,,,,0,68,68,131,1,,
5ec2720ae69a920447fa71a4,2023-06-16_18h52.17.560,phx_ver10,2022.2.5,Win32,59.96282305,,,,,,,,,,,,113,testing_3,sh2x,ei,sh2x_ei,sh2x_1_eishei.wav,sh2x_1_eishei.wav,,TRUE,FALSE,,,,,,,,,,,,,,f,0.6603,space,0.9853,,,,,,,,0,69,69,112,1,,
5ec2720ae69a920447fa71a4,2023-06-16_18h52.17.560,phx_ver10,2022.2.5,Win32,59.96282305,,,,,,,,,,,,48,testing_3,zh2sh,i,zh2sh_i,zh2sh_8_ishi.wav,zh2sh_1_izhi.wav,,FALSE,FALSE,,,,,,,,,,,,,,j,0.2097,space,0.4507,,,,,,,,0,70,70,47,1,,
5ec2720ae69a920447fa71a4,2023-06-16_18h52.17.560,phx_ver10,2022.2.5,Win32,59.96282305,,,,,,,,,,,,13,testing_2,zh2x,ai,zh2x_ai,zh2x_1_aizhai.wav,zh2x_1_aizhai.wav,,TRUE,FALSE,,,,,,,,,,,,,,f,0.2434,space,0.4678,,,,,,,,0,71,71,12,1,,
5ec2720ae69a920447fa71a4,2023-06-16_18h52.17.560,phx_ver10,2022.2.5,Win32,59.96282305,,,,,,,,,,,,136,testing_3,sh2j,e,sh2j_e,sh2j_8_eje.wav,sh2j_1_eshe.wav,,FALSE,FALSE,,,,,,,,,,,,,,j,0.285,space,0.5071,,,,,,,,0,72,72,135,1,,
5ec2720ae69a920447fa71a4,2023-06-16_18h52.17.560,phx_ver10,2022.2.5,Win32,59.96282305,,,,,,,,,,,,9,testing_1,zh2x,i,zh2x_i,zh2x_1_izhi.wav,zh2x_1_izhi_copy.wav,,TRUE,TRUE,,,,,,,,,,,,,,f,0.0236,space,0.2072,,,,,,,,0,73,73,8,1,,
5ec2720ae69a920447fa71a4,2023-06-16_18h52.17.560,phx_ver10,2022.2.5,Win32,59.96282305,,,,,,,,,,,,74,testing_3,j2x,a,j2x_a,j2x_8_axa.wav,j2x_8_axa.wav,,TRUE,FALSE,,,,,,,,,,,,,,f,0.0071,space,0.2375,,,,,,,,0,74,74,73,1,,
5ec2720ae69a920447fa71a4,2023-06-16_18h52.17.560,phx_ver10,2022.2.5,Win32,59.96282305,,,,,,,,,,,,114,testing_3,sh2x,ei,sh2x_ei,sh2x_8_eixei.wav,sh2x_8_eixei.wav,,TRUE,FALSE,,,,,,,,,,,,,,f,0.7363,space,1.018,,,,,,,,0,75,75,113,1,,
5ec2720ae69a920447fa71a4,2023-06-16_18h52.17.560,phx_ver10,2022.2.5,Win32,59.96282305,,,,,,,,,,,,107,testing_3,sh2x,au,sh2x_au,sh2x_1_aushau.wav,sh2x_8_auxau.wav,,FALSE,FALSE,,,,,,,,,,,,,,j,0.6009,space,0.8161,,,,,,,,0,76,76,106,1,,
5ec2720ae69a920447fa71a4,2023-06-16_18h52.17.560,phx_ver10,2022.2.5,Win32,59.96282305,,,,,,,,,,,,94,testing_3,j2x,i,j2x_i,j2x_8_ixi.wav,j2x_8_ixi.wav,,TRUE,FALSE,,,,,,,,,,,,,,f,0.114,space,0.623,,,,,,,,0,77,77,93,1,,
5ec2720ae69a920447fa71a4,2023-06-16_18h52.17.560,phx_ver10,2022.2.5,Win32,59.96282305,,,,,,,,,,,,2,testing_1,zh2x,a,zh2x_a,zh2x_8_axa.wav,zh2x_8_axa_copy.wav,,TRUE,TRUE,,,,,,,,,,,,,,f,0.0336,space,0.3339,,,,,,,,0,78,78,1,1,,
5ec2720ae69a920447fa71a4,2023-06-16_18h52.17.560,phx_ver10,2022.2.5,Win32,59.96282305,,,,,,,,,,,,93,testing_3,j2x,i,j2x_i,j2x_1_iji.wav,j2x_1_iji.wav,,TRUE,FALSE,,,,,,,,,,,,,,f,0.0284,space,0.4703,,,,,,,,0,79,79,92,1,,
5ec2720ae69a920447fa71a4,2023-06-16_18h52.17.560,phx_ver10,2022.2.5,Win32,59.96282305,,,,,,,,,,,,64,testing_3,zh2j,e,zh2j_e,zh2j_8_eje.wav,zh2j_1_ezhe.wav,,FALSE,FALSE,,,,,,,,,,,,,,f,0.0363,space,0.4029,,,,,,,,0,80,80,63,1,,
5ec2720ae69a920447fa71a4,2023-06-16_18h52.17.560,phx_ver10,2022.2.5,Win32,59.96282305,,,,,,,,,,,,26,testing_3,zh2sh,a,zh2sh_a,zh2sh_8_asha.wav,zh2sh_8_asha.wav,,TRUE,FALSE,,,,,,,,,,,,,,f,0.0247,space,0.3313,,,,,,,,0,81,81,25,1,,
5ec2720ae69a920447fa71a4,2023-06-16_18h52.17.560,phx_ver10,2022.2.5,Win32,59.96282305,,,,,,,,,,,,142,testing_3,sh2j,i,sh2j_i,sh2j_8_iji.wav,sh2j_8_iji.wav,,TRUE,FALSE,,,,,,,,,,,,,,f,0.1064,space,0.4678,,,,,,,,0,82,82,141,1,,
5ec2720ae69a920447fa71a4,2023-06-16_18h52.17.560,phx_ver10,2022.2.5,Win32,59.96282305,,,,,,,,,,,,28,testing_3,zh2sh,a,zh2sh_a,zh2sh_8_asha.wav,zh2sh_1_azha.wav,,FALSE,FALSE,,,,,,,,,,,,,,j,0.351,space,0.5515,,,,,,,,0,83,83,27,1,,
5ec2720ae69a920447fa71a4,2023-06-16_18h52.17.560,phx_ver10,2022.2.5,Win32,59.96282305,,,,,,,,,,,,109,testing_3,sh2x,e,sh2x_e,sh2x_1_eshe.wav,sh2x_1_eshe.wav,,TRUE,FALSE,,,,,,,,,,,,,,f,0.0843,space,0.4015,,,,,,,,0,84,84,108,1,,
5ec2720ae69a920447fa71a4,2023-06-16_18h52.17.560,phx_ver10,2022.2.5,Win32,59.96282305,,,,,,,,,,,,89,testing_3,j2x,ei,j2x_ei,j2x_1_eijei.wav,j2x_1_eijei.wav,,TRUE,FALSE,,,,,,,,,,,,,,f,0.0415,space,0.2903,,,,,,,,0,85,85,88,1,,
5ec2720ae69a920447fa71a4,2023-06-16_18h52.17.560,phx_ver10,2022.2.5,Win32,59.96282305,,,,,,,,,,,,79,testing_3,j2x,ai,j2x_ai,j2x_1_aijai.wav,j2x_8_aixai.wav,,FALSE,FALSE,,,,,,,,,,,,,,j,0.2676,space,0.4504,,,,,,,,0,86,86,78,1,,
5ec2720ae69a920447fa71a4,2023-06-16_18h52.17.560,phx_ver10,2022.2.5,Win32,59.96282305,,,,,,,,,,,,63,testing_3,zh2j,e,zh2j_e,zh2j_1_ezhe.wav,zh2j_8_eje.wav,,FALSE,FALSE,,,,,,,,,,,,,,f,0.184,space,0.4403,,,,,,,,0,87,87,62,1,,
5ec2720ae69a920447fa71a4,2023-06-16_18h52.17.560,phx_ver10,2022.2.5,Win32,59.96282305,,,,,,,,,,,,103,testing_3,sh2x,ai,sh2x_ai,sh2x_1_aishai.wav,sh2x_8_aixai.wav,,FALSE,FALSE,,,,,,,,,,,,,,f,0.0647,space,0.3507,,,,,,,,0,88,88,102,1,,
5ec2720ae69a920447fa71a4,2023-06-16_18h52.17.560,phx_ver10,2022.2.5,Win32,59.96282305,,,,,,,,,,,,102,testing_3,sh2x,ai,sh2x_ai,sh2x_8_aixai.wav,sh2x_8_aixai.wav,,TRUE,FALSE,,,,,,,,,,,,,,f,0.0073,space,0.3018,,,,,,,,0,89,89,101,1,,
5ec2720ae69a920447fa71a4,2023-06-16_18h52.17.560,phx_ver10,2022.2.5,Win32,59.96282305,,,,,,,,,,,,10,testing_1,zh2x,i,zh2x_i,zh2x_8_ixi.wav,zh2x_8_ixi_copy.wav,,TRUE,TRUE,,,,,,,,,,,,,,f,0.1869,space,0.4409,,,,,,,,0,90,90,9,1,,
5ec2720ae69a920447fa71a4,2023-06-16_18h52.17.560,phx_ver10,2022.2.5,Win32,59.96282305,,,,,,,,,,,,98,testing_3,sh2x,a,sh2x_a,sh2x_8_axa.wav,sh2x_8_axa.wav,,TRUE,FALSE,,,,,,,,,,,,,,f,0.0845,space,0.2742,,,,,,,,0,91,91,97,1,,
5ec2720ae69a920447fa71a4,2023-06-16_18h52.17.560,phx_ver10,2022.2.5,Win32,59.96282305,,,,,,,,,,,,92,testing_3,j2x,ei,j2x_ei,j2x_8_eixei.wav,j2x_1_eijei.wav,,FALSE,FALSE,,,,,,,,,,,,,,j,0.3177,space,0.584,,,,,,,,0,92,92,91,1,,
5ec2720ae69a920447fa71a4,2023-06-16_18h52.17.560,phx_ver10,2022.2.5,Win32,59.96282305,,,,,,,,,,,,123,testing_3,sh2j,a,sh2j_a,sh2j_1_asha.wav,sh2j_8_aja.wav,,FALSE,FALSE,,,,,,,,,,,,,,j,0.5665,space,0.7679,,,,,,,,0,93,93,122,1,,
5ec2720ae69a920447fa71a4,2023-06-16_18h52.17.560,phx_ver10,2022.2.5,Win32,59.96282305,,,,,,,,,,,,11,testing_1,zh2x,i,zh2x_i,zh2x_1_izhi.wav,zh2x_8_ixi.wav,,FALSE,TRUE,,,,,,,,,,,,,,j,0.3512,space,0.5912,,,,,,,,0,94,94,10,1,,
5ec2720ae69a920447fa71a4,2023-06-16_18h52.17.560,phx_ver10,2022.2.5,Win32,59.96282305,,,,,,,,,,,,120,testing_3,sh2x,i,sh2x_i,sh2x_8_ixi.wav,sh2x_1_ishi.wav,,FALSE,FALSE,,,,,,,,,,,,,,f,0.0362,space,0.3002,,,,,,,,0,95,95,119,1,,
5ec2720ae69a920447fa71a4,2023-06-16_18h52.17.560,phx_ver10,2022.2.5,Win32,59.96282305,,,,,,,,,,,,73,testing_3,j2x,a,j2x_a,j2x_1_aja.wav,j2x_1_aja.wav,,TRUE,FALSE,,,,,,,,,,,,,,f,0.0008,space,0.2173,,,,,,,,0,96,96,72,1,,
5ec2720ae69a920447fa71a4,2023-06-16_18h52.17.560,phx_ver10,2022.2.5,Win32,59.96282305,,,,,,,,,,,,23,testing_2,zh2x,ei,zh2x_ei,zh2x_1_eizhei.wav,zh2x_8_eixei.wav,,FALSE,FALSE,,,,,,,,,,,,,,j,0.2013,space,0.4015,,,,,,,,0,97,97,22,1,,
5ec2720ae69a920447fa71a4,2023-06-16_18h52.17.560,phx_ver10,2022.2.5,Win32,59.96282305,,,,,,,,,,,,57,testing_3,zh2j,au,zh2j_au,zh2j_1_auzhau.wav,zh2j_1_auzhau.wav,,TRUE,FALSE,,,,,,,,,,,,,,f,0.4071,space,0.5931,,,,,,,,0,98,98,56,1,,
5ec2720ae69a920447fa71a4,2023-06-16_18h52.17.560,phx_ver10,2022.2.5,Win32,59.96282305,,,,,,,,,,,,49,testing_3,zh2j,a,zh2j_a,zh2j_1_azha.wav,zh2j_1_azha.wav,,TRUE,FALSE,,,,,,,,,,,,,,f,0.0012,space,0.2169,,,,,,,,0,99,99,48,1,,
5ec2720ae69a920447fa71a4,2023-06-16_18h52.17.560,phx_ver10,2022.2.5,Win32,59.96282305,,,,,,,,,,,,55,testing_3,zh2j,ai,zh2j_ai,zh2j_1_aizhai.wav,zh2j_8_aijai.wav,,FALSE,FALSE,,,,,,,,,,,,,,f,0.1661,space,0.3845,,,,,,,,0,100,100,54,1,,
5ec2720ae69a920447fa71a4,2023-06-16_18h52.17.560,phx_ver10,2022.2.5,Win32,59.96282305,,,,,,,,,,,,105,testing_3,sh2x,au,sh2x_au,sh2x_1_aushau.wav,sh2x_1_aushau.wav,,TRUE,FALSE,,,,,,,,,,,,,,f,0.0489,space,0.2836,,,,,,,,0,101,101,104,1,,
5ec2720ae69a920447fa71a4,2023-06-16_18h52.17.560,phx_ver10,2022.2.5,Win32,59.96282305,,,,,,,,,,,,22,testing_2,zh2x,ei,zh2x_ei,zh2x_8_eixei.wav,zh2x_8_eixei.wav,,TRUE,FALSE,,,,,,,,,,,,,,f,0.1455,space,0.3622,,,,,,,,0,102,102,21,1,,
5ec2720ae69a920447fa71a4,2023-06-16_18h52.17.560,phx_ver10,2022.2.5,Win32,59.96282305,,,,,,,,,,,,68,testing_3,zh2j,ei,zh2j_ei,zh2j_8_eijei.wav,zh2j_1_eizhei.wav,,FALSE,FALSE,,,,,,,,,,,,,,f,0.0572,space,0.3068,,,,,,,,0,103,103,67,1,,
5ec2720ae69a920447fa71a4,2023-06-16_18h52.17.560,phx_ver10,2022.2.5,Win32,59.96282305,,,,,,,,,,,,133,testing_3,sh2j,e,sh2j_e,sh2j_1_eshe.wav,sh2j_1_eshe.wav,,TRUE,FALSE,,,,,,,,,,,,,,f,0.1009,space,0.3024,,,,,,,,0,104,104,132,1,,
5ec2720ae69a920447fa71a4,2023-06-16_18h52.17.560,phx_ver10,2022.2.5,Win32,59.96282305,,,,,,,,,,,,115,testing_3,sh2x,ei,sh2x_ei,sh2x_1_eishei.wav,sh2x_8_eixei.wav,,FALSE,FALSE,,,,,,,,,,,,,,f,0.1593,space,0.4439,,,,,,,,0,105,105,114,1,,
5ec2720ae69a920447fa71a4,2023-06-16_18h52.17.560,phx_ver10,2022.2.5,Win32,59.96282305,,,,,,,,,,,,3,testing_1,zh2x,a,zh2x_a,zh2x_1_azha.wav,zh2x_8_axa.wav,,FALSE,TRUE,,,,,,,,,,,,,,j,0.5958,space,0.7783,,,,,,,,0,106,106,2,1,,
5ec2720ae69a920447fa71a4,2023-06-16_18h52.17.560,phx_ver10,2022.2.5,Win32,59.96282305,,,,,,,,,,,,14,testing_2,zh2x,ai,zh2x_ai,zh2x_8_aixai.wav,zh2x_8_aixai.wav,,TRUE,FALSE,,,,,,,,,,,,,,f,0.0007,space,0.2508,,,,,,,,0,107,107,13,1,,
5ec2720ae69a920447fa71a4,2023-06-16_18h52.17.560,phx_ver10,2022.2.5,Win32,59.96282305,,,,,,,,,,,,80,testing_3,j2x,ai,j2x_ai,j2x_8_aixai.wav,j2x_1_aijai.wav,,FALSE,FALSE,,,,,,,,,,,,,,j,0.4671,space,0.6669,,,,,,,,0,108,108,79,1,,
5ec2720ae69a920447fa71a4,2023-06-16_18h52.17.560,phx_ver10,2022.2.5,Win32,59.96282305,,,,,,,,,,,,61,testing_3,zh2j,e,zh2j_e,zh2j_1_ezhe.wav,zh2j_1_ezhe.wav,,TRUE,FALSE,,,,,,,,,,,,,,f,0.0795,space,0.3466,,,,,,,,0,109,109,60,1,,
5ec2720ae69a920447fa71a4,2023-06-16_18h52.17.560,phx_ver10,2022.2.5,Win32,59.96282305,,,,,,,,,,,,87,testing_3,j2x,e,j2x_e,j2x_1_eje.wav,j2x_8_exe.wav,,FALSE,FALSE,,,,,,,,,,,,,,j,0.5769,space,0.8205,,,,,,,,0,110,110,86,1,,
5ec2720ae69a920447fa71a4,2023-06-16_18h52.17.560,phx_ver10,2022.2.5,Win32,59.96282305,,,,,,,,,,,,24,testing_2,zh2x,ei,zh2x_ei,zh2x_8_eixei.wav,zh2x_1_eizhei.wav,,FALSE,FALSE,,,,,,,,,,,,,,j,0.4116,space,0.5974,,,,,,,,0,111,111,23,1,,
5ec2720ae69a920447fa71a4,2023-06-16_18h52.17.560,phx_ver10,2022.2.5,Win32,59.96282305,,,,,,,,,,,,83,testing_3,j2x,au,j2x_au,j2x_1_aujau.wav,j2x_8_auxau.wav,,FALSE,FALSE,,,,,,,,,,,,,,j,0.4507,space,0.6681,,,,,,,,0,112,112,82,1,,
5ec2720ae69a920447fa71a4,2023-06-16_18h52.17.560,phx_ver10,2022.2.5,Win32,59.96282305,,,,,,,,,,,,128,testing_3,sh2j,ai,sh2j_ai,sh2j_8_aijai.wav,sh2j_1_aishai.wav,,FALSE,FALSE,,,,,,,,,,,,,,j,0.3856,space,0.5832,,,,,,,,0,113,113,127,1,,
5ec2720ae69a920447fa71a4,2023-06-16_18h52.17.560,phx_ver10,2022.2.5,Win32,59.96282305,,,,,,,,,,,,86,testing_3,j2x,e,j2x_e,j2x_8_exe.wav,j2x_8_exe.wav,,TRUE,FALSE,,,,,,,,,,,,,,f,0.156,space,0.3695,,,,,,,,0,114,114,85,1,,
5ec2720ae69a920447fa71a4,2023-06-16_18h52.17.560,phx_ver10,2022.2.5,Win32,59.96282305,,,,,,,,,,,,112,testing_3,sh2x,e,sh2x_e,sh2x_8_exe.wav,sh2x_1_eshe.wav,,FALSE,FALSE,,,,,,,,,,,,,,j,0.5122,space,0.7184,,,,,,,,0,115,115,111,1,,
5ec2720ae69a920447fa71a4,2023-06-16_18h52.17.560,phx_ver10,2022.2.5,Win32,59.96282305,,,,,,,,,,,,108,testing_3,sh2x,au,sh2x_au,sh2x_8_auxau.wav,sh2x_1_aushau.wav,,FALSE,FALSE,,,,,,,,,,,,,,j,0.3671,space,0.571,,,,,,,,0,116,116,107,1,,
5ec2720ae69a920447fa71a4,2023-06-16_18h52.17.560,phx_ver10,2022.2.5,Win32,59.96282305,,,,,,,,,,,,76,testing_3,j2x,a,j2x_a,j2x_8_axa.wav,j2x_1_aja.wav,,FALSE,FALSE,,,,,,,,,,,,,,j,0.6667,space,0.8613,,,,,,,,0,117,117,75,1,,
5ec2720ae69a920447fa71a4,2023-06-16_18h52.17.560,phx_ver10,2022.2.5,Win32,59.96282305,,,,,,,,,,,,100,testing_3,sh2x,a,sh2x_a,sh2x_8_axa.wav,sh2x_1_asha.wav,,FALSE,FALSE,,,,,,,,,,,,,,f,1.3389,space,1.5615,,,,,,,,0,118,118,99,1,,
5ec2720ae69a920447fa71a4,2023-06-16_18h52.17.560,phx_ver10,2022.2.5,Win32,59.96282305,,,,,,,,,,,,35,testing_3,zh2sh,au,zh2sh_au,zh2sh_1_auzhau.wav,zh2sh_8_aushau.wav,,FALSE,FALSE,,,,,,,,,,,,,,j,0.3484,space,0.5183,,,,,,,,0,119,119,34,1,,
5ec2720ae69a920447fa71a4,2023-06-16_18h52.17.560,phx_ver10,2022.2.5,Win32,59.96282305,,,,,,,,,,,,18,testing_2,zh2x,au,zh2x_au,zh2x_8_auxau.wav,zh2x_8_auxau.wav,,TRUE,FALSE,,,,,,,,,,,,,,j,0.751,space,0.8851,,,,,,,,0,120,120,17,1,,
5ec2720ae69a920447fa71a4,2023-06-16_18h52.17.560,phx_ver10,2022.2.5,Win32,59.96282305,,,,,,,,,,,,29,testing_3,zh2sh,ai,zh2sh_ai,zh2sh_1_aizhai.wav,zh2sh_1_aizhai.wav,,TRUE,FALSE,,,,,,,,,,,,,,f,0.2559,space,0.4174,,,,,,,,0,121,121,28,1,,
5ec2720ae69a920447fa71a4,2023-06-16_18h52.17.560,phx_ver10,2022.2.5,Win32,59.96282305,,,,,,,,,,,,96,testing_3,j2x,i,j2x_i,j2x_8_ixi.wav,j2x_1_iji.wav,,FALSE,FALSE,,,,,,,,,,,,,,j,0.461,space,0.5945,,,,,,,,0,122,122,95,1,,
5ec2720ae69a920447fa71a4,2023-06-16_18h52.17.560,phx_ver10,2022.2.5,Win32,59.96282305,,,,,,,,,,,,4,testing_1,zh2x,a,zh2x_a,zh2x_8_axa.wav,zh2x_1_azha.wav,,FALSE,TRUE,,,,,,,,,,,,,,j,0.2667,space,0.4024,,,,,,,,0,123,123,3,1,,
5ec2720ae69a920447fa71a4,2023-06-16_18h52.17.560,phx_ver10,2022.2.5,Win32,59.96282305,,,,,,,,,,,,140,testing_3,sh2j,ei,sh2j_ei,sh2j_8_eijei.wav,sh2j_1_eishei.wav,,FALSE,FALSE,,,,,,,,,,,,,,j,0.3516,space,0.4851,,,,,,,,0,124,124,139,1,,
5ec2720ae69a920447fa71a4,2023-06-16_18h52.17.560,phx_ver10,2022.2.5,Win32,59.96282305,,,,,,,,,,,,137,testing_3,sh2j,ei,sh2j_ei,sh2j_1_eishei.wav,sh2j_1_eishei.wav,,TRUE,FALSE,,,,,,,,,,,,,,f,0.0804,space,0.2788,,,,,,,,0,125,125,136,1,,
5ec2720ae69a920447fa71a4,2023-06-16_18h52.17.560,phx_ver10,2022.2.5,Win32,59.96282305,,,,,,,,,,,,95,testing_3,j2x,i,j2x_i,j2x_1_iji.wav,j2x_8_ixi.wav,,FALSE,FALSE,,,,,,,,,,,,,,j,0.4019,space,0.5702,,,,,,,,0,126,126,94,1,,
5ec2720ae69a920447fa71a4,2023-06-16_18h52.17.560,phx_ver10,2022.2.5,Win32,59.96282305,,,,,,,,,,,,16,testing_2,zh2x,ai,zh2x_ai,zh2x_8_aixai.wav,zh2x_1_aizhai.wav,,FALSE,FALSE,,,,,,,,,,,,,,j,0.2013,space,0.3312,,,,,,,,0,127,127,15,1,,
5ec2720ae69a920447fa71a4,2023-06-16_18h52.17.560,phx_ver10,2022.2.5,Win32,59.96282305,,,,,,,,,,,,130,testing_3,sh2j,au,sh2j_au,sh2j_8_aujau.wav,sh2j_8_aujau.wav,,TRUE,FALSE,,,,,,,,,,,,,,f,0.0633,space,0.2451,,,,,,,,0,128,128,129,1,,
5ec2720ae69a920447fa71a4,2023-06-16_18h52.17.560,phx_ver10,2022.2.5,Win32,59.96282305,,,,,,,,,,,,39,testing_3,zh2sh,e,zh2sh_e,zh2sh_1_ezhe.wav,zh2sh_8_eshe.wav,,FALSE,FALSE,,,,,,,,,,,,,,j,0.4336,space,0.568,,,,,,,,0,129,129,38,1,,
5ec2720ae69a920447fa71a4,2023-06-16_18h52.17.560,phx_ver10,2022.2.5,Win32,59.96282305,,,,,,,,,,,,7,testing_1,zh2x,e,zh2x_e,zh2x_1_ezhe.wav,zh2x_8_exe.wav,,FALSE,TRUE,,,,,,,,,,,,,,j,0.4167,space,0.5835,,,,,,,,0,130,130,6,1,,
5ec2720ae69a920447fa71a4,2023-06-16_18h52.17.560,phx_ver10,2022.2.5,Win32,59.96282305,,,,,,,,,,,,42,testing_3,zh2sh,ei,zh2sh_ei,zh2sh_8_eishei.wav,zh2sh_8_eishei.wav,,TRUE,FALSE,,,,,,,,,,,,,,f,0.1005,space,0.2665,,,,,,,,0,131,131,41,1,,
5ec2720ae69a920447fa71a4,2023-06-16_18h52.17.560,phx_ver10,2022.2.5,Win32,59.96282305,,,,,,,,,,,,106,testing_3,sh2x,au,sh2x_au,sh2x_8_auxau.wav,sh2x_8_auxau.wav,,TRUE,FALSE,,,,,,,,,,,,,,f,0.3355,space,0.5025,,,,,,,,0,132,132,105,1,,
5ec2720ae69a920447fa71a4,2023-06-16_18h52.17.560,phx_ver10,2022.2.5,Win32,59.96282305,,,,,,,,,,,,12,testing_1,zh2x,i,zh2x_i,zh2x_8_ixi.wav,zh2x_1_izhi.wav,,FALSE,TRUE,,,,,,,,,,,,,,j,0.2758,space,0.4182,,,,,,,,0,133,133,11,1,,
5ec2720ae69a920447fa71a4,2023-06-16_18h52.17.560,phx_ver10,2022.2.5,Win32,59.96282305,,,,,,,,,,,,52,testing_3,zh2j,a,zh2j_a,zh2j_8_aja.wav,zh2j_1_azha.wav,,FALSE,FALSE,,,,,,,,,,,,,,f,0.0068,space,0.2577,,,,,,,,0,134,134,51,1,,
5ec2720ae69a920447fa71a4,2023-06-16_18h52.17.560,phx_ver10,2022.2.5,Win32,59.96282305,,,,,,,,,,,,31,testing_3,zh2sh,ai,zh2sh_ai,zh2sh_1_aizhai.wav,zh2sh_8_aishai.wav,,FALSE,FALSE,,,,,,,,,,,,,,j,0.2507,space,0.3579,,,,,,,,0,135,135,30,1,,
5ec2720ae69a920447fa71a4,2023-06-16_18h52.17.560,phx_ver10,2022.2.5,Win32,59.96282305,,,,,,,,,,,,62,testing_3,zh2j,e,zh2j_e,zh2j_8_eje.wav,zh2j_8_eje.wav,,TRUE,FALSE,,,,,,,,,,,,,,f,0.0204,space,0.313,,,,,,,,0,136,136,61,1,,
5ec2720ae69a920447fa71a4,2023-06-16_18h52.17.560,phx_ver10,2022.2.5,Win32,59.96282305,,,,,,,,,,,,19,testing_2,zh2x,au,zh2x_au,zh2x_1_auzhau.wav,zh2x_8_auxau.wav,,FALSE,FALSE,,,,,,,,,,,,,,j,0.2166,space,0.4021,,,,,,,,0,137,137,18,1,,
5ec2720ae69a920447fa71a4,2023-06-16_18h52.17.560,phx_ver10,2022.2.5,Win32,59.96282305,,,,,,,,,,,,25,testing_3,zh2sh,a,zh2sh_a,zh2sh_1_azha.wav,zh2sh_1_azha.wav,,TRUE,FALSE,,,,,,,,,,,,,,f,0.0515,space,0.2683,,,,,,,,0,138,138,24,1,,
5ec2720ae69a920447fa71a4,2023-06-16_18h52.17.560,phx_ver10,2022.2.5,Win32,59.96282305,,,,,,,,,,,,77,testing_3,j2x,ai,j2x_ai,j2x_1_aijai.wav,j2x_1_aijai.wav,,TRUE,FALSE,,,,,,,,,,,,,,f,0.1938,space,0.4507,,,,,,,,0,139,139,76,1,,
5ec2720ae69a920447fa71a4,2023-06-16_18h52.17.560,phx_ver10,2022.2.5,Win32,59.96282305,,,,,,,,,,,,32,testing_3,zh2sh,ai,zh2sh_ai,zh2sh_8_aishai.wav,zh2sh_1_aizhai.wav,,FALSE,FALSE,,,,,,,,,,,,,,j,0.5294,space,0.6665,,,,,,,,0,140,140,31,1,,
5ec2720ae69a920447fa71a4,2023-06-16_18h52.17.560,phx_ver10,2022.2.5,Win32,59.96282305,,,,,,,,,,,,27,testing_3,zh2sh,a,zh2sh_a,zh2sh_1_azha.wav,zh2sh_8_asha.wav,,FALSE,FALSE,,,,,,,,,,,,,,j,0.2185,space,0.3516,,,,,,,,0,141,141,26,1,,
5ec2720ae69a920447fa71a4,2023-06-16_18h52.17.560,phx_ver10,2022.2.5,Win32,59.96282305,,,,,,,,,,,,43,testing_3,zh2sh,ei,zh2sh_ei,zh2sh_1_eizhei.wav,zh2sh_8_eishei.wav,,FALSE,FALSE,,,,,,,,,,,,,,j,0.3154,space,0.4946,,,,,,,,0,142,142,42,1,,
5ec2720ae69a920447fa71a4,2023-06-16_18h52.17.560,phx_ver10,2022.2.5,Win32,59.96282305,,,,,,,,,,,,143,testing_3,sh2j,i,sh2j_i,sh2j_1_ishi.wav,sh2j_8_iji.wav,,FALSE,FALSE,,,,,,,,,,,,,,j,0.3307,space,0.4775,,,,,,,,0,143,143,142,1,,
5ec2720ae69a920447fa71a4,2023-06-16_18h52.17.560,phx_ver10,2022.2.5,Win32,59.96282305,,,,,,,,,,,,,,,,,,,,,,,,,,,,,,,,,,,,,,,,,,,,,,,,,,,space,7.3081
