participant,date,expName,psychopyVersion,OS,frameRate,space_1.keys,space_1.rt,space_2.keys,space_2.rt,space_train.keys,space_train.rt,training.thisRepN,training.thisTrialN,training.thisN,training.thisIndex,training.ran,token_id,task,continuum,vowel,series,sound_1,sound_2,img,same,trained,FJ_attn.keys,FJ_attn.rt,space_attn.keys,space_attn.rt,if_attn_test.thisRepN,if_attn_test.thisTrialN,if_attn_test.thisN,if_attn_test.thisIndex,if_attn_test.ran,space_trans_1.keys,space_trans_1.rt,space_trans_11.keys,space_trans_11.rt,FJ_test.keys,FJ_test.rt,space_test.keys,space_test.rt,testing_pre.thisRepN,testing_pre.thisTrialN,testing_pre.thisN,testing_pre.thisIndex,testing_pre.ran,space_trans_2.keys,space_trans_2.rt,testing_all.thisRepN,testing_all.thisTrialN,testing_all.thisN,testing_all.thisIndex,testing_all.ran,space_ending.keys,space_ending.rt
5ecd22e76997ec03464c71aa,2023-06-16_10h10.32.139,phx_ver10,2022.2.5,Win32,59.19261276,,,,,,,,,,,,,,,,,,,,,,,,,,,,,,,,,,,,,,,,,,,,,,,,,,,,
5ecd22e76997ec03464c71aa,2023-06-16_10h10.32.139,phx_ver10,2022.2.5,Win32,59.19261276,space,2.6373,,,,,,,,,,,,,,,,,,,,,,,,,,,,,,,,,,,,,,,,,,,,,,,,,,
5ecd22e76997ec03464c71aa,2023-06-16_10h10.32.139,phx_ver10,2022.2.5,Win32,59.19261276,,,space,2.0332,,,,,,,,,,,,,,,,,,,,,,,,,,,,,,,,,,,,,,,,,,,,,,,,
5ecd22e76997ec03464c71aa,2023-06-16_10h10.32.139,phx_ver10,2022.2.5,Win32,59.19261276,,,,,space,3.0839,0,0,0,1,1,2,training,zh2x,a,zh2x_a,zh2x_2_azha.wav,,azha.jpg,,,,,,,,,,,,,,,,,,,,,,,,,,,,,,,,,
5ecd22e76997ec03464c71aa,2023-06-16_10h10.32.139,phx_ver10,2022.2.5,Win32,59.19261276,,,,,space,4.0747,0,1,1,45,1,46,training,zh2x,i,zh2x_i,zh2x_7_ixi.wav,,ixi.jpg,,,,,,,,,,,,,,,,,,,,,,,,,,,,,,,,,
5ecd22e76997ec03464c71aa,2023-06-16_10h10.32.139,phx_ver10,2022.2.5,Win32,59.19261276,,,,,space,2.851,0,2,2,24,1,25,training,zh2x,e,zh2x_e,zh2x_5_exe.wav,,exe.jpg,,,,,,,,,,,,,,,,,,,,,,,,,,,,,,,,,
5ecd22e76997ec03464c71aa,2023-06-16_10h10.32.139,phx_ver10,2022.2.5,Win32,59.19261276,,,,,space,2.4722,0,3,3,22,1,23,training,zh2x,e,zh2x_e,zh2x_3_ezhe.wav,,ezhe.jpg,,,,,,,,,,,,,,,,,,,,,,,,,,,,,,,,,
5ecd22e76997ec03464c71aa,2023-06-16_10h10.32.139,phx_ver10,2022.2.5,Win32,59.19261276,,,,,space,1.6698,0,4,4,11,1,12,training,zh2x,a,zh2x_a,zh2x_7_axa.wav,,axa.jpg,,,,,,,,,,,,,,,,,,,,,,,,,,,,,,,,,
5ecd22e76997ec03464c71aa,2023-06-16_10h10.32.139,phx_ver10,2022.2.5,Win32,59.19261276,,,,,space,2.7703,0,5,5,34,1,35,training,zh2x,i,zh2x_i,zh2x_2_izhi.wav,,izhi.jpg,,,,,,,,,,,,,,,,,,,,,,,,,,,,,,,,,
5ecd22e76997ec03464c71aa,2023-06-16_10h10.32.139,phx_ver10,2022.2.5,Win32,59.19261276,,,,,,,,,,,,,attn_test,,,,zh2x_1_azha.wav,zh2x_1_ezhe.wav,azha.jpg,LEFT,,j,2.9227,space,4.026,0,0,0,0,1,,,,,,,,,,,,,,,,,,,,,,
5ecd22e76997ec03464c71aa,2023-06-16_10h10.32.139,phx_ver10,2022.2.5,Win32,59.19261276,,,,,space,1.874,0,6,6,39,1,40,training,zh2x,i,zh2x_i,zh2x_4_izhi.wav,,izhi.jpg,,,,,,,,,,,,,,,,,,,,,,,,,,,,,,,,,
5ecd22e76997ec03464c71aa,2023-06-16_10h10.32.139,phx_ver10,2022.2.5,Win32,59.19261276,,,,,space,3.1086,0,7,7,30,1,31,training,zh2x,e,zh2x_e,zh2x_7_exe.wav,,exe.jpg,,,,,,,,,,,,,,,,,,,,,,,,,,,,,,,,,
5ecd22e76997ec03464c71aa,2023-06-16_10h10.32.139,phx_ver10,2022.2.5,Win32,59.19261276,,,,,space,1.7629,0,8,8,27,1,28,training,zh2x,e,zh2x_e,zh2x_7_exe.wav,,exe.jpg,,,,,,,,,,,,,,,,,,,,,,,,,,,,,,,,,
5ecd22e76997ec03464c71aa,2023-06-16_10h10.32.139,phx_ver10,2022.2.5,Win32,59.19261276,,,,,space,2.951,0,9,9,0,1,1,training,zh2x,a,zh2x_a,zh2x_1_azha.wav,,azha.jpg,,,,,,,,,,,,,,,,,,,,,,,,,,,,,,,,,
5ecd22e76997ec03464c71aa,2023-06-16_10h10.32.139,phx_ver10,2022.2.5,Win32,59.19261276,,,,,space,1.6031,0,10,10,36,1,37,training,zh2x,i,zh2x_i,zh2x_2_izhi.wav,,izhi.jpg,,,,,,,,,,,,,,,,,,,,,,,,,,,,,,,,,
5ecd22e76997ec03464c71aa,2023-06-16_10h10.32.139,phx_ver10,2022.2.5,Win32,59.19261276,,,,,space,2.0027,0,11,11,33,1,34,training,zh2x,i,zh2x_i,zh2x_2_izhi.wav,,izhi.jpg,,,,,,,,,,,,,,,,,,,,,,,,,,,,,,,,,
5ecd22e76997ec03464c71aa,2023-06-16_10h10.32.139,phx_ver10,2022.2.5,Win32,59.19261276,,,,,,,,,,,,,attn_test,,,,zh2x_1_izhi.wav,zh2x_8_axa.wav,izhi.jpg,LEFT,,f,1.6741,space,2.7198,0,0,0,0,1,,,,,,,,,,,,,,,,,,,,,,
5ecd22e76997ec03464c71aa,2023-06-16_10h10.32.139,phx_ver10,2022.2.5,Win32,59.19261276,,,,,space,2.371,0,12,12,23,1,24,training,zh2x,e,zh2x_e,zh2x_4_ezhe.wav,,ezhe.jpg,,,,,,,,,,,,,,,,,,,,,,,,,,,,,,,,,
5ecd22e76997ec03464c71aa,2023-06-16_10h10.32.139,phx_ver10,2022.2.5,Win32,59.19261276,,,,,space,2.2194,0,13,13,26,1,27,training,zh2x,e,zh2x_e,zh2x_6_exe.wav,,exe.jpg,,,,,,,,,,,,,,,,,,,,,,,,,,,,,,,,,
5ecd22e76997ec03464c71aa,2023-06-16_10h10.32.139,phx_ver10,2022.2.5,Win32,59.19261276,,,,,space,1.8797,0,14,14,14,1,15,training,zh2x,a,zh2x_a,zh2x_7_axa.wav,,axa.jpg,,,,,,,,,,,,,,,,,,,,,,,,,,,,,,,,,
5ecd22e76997ec03464c71aa,2023-06-16_10h10.32.139,phx_ver10,2022.2.5,Win32,59.19261276,,,,,space,1.7525,0,15,15,46,1,47,training,zh2x,i,zh2x_i,zh2x_7_ixi.wav,,ixi.jpg,,,,,,,,,,,,,,,,,,,,,,,,,,,,,,,,,
5ecd22e76997ec03464c71aa,2023-06-16_10h10.32.139,phx_ver10,2022.2.5,Win32,59.19261276,,,,,space,1.3417,0,16,16,18,1,19,training,zh2x,e,zh2x_e,zh2x_2_ezhe.wav,,ezhe.jpg,,,,,,,,,,,,,,,,,,,,,,,,,,,,,,,,,
5ecd22e76997ec03464c71aa,2023-06-16_10h10.32.139,phx_ver10,2022.2.5,Win32,59.19261276,,,,,space,1.4671,0,17,17,8,1,9,training,zh2x,a,zh2x_a,zh2x_5_axa.wav,,axa.jpg,,,,,,,,,,,,,,,,,,,,,,,,,,,,,,,,,
5ecd22e76997ec03464c71aa,2023-06-16_10h10.32.139,phx_ver10,2022.2.5,Win32,59.19261276,,,,,,,,,,,,,attn_test,,,,zh2x_8_axa.wav,zh2x_1_azha.wav,axa.jpg,LEFT,,f,1.0004,space,1.5998,0,0,0,0,1,,,,,,,,,,,,,,,,,,,,,,
5ecd22e76997ec03464c71aa,2023-06-16_10h10.32.139,phx_ver10,2022.2.5,Win32,59.19261276,,,,,space,0.6921,0,18,18,29,1,30,training,zh2x,e,zh2x_e,zh2x_7_exe.wav,,exe.jpg,,,,,,,,,,,,,,,,,,,,,,,,,,,,,,,,,
5ecd22e76997ec03464c71aa,2023-06-16_10h10.32.139,phx_ver10,2022.2.5,Win32,59.19261276,,,,,space,0.7186,0,19,19,2,1,3,training,zh2x,a,zh2x_a,zh2x_2_azha.wav,,azha.jpg,,,,,,,,,,,,,,,,,,,,,,,,,,,,,,,,,
5ecd22e76997ec03464c71aa,2023-06-16_10h10.32.139,phx_ver10,2022.2.5,Win32,59.19261276,,,,,space,1.2016,0,20,20,19,1,20,training,zh2x,e,zh2x_e,zh2x_2_ezhe.wav,,ezhe.jpg,,,,,,,,,,,,,,,,,,,,,,,,,,,,,,,,,
5ecd22e76997ec03464c71aa,2023-06-16_10h10.32.139,phx_ver10,2022.2.5,Win32,59.19261276,,,,,space,1.5538,0,21,21,42,1,43,training,zh2x,i,zh2x_i,zh2x_6_ixi.wav,,ixi.jpg,,,,,,,,,,,,,,,,,,,,,,,,,,,,,,,,,
5ecd22e76997ec03464c71aa,2023-06-16_10h10.32.139,phx_ver10,2022.2.5,Win32,59.19261276,,,,,space,1.9818,0,22,22,21,1,22,training,zh2x,e,zh2x_e,zh2x_3_ezhe.wav,,ezhe.jpg,,,,,,,,,,,,,,,,,,,,,,,,,,,,,,,,,
5ecd22e76997ec03464c71aa,2023-06-16_10h10.32.139,phx_ver10,2022.2.5,Win32,59.19261276,,,,,space,1.2077,0,23,23,35,1,36,training,zh2x,i,zh2x_i,zh2x_2_izhi.wav,,izhi.jpg,,,,,,,,,,,,,,,,,,,,,,,,,,,,,,,,,
5ecd22e76997ec03464c71aa,2023-06-16_10h10.32.139,phx_ver10,2022.2.5,Win32,59.19261276,,,,,,,,,,,,,attn_test,,,,zh2x_1_izhi.wav,zh2x_1_ezhe.wav,izhi.jpg,LEFT,,f,0.5846,space,1.6675,0,0,0,0,1,,,,,,,,,,,,,,,,,,,,,,
5ecd22e76997ec03464c71aa,2023-06-16_10h10.32.139,phx_ver10,2022.2.5,Win32,59.19261276,,,,,space,1.8601,0,24,24,4,1,5,training,zh2x,a,zh2x_a,zh2x_2_azha.wav,,azha.jpg,,,,,,,,,,,,,,,,,,,,,,,,,,,,,,,,,
5ecd22e76997ec03464c71aa,2023-06-16_10h10.32.139,phx_ver10,2022.2.5,Win32,59.19261276,,,,,space,0.4884,0,25,25,13,1,14,training,zh2x,a,zh2x_a,zh2x_7_axa.wav,,axa.jpg,,,,,,,,,,,,,,,,,,,,,,,,,,,,,,,,,
5ecd22e76997ec03464c71aa,2023-06-16_10h10.32.139,phx_ver10,2022.2.5,Win32,59.19261276,,,,,space,0.7073,0,26,26,37,1,38,training,zh2x,i,zh2x_i,zh2x_3_izhi.wav,,izhi.jpg,,,,,,,,,,,,,,,,,,,,,,,,,,,,,,,,,
5ecd22e76997ec03464c71aa,2023-06-16_10h10.32.139,phx_ver10,2022.2.5,Win32,59.19261276,,,,,space,0.7565,0,27,27,44,1,45,training,zh2x,i,zh2x_i,zh2x_7_ixi.wav,,ixi.jpg,,,,,,,,,,,,,,,,,,,,,,,,,,,,,,,,,
5ecd22e76997ec03464c71aa,2023-06-16_10h10.32.139,phx_ver10,2022.2.5,Win32,59.19261276,,,,,space,0.6756,0,28,28,12,1,13,training,zh2x,a,zh2x_a,zh2x_7_axa.wav,,axa.jpg,,,,,,,,,,,,,,,,,,,,,,,,,,,,,,,,,
5ecd22e76997ec03464c71aa,2023-06-16_10h10.32.139,phx_ver10,2022.2.5,Win32,59.19261276,,,,,space,0.895,0,29,29,41,1,42,training,zh2x,i,zh2x_i,zh2x_6_ixi.wav,,ixi.jpg,,,,,,,,,,,,,,,,,,,,,,,,,,,,,,,,,
5ecd22e76997ec03464c71aa,2023-06-16_10h10.32.139,phx_ver10,2022.2.5,Win32,59.19261276,,,,,,,,,,,,,attn_test,,,,zh2x_1_ezhe.wav,zh2x_8_ixi.wav,ixi.jpg,RIGHT,,j,0.5147,space,1.32,0,0,0,0,1,,,,,,,,,,,,,,,,,,,,,,
5ecd22e76997ec03464c71aa,2023-06-16_10h10.32.139,phx_ver10,2022.2.5,Win32,59.19261276,,,,,space,2.3669,0,30,30,7,1,8,training,zh2x,a,zh2x_a,zh2x_4_azha.wav,,azha.jpg,,,,,,,,,,,,,,,,,,,,,,,,,,,,,,,,,
5ecd22e76997ec03464c71aa,2023-06-16_10h10.32.139,phx_ver10,2022.2.5,Win32,59.19261276,,,,,space,1.2018,0,31,31,43,1,44,training,zh2x,i,zh2x_i,zh2x_7_ixi.wav,,ixi.jpg,,,,,,,,,,,,,,,,,,,,,,,,,,,,,,,,,
5ecd22e76997ec03464c71aa,2023-06-16_10h10.32.139,phx_ver10,2022.2.5,Win32,59.19261276,,,,,space,1.7504,0,32,32,20,1,21,training,zh2x,e,zh2x_e,zh2x_2_ezhe.wav,,ezhe.jpg,,,,,,,,,,,,,,,,,,,,,,,,,,,,,,,,,
5ecd22e76997ec03464c71aa,2023-06-16_10h10.32.139,phx_ver10,2022.2.5,Win32,59.19261276,,,,,space,0.8869,0,33,33,38,1,39,training,zh2x,i,zh2x_i,zh2x_3_izhi.wav,,izhi.jpg,,,,,,,,,,,,,,,,,,,,,,,,,,,,,,,,,
5ecd22e76997ec03464c71aa,2023-06-16_10h10.32.139,phx_ver10,2022.2.5,Win32,59.19261276,,,,,space,1.3511,0,34,34,17,1,18,training,zh2x,e,zh2x_e,zh2x_2_ezhe.wav,,ezhe.jpg,,,,,,,,,,,,,,,,,,,,,,,,,,,,,,,,,
5ecd22e76997ec03464c71aa,2023-06-16_10h10.32.139,phx_ver10,2022.2.5,Win32,59.19261276,,,,,space,1.8007,0,35,35,31,1,32,training,zh2x,e,zh2x_e,zh2x_8_exe.wav,,exe.jpg,,,,,,,,,,,,,,,,,,,,,,,,,,,,,,,,,
5ecd22e76997ec03464c71aa,2023-06-16_10h10.32.139,phx_ver10,2022.2.5,Win32,59.19261276,,,,,,,,,,,,,attn_test,,,,zh2x_8_ixi.wav,zh2x_1_ezhe.wav,ixi.jpg,LEFT,,f,2.2866,space,2.8199,0,0,0,0,1,,,,,,,,,,,,,,,,,,,,,,
5ecd22e76997ec03464c71aa,2023-06-16_10h10.32.139,phx_ver10,2022.2.5,Win32,59.19261276,,,,,space,2.3874,0,36,36,25,1,26,training,zh2x,e,zh2x_e,zh2x_6_exe.wav,,exe.jpg,,,,,,,,,,,,,,,,,,,,,,,,,,,,,,,,,
5ecd22e76997ec03464c71aa,2023-06-16_10h10.32.139,phx_ver10,2022.2.5,Win32,59.19261276,,,,,space,19.0366,0,37,37,47,1,48,training,zh2x,i,zh2x_i,zh2x_8_ixi.wav,,ixi.jpg,,,,,,,,,,,,,,,,,,,,,,,,,,,,,,,,,
5ecd22e76997ec03464c71aa,2023-06-16_10h10.32.139,phx_ver10,2022.2.5,Win32,59.19261276,,,,,space,1.627,0,38,38,40,1,41,training,zh2x,i,zh2x_i,zh2x_5_ixi.wav,,ixi.jpg,,,,,,,,,,,,,,,,,,,,,,,,,,,,,,,,,
5ecd22e76997ec03464c71aa,2023-06-16_10h10.32.139,phx_ver10,2022.2.5,Win32,59.19261276,,,,,space,1.7057,0,39,39,28,1,29,training,zh2x,e,zh2x_e,zh2x_7_exe.wav,,exe.jpg,,,,,,,,,,,,,,,,,,,,,,,,,,,,,,,,,
5ecd22e76997ec03464c71aa,2023-06-16_10h10.32.139,phx_ver10,2022.2.5,Win32,59.19261276,,,,,space,2.8838,0,40,40,32,1,33,training,zh2x,i,zh2x_i,zh2x_1_izhi.wav,,izhi.jpg,,,,,,,,,,,,,,,,,,,,,,,,,,,,,,,,,
5ecd22e76997ec03464c71aa,2023-06-16_10h10.32.139,phx_ver10,2022.2.5,Win32,59.19261276,,,,,space,2.3356,0,41,41,10,1,11,training,zh2x,a,zh2x_a,zh2x_6_axa.wav,,axa.jpg,,,,,,,,,,,,,,,,,,,,,,,,,,,,,,,,,
5ecd22e76997ec03464c71aa,2023-06-16_10h10.32.139,phx_ver10,2022.2.5,Win32,59.19261276,,,,,,,,,,,,,attn_test,,,,zh2x_8_axa.wav,zh2x_1_ezhe.wav,axa.jpg,LEFT,,f,0.6524,space,1.1842,0,0,0,0,1,,,,,,,,,,,,,,,,,,,,,,
5ecd22e76997ec03464c71aa,2023-06-16_10h10.32.139,phx_ver10,2022.2.5,Win32,59.19261276,,,,,space,1.1546,0,42,42,5,1,6,training,zh2x,a,zh2x_a,zh2x_3_azha.wav,,azha.jpg,,,,,,,,,,,,,,,,,,,,,,,,,,,,,,,,,
5ecd22e76997ec03464c71aa,2023-06-16_10h10.32.139,phx_ver10,2022.2.5,Win32,59.19261276,,,,,space,0.775,0,43,43,3,1,4,training,zh2x,a,zh2x_a,zh2x_2_azha.wav,,azha.jpg,,,,,,,,,,,,,,,,,,,,,,,,,,,,,,,,,
5ecd22e76997ec03464c71aa,2023-06-16_10h10.32.139,phx_ver10,2022.2.5,Win32,59.19261276,,,,,space,1.3838,0,44,44,15,1,16,training,zh2x,a,zh2x_a,zh2x_8_axa.wav,,axa.jpg,,,,,,,,,,,,,,,,,,,,,,,,,,,,,,,,,
5ecd22e76997ec03464c71aa,2023-06-16_10h10.32.139,phx_ver10,2022.2.5,Win32,59.19261276,,,,,space,1.5864,0,45,45,9,1,10,training,zh2x,a,zh2x_a,zh2x_6_axa.wav,,axa.jpg,,,,,,,,,,,,,,,,,,,,,,,,,,,,,,,,,
5ecd22e76997ec03464c71aa,2023-06-16_10h10.32.139,phx_ver10,2022.2.5,Win32,59.19261276,,,,,space,0.7376,0,46,46,6,1,7,training,zh2x,a,zh2x_a,zh2x_3_azha.wav,,azha.jpg,,,,,,,,,,,,,,,,,,,,,,,,,,,,,,,,,
5ecd22e76997ec03464c71aa,2023-06-16_10h10.32.139,phx_ver10,2022.2.5,Win32,59.19261276,,,,,space,1.4911,0,47,47,16,1,17,training,zh2x,e,zh2x_e,zh2x_1_ezhe.wav,,ezhe.jpg,,,,,,,,,,,,,,,,,,,,,,,,,,,,,,,,,
5ecd22e76997ec03464c71aa,2023-06-16_10h10.32.139,phx_ver10,2022.2.5,Win32,59.19261276,,,,,,,,,,,,,attn_test,,,,zh2x_1_azha.wav,zh2x_8_axa.wav,azha.jpg,LEFT,,f,0.5002,space,3.9832,,,,,,,,,,,,,,,,,,,,,,,,,,,
5ecd22e76997ec03464c71aa,2023-06-16_10h10.32.139,phx_ver10,2022.2.5,Win32,59.19261276,,,,,,,,,,,,,,,,,,,,,,,,,,,,,,,space,0.6876,,,,,,,,,,,,,,,,,,,,
5ecd22e76997ec03464c71aa,2023-06-16_10h10.32.139,phx_ver10,2022.2.5,Win32,59.19261276,,,,,,,,,,,,,,,,,,,,,,,,,,,,,,,,,space,4.8939,,,,,,,,,,,,,,,,,,
5ecd22e76997ec03464c71aa,2023-06-16_10h10.32.139,phx_ver10,2022.2.5,Win32,59.19261276,,,,,,,,,,,,4,testing_pre,,,,eihei.wav,eihei.wav,,TRUE,,,,,,,,,,,,,,,f,1.8186,space,3.1339,0,0,0,3,1,,,,,,,,,
5ecd22e76997ec03464c71aa,2023-06-16_10h10.32.139,phx_ver10,2022.2.5,Win32,59.19261276,,,,,,,,,,,,3,testing_pre,,,,afa.wav,aha.wav,,FALSE,,,,,,,,,,,,,,,j,0.92,space,1.7785,0,1,1,2,1,,,,,,,,,
5ecd22e76997ec03464c71aa,2023-06-16_10h10.32.139,phx_ver10,2022.2.5,Win32,59.19261276,,,,,,,,,,,,1,testing_pre,,,,ifi.wav,ifi.wav,,TRUE,,,,,,,,,,,,,,,f,1.2503,space,1.6786,0,2,2,0,1,,,,,,,,,
5ecd22e76997ec03464c71aa,2023-06-16_10h10.32.139,phx_ver10,2022.2.5,Win32,59.19261276,,,,,,,,,,,,2,testing_pre,,,,auhau.wav,aufau.wav,,FALSE,,,,,,,,,,,,,,,j,0.6773,space,1.3661,0,3,3,1,1,,,,,,,,,
5ecd22e76997ec03464c71aa,2023-06-16_10h10.32.139,phx_ver10,2022.2.5,Win32,59.19261276,,,,,,,,,,,,5,testing_pre,,,,ihi.wav,ifi.wav,,FALSE,,,,,,,,,,,,,,,f,0.3832,space,0.9838,0,4,4,4,1,,,,,,,,,
5ecd22e76997ec03464c71aa,2023-06-16_10h10.32.139,phx_ver10,2022.2.5,Win32,59.19261276,,,,,,,,,,,,,,,,,,,,,,,,,,,,,,,,,,,,,,,,,,,,space,1.5005,,,,,,,
5ecd22e76997ec03464c71aa,2023-06-16_10h10.32.139,phx_ver10,2022.2.5,Win32,59.19261276,,,,,,,,,,,,54,testing_3,zh2j,ai,zh2j_ai,zh2j_8_aijai.wav,zh2j_8_aijai.wav,,TRUE,FALSE,,,,,,,,,,,,,,f,0.7668,space,1.3718,,,,,,,,0,0,0,53,1,,
5ecd22e76997ec03464c71aa,2023-06-16_10h10.32.139,phx_ver10,2022.2.5,Win32,59.19261276,,,,,,,,,,,,62,testing_3,zh2j,e,zh2j_e,zh2j_8_eje.wav,zh2j_8_eje.wav,,TRUE,FALSE,,,,,,,,,,,,,,f,0.4508,space,0.8572,,,,,,,,0,1,1,61,1,,
5ecd22e76997ec03464c71aa,2023-06-16_10h10.32.139,phx_ver10,2022.2.5,Win32,59.19261276,,,,,,,,,,,,71,testing_3,zh2j,i,zh2j_i,zh2j_1_izhi.wav,zh2j_8_iji.wav,,FALSE,FALSE,,,,,,,,,,,,,,f,0.1611,space,0.8668,,,,,,,,0,2,2,70,1,,
5ecd22e76997ec03464c71aa,2023-06-16_10h10.32.139,phx_ver10,2022.2.5,Win32,59.19261276,,,,,,,,,,,,117,testing_3,sh2x,i,sh2x_i,sh2x_1_ishi.wav,sh2x_1_ishi.wav,,TRUE,FALSE,,,,,,,,,,,,,,f,2.0736,space,2.5007,,,,,,,,0,3,3,116,1,,
5ecd22e76997ec03464c71aa,2023-06-16_10h10.32.139,phx_ver10,2022.2.5,Win32,59.19261276,,,,,,,,,,,,80,testing_3,j2x,ai,j2x_ai,j2x_8_aixai.wav,j2x_1_aijai.wav,,FALSE,FALSE,,,,,,,,,,,,,,f,0.4844,space,0.894,,,,,,,,0,4,4,79,1,,
5ecd22e76997ec03464c71aa,2023-06-16_10h10.32.139,phx_ver10,2022.2.5,Win32,59.19261276,,,,,,,,,,,,105,testing_3,sh2x,au,sh2x_au,sh2x_1_aushau.wav,sh2x_1_aushau.wav,,TRUE,FALSE,,,,,,,,,,,,,,f,0.4329,space,0.8353,,,,,,,,0,5,5,104,1,,
5ecd22e76997ec03464c71aa,2023-06-16_10h10.32.139,phx_ver10,2022.2.5,Win32,59.19261276,,,,,,,,,,,,100,testing_3,sh2x,a,sh2x_a,sh2x_8_axa.wav,sh2x_1_asha.wav,,FALSE,FALSE,,,,,,,,,,,,,,f,0.2343,space,0.6846,,,,,,,,0,6,6,99,1,,
5ecd22e76997ec03464c71aa,2023-06-16_10h10.32.139,phx_ver10,2022.2.5,Win32,59.19261276,,,,,,,,,,,,51,testing_3,zh2j,a,zh2j_a,zh2j_1_azha.wav,zh2j_8_aja.wav,,FALSE,FALSE,,,,,,,,,,,,,,f,0.1173,space,0.5677,,,,,,,,0,7,7,50,1,,
5ecd22e76997ec03464c71aa,2023-06-16_10h10.32.139,phx_ver10,2022.2.5,Win32,59.19261276,,,,,,,,,,,,31,testing_3,zh2sh,ai,zh2sh_ai,zh2sh_1_aizhai.wav,zh2sh_8_aishai.wav,,FALSE,FALSE,,,,,,,,,,,,,,f,0.5167,space,0.9166,,,,,,,,0,8,8,30,1,,
5ecd22e76997ec03464c71aa,2023-06-16_10h10.32.139,phx_ver10,2022.2.5,Win32,59.19261276,,,,,,,,,,,,107,testing_3,sh2x,au,sh2x_au,sh2x_1_aushau.wav,sh2x_8_auxau.wav,,FALSE,FALSE,,,,,,,,,,,,,,f,0.1106,space,0.4838,,,,,,,,0,9,9,106,1,,
5ecd22e76997ec03464c71aa,2023-06-16_10h10.32.139,phx_ver10,2022.2.5,Win32,59.19261276,,,,,,,,,,,,76,testing_3,j2x,a,j2x_a,j2x_8_axa.wav,j2x_1_aja.wav,,FALSE,FALSE,,,,,,,,,,,,,,f,0.2656,space,0.6541,,,,,,,,0,10,10,75,1,,
5ecd22e76997ec03464c71aa,2023-06-16_10h10.32.139,phx_ver10,2022.2.5,Win32,59.19261276,,,,,,,,,,,,74,testing_3,j2x,a,j2x_a,j2x_8_axa.wav,j2x_8_axa.wav,,TRUE,FALSE,,,,,,,,,,,,,,f,0.951,space,1.367,,,,,,,,0,11,11,73,1,,
5ecd22e76997ec03464c71aa,2023-06-16_10h10.32.139,phx_ver10,2022.2.5,Win32,59.19261276,,,,,,,,,,,,77,testing_3,j2x,ai,j2x_ai,j2x_1_aijai.wav,j2x_1_aijai.wav,,TRUE,FALSE,,,,,,,,,,,,,,f,0.1556,space,0.5542,,,,,,,,0,12,12,76,1,,
5ecd22e76997ec03464c71aa,2023-06-16_10h10.32.139,phx_ver10,2022.2.5,Win32,59.19261276,,,,,,,,,,,,134,testing_3,sh2j,e,sh2j_e,sh2j_8_eje.wav,sh2j_8_eje.wav,,TRUE,FALSE,,,,,,,,,,,,,,f,0.651,space,1.1002,,,,,,,,0,13,13,133,1,,
5ecd22e76997ec03464c71aa,2023-06-16_10h10.32.139,phx_ver10,2022.2.5,Win32,59.19261276,,,,,,,,,,,,61,testing_3,zh2j,e,zh2j_e,zh2j_1_ezhe.wav,zh2j_1_ezhe.wav,,TRUE,FALSE,,,,,,,,,,,,,,f,0.3939,space,0.8659,,,,,,,,0,14,14,60,1,,
5ecd22e76997ec03464c71aa,2023-06-16_10h10.32.139,phx_ver10,2022.2.5,Win32,59.19261276,,,,,,,,,,,,103,testing_3,sh2x,ai,sh2x_ai,sh2x_1_aishai.wav,sh2x_8_aixai.wav,,FALSE,FALSE,,,,,,,,,,,,,,f,0.0187,space,0.5336,,,,,,,,0,15,15,102,1,,
5ecd22e76997ec03464c71aa,2023-06-16_10h10.32.139,phx_ver10,2022.2.5,Win32,59.19261276,,,,,,,,,,,,75,testing_3,j2x,a,j2x_a,j2x_1_aja.wav,j2x_8_axa.wav,,FALSE,FALSE,,,,,,,,,,,,,,f,0.1546,space,0.584,,,,,,,,0,16,16,74,1,,
5ecd22e76997ec03464c71aa,2023-06-16_10h10.32.139,phx_ver10,2022.2.5,Win32,59.19261276,,,,,,,,,,,,82,testing_3,j2x,au,j2x_au,j2x_8_auxau.wav,j2x_8_auxau.wav,,TRUE,FALSE,,,,,,,,,,,,,,f,0.6424,space,0.9671,,,,,,,,0,17,17,81,1,,
5ecd22e76997ec03464c71aa,2023-06-16_10h10.32.139,phx_ver10,2022.2.5,Win32,59.19261276,,,,,,,,,,,,3,testing_1,zh2x,a,zh2x_a,zh2x_1_azha.wav,zh2x_8_axa.wav,,FALSE,TRUE,,,,,,,,,,,,,,f,0.0809,space,0.5139,,,,,,,,0,18,18,2,1,,
5ecd22e76997ec03464c71aa,2023-06-16_10h10.32.139,phx_ver10,2022.2.5,Win32,59.19261276,,,,,,,,,,,,112,testing_3,sh2x,e,sh2x_e,sh2x_8_exe.wav,sh2x_1_eshe.wav,,FALSE,FALSE,,,,,,,,,,,,,,f,0.091,space,0.6499,,,,,,,,0,19,19,111,1,,
5ecd22e76997ec03464c71aa,2023-06-16_10h10.32.139,phx_ver10,2022.2.5,Win32,59.19261276,,,,,,,,,,,,40,testing_3,zh2sh,e,zh2sh_e,zh2sh_8_eshe.wav,zh2sh_1_ezhe.wav,,FALSE,FALSE,,,,,,,,,,,,,,f,0.0503,space,0.6954,,,,,,,,0,20,20,39,1,,
5ecd22e76997ec03464c71aa,2023-06-16_10h10.32.139,phx_ver10,2022.2.5,Win32,59.19261276,,,,,,,,,,,,92,testing_3,j2x,ei,j2x_ei,j2x_8_eixei.wav,j2x_1_eijei.wav,,FALSE,FALSE,,,,,,,,,,,,,,f,0.2208,space,0.6337,,,,,,,,0,21,21,91,1,,
5ecd22e76997ec03464c71aa,2023-06-16_10h10.32.139,phx_ver10,2022.2.5,Win32,59.19261276,,,,,,,,,,,,85,testing_3,j2x,e,j2x_e,j2x_1_eje.wav,j2x_1_eje.wav,,TRUE,FALSE,,,,,,,,,,,,,,f,1.676,space,2.0444,,,,,,,,0,22,22,84,1,,
5ecd22e76997ec03464c71aa,2023-06-16_10h10.32.139,phx_ver10,2022.2.5,Win32,59.19261276,,,,,,,,,,,,2,testing_1,zh2x,a,zh2x_a,zh2x_8_axa.wav,zh2x_8_axa_copy.wav,,TRUE,TRUE,,,,,,,,,,,,,,f,0.6369,space,1.0884,,,,,,,,0,23,23,1,1,,
5ecd22e76997ec03464c71aa,2023-06-16_10h10.32.139,phx_ver10,2022.2.5,Win32,59.19261276,,,,,,,,,,,,124,testing_3,sh2j,a,sh2j_a,sh2j_8_aja.wav,sh2j_1_asha.wav,,FALSE,FALSE,,,,,,,,,,,,,,f,0.6846,space,1.0671,,,,,,,,0,24,24,123,1,,
5ecd22e76997ec03464c71aa,2023-06-16_10h10.32.139,phx_ver10,2022.2.5,Win32,59.19261276,,,,,,,,,,,,66,testing_3,zh2j,ei,zh2j_ei,zh2j_8_eijei.wav,zh2j_8_eijei.wav,,TRUE,FALSE,,,,,,,,,,,,,,f,0.1274,space,0.5513,,,,,,,,0,25,25,65,1,,
5ecd22e76997ec03464c71aa,2023-06-16_10h10.32.139,phx_ver10,2022.2.5,Win32,59.19261276,,,,,,,,,,,,104,testing_3,sh2x,ai,sh2x_ai,sh2x_8_aixai.wav,sh2x_1_aishai.wav,,FALSE,FALSE,,,,,,,,,,,,,,f,1.5456,space,1.9671,,,,,,,,0,26,26,103,1,,
5ecd22e76997ec03464c71aa,2023-06-16_10h10.32.139,phx_ver10,2022.2.5,Win32,59.19261276,,,,,,,,,,,,114,testing_3,sh2x,ei,sh2x_ei,sh2x_8_eixei.wav,sh2x_8_eixei.wav,,TRUE,FALSE,,,,,,,,,,,,,,f,0.4175,space,0.8033,,,,,,,,0,27,27,113,1,,
5ecd22e76997ec03464c71aa,2023-06-16_10h10.32.139,phx_ver10,2022.2.5,Win32,59.19261276,,,,,,,,,,,,49,testing_3,zh2j,a,zh2j_a,zh2j_1_azha.wav,zh2j_1_azha.wav,,TRUE,FALSE,,,,,,,,,,,,,,f,0.151,space,0.7166,,,,,,,,0,28,28,48,1,,
5ecd22e76997ec03464c71aa,2023-06-16_10h10.32.139,phx_ver10,2022.2.5,Win32,59.19261276,,,,,,,,,,,,81,testing_3,j2x,au,j2x_au,j2x_1_aujau.wav,j2x_1_aujau.wav,,TRUE,FALSE,,,,,,,,,,,,,,f,0.0932,space,0.6505,,,,,,,,0,29,29,80,1,,
5ecd22e76997ec03464c71aa,2023-06-16_10h10.32.139,phx_ver10,2022.2.5,Win32,59.19261276,,,,,,,,,,,,42,testing_3,zh2sh,ei,zh2sh_ei,zh2sh_8_eishei.wav,zh2sh_8_eishei.wav,,TRUE,FALSE,,,,,,,,,,,,,,f,0.2335,space,0.8253,,,,,,,,0,30,30,41,1,,
5ecd22e76997ec03464c71aa,2023-06-16_10h10.32.139,phx_ver10,2022.2.5,Win32,59.19261276,,,,,,,,,,,,70,testing_3,zh2j,i,zh2j_i,zh2j_8_iji.wav,zh2j_8_iji.wav,,TRUE,FALSE,,,,,,,,,,,,,,f,0.1144,space,1.0576,,,,,,,,0,31,31,69,1,,
5ecd22e76997ec03464c71aa,2023-06-16_10h10.32.139,phx_ver10,2022.2.5,Win32,59.19261276,,,,,,,,,,,,97,testing_3,sh2x,a,sh2x_a,sh2x_1_asha.wav,sh2x_1_asha.wav,,TRUE,FALSE,,,,,,,,,,,,,,f,0.477,space,1.0119,,,,,,,,0,32,32,96,1,,
5ecd22e76997ec03464c71aa,2023-06-16_10h10.32.139,phx_ver10,2022.2.5,Win32,59.19261276,,,,,,,,,,,,144,testing_3,sh2j,i,sh2j_i,sh2j_8_iji.wav,sh2j_1_ishi.wav,,FALSE,FALSE,,,,,,,,,,,,,,f,0.4331,space,1.1838,,,,,,,,0,33,33,143,1,,
5ecd22e76997ec03464c71aa,2023-06-16_10h10.32.139,phx_ver10,2022.2.5,Win32,59.19261276,,,,,,,,,,,,138,testing_3,sh2j,ei,sh2j_ei,sh2j_8_eijei.wav,sh2j_8_eijei.wav,,TRUE,FALSE,,,,,,,,,,,,,,f,0.35,space,0.8666,,,,,,,,0,34,34,137,1,,
5ecd22e76997ec03464c71aa,2023-06-16_10h10.32.139,phx_ver10,2022.2.5,Win32,59.19261276,,,,,,,,,,,,132,testing_3,sh2j,au,sh2j_au,sh2j_8_aujau.wav,sh2j_1_aushau.wav,,FALSE,FALSE,,,,,,,,,,,,,,f,0.0667,space,0.5667,,,,,,,,0,35,35,131,1,,
5ecd22e76997ec03464c71aa,2023-06-16_10h10.32.139,phx_ver10,2022.2.5,Win32,59.19261276,,,,,,,,,,,,129,testing_3,sh2j,au,sh2j_au,sh2j_1_aushau.wav,sh2j_1_aushau.wav,,TRUE,FALSE,,,,,,,,,,,,,,f,0.4675,space,0.8845,,,,,,,,0,36,36,128,1,,
5ecd22e76997ec03464c71aa,2023-06-16_10h10.32.139,phx_ver10,2022.2.5,Win32,59.19261276,,,,,,,,,,,,120,testing_3,sh2x,i,sh2x_i,sh2x_8_ixi.wav,sh2x_1_ishi.wav,,FALSE,FALSE,,,,,,,,,,,,,,f,0.1249,space,0.7647,,,,,,,,0,37,37,119,1,,
5ecd22e76997ec03464c71aa,2023-06-16_10h10.32.139,phx_ver10,2022.2.5,Win32,59.19261276,,,,,,,,,,,,52,testing_3,zh2j,a,zh2j_a,zh2j_8_aja.wav,zh2j_1_azha.wav,,FALSE,FALSE,,,,,,,,,,,,,,f,0.8178,space,1.2787,,,,,,,,0,38,38,51,1,,
5ecd22e76997ec03464c71aa,2023-06-16_10h10.32.139,phx_ver10,2022.2.5,Win32,59.19261276,,,,,,,,,,,,83,testing_3,j2x,au,j2x_au,j2x_1_aujau.wav,j2x_8_auxau.wav,,FALSE,FALSE,,,,,,,,,,,,,,f,0.2145,space,0.7478,,,,,,,,0,39,39,82,1,,
5ecd22e76997ec03464c71aa,2023-06-16_10h10.32.139,phx_ver10,2022.2.5,Win32,59.19261276,,,,,,,,,,,,59,testing_3,zh2j,au,zh2j_au,zh2j_1_auzhau.wav,zh2j_8_aujau.wav,,FALSE,FALSE,,,,,,,,,,,,,,f,0.4212,space,0.8013,,,,,,,,0,40,40,58,1,,
5ecd22e76997ec03464c71aa,2023-06-16_10h10.32.139,phx_ver10,2022.2.5,Win32,59.19261276,,,,,,,,,,,,11,testing_1,zh2x,i,zh2x_i,zh2x_1_izhi.wav,zh2x_8_ixi.wav,,FALSE,TRUE,,,,,,,,,,,,,,f,0.3676,space,0.8171,,,,,,,,0,41,41,10,1,,
5ecd22e76997ec03464c71aa,2023-06-16_10h10.32.139,phx_ver10,2022.2.5,Win32,59.19261276,,,,,,,,,,,,50,testing_3,zh2j,a,zh2j_a,zh2j_8_aja.wav,zh2j_8_aja.wav,,TRUE,FALSE,,,,,,,,,,,,,,f,0.3827,space,0.7814,,,,,,,,0,42,42,49,1,,
5ecd22e76997ec03464c71aa,2023-06-16_10h10.32.139,phx_ver10,2022.2.5,Win32,59.19261276,,,,,,,,,,,,94,testing_3,j2x,i,j2x_i,j2x_8_ixi.wav,j2x_8_ixi.wav,,TRUE,FALSE,,,,,,,,,,,,,,f,0.2082,space,0.7691,,,,,,,,0,43,43,93,1,,
5ecd22e76997ec03464c71aa,2023-06-16_10h10.32.139,phx_ver10,2022.2.5,Win32,59.19261276,,,,,,,,,,,,125,testing_3,sh2j,ai,sh2j_ai,sh2j_1_aishai.wav,sh2j_1_aishai.wav,,TRUE,FALSE,,,,,,,,,,,,,,f,0.1598,space,0.8262,,,,,,,,0,44,44,124,1,,
5ecd22e76997ec03464c71aa,2023-06-16_10h10.32.139,phx_ver10,2022.2.5,Win32,59.19261276,,,,,,,,,,,,111,testing_3,sh2x,e,sh2x_e,sh2x_1_eshe.wav,sh2x_8_exe.wav,,FALSE,FALSE,,,,,,,,,,,,,,f,0.0283,space,0.5664,,,,,,,,0,45,45,110,1,,
5ecd22e76997ec03464c71aa,2023-06-16_10h10.32.139,phx_ver10,2022.2.5,Win32,59.19261276,,,,,,,,,,,,137,testing_3,sh2j,ei,sh2j_ei,sh2j_1_eishei.wav,sh2j_1_eishei.wav,,TRUE,FALSE,,,,,,,,,,,,,,f,1.5666,space,1.918,,,,,,,,0,46,46,136,1,,
5ecd22e76997ec03464c71aa,2023-06-16_10h10.32.139,phx_ver10,2022.2.5,Win32,59.19261276,,,,,,,,,,,,36,testing_3,zh2sh,au,zh2sh_au,zh2sh_8_aushau.wav,zh2sh_1_auzhau.wav,,FALSE,FALSE,,,,,,,,,,,,,,f,0.5177,space,1.067,,,,,,,,0,47,47,35,1,,
5ecd22e76997ec03464c71aa,2023-06-16_10h10.32.139,phx_ver10,2022.2.5,Win32,59.19261276,,,,,,,,,,,,5,testing_1,zh2x,e,zh2x_e,zh2x_1_ezhe.wav,zh2x_1_ezhe_copy.wav,,TRUE,TRUE,,,,,,,,,,,,,,f,0.308,space,0.8172,,,,,,,,0,48,48,4,1,,
5ecd22e76997ec03464c71aa,2023-06-16_10h10.32.139,phx_ver10,2022.2.5,Win32,59.19261276,,,,,,,,,,,,53,testing_3,zh2j,ai,zh2j_ai,zh2j_1_aizhai.wav,zh2j_1_aizhai.wav,,TRUE,FALSE,,,,,,,,,,,,,,f,0.0508,space,0.5871,,,,,,,,0,49,49,52,1,,
5ecd22e76997ec03464c71aa,2023-06-16_10h10.32.139,phx_ver10,2022.2.5,Win32,59.19261276,,,,,,,,,,,,28,testing_3,zh2sh,a,zh2sh_a,zh2sh_8_asha.wav,zh2sh_1_azha.wav,,FALSE,FALSE,,,,,,,,,,,,,,f,0.455,space,0.9834,,,,,,,,0,50,50,27,1,,
5ecd22e76997ec03464c71aa,2023-06-16_10h10.32.139,phx_ver10,2022.2.5,Win32,59.19261276,,,,,,,,,,,,115,testing_3,sh2x,ei,sh2x_ei,sh2x_1_eishei.wav,sh2x_8_eixei.wav,,FALSE,FALSE,,,,,,,,,,,,,,f,0.1112,space,0.5843,,,,,,,,0,51,51,114,1,,
5ecd22e76997ec03464c71aa,2023-06-16_10h10.32.139,phx_ver10,2022.2.5,Win32,59.19261276,,,,,,,,,,,,46,testing_3,zh2sh,i,zh2sh_i,zh2sh_8_ishi.wav,zh2sh_8_ishi.wav,,TRUE,FALSE,,,,,,,,,,,,,,f,0.5177,space,0.9339,,,,,,,,0,52,52,45,1,,
5ecd22e76997ec03464c71aa,2023-06-16_10h10.32.139,phx_ver10,2022.2.5,Win32,59.19261276,,,,,,,,,,,,19,testing_2,zh2x,au,zh2x_au,zh2x_1_auzhau.wav,zh2x_8_auxau.wav,,FALSE,FALSE,,,,,,,,,,,,,,f,0.4179,space,1.0543,,,,,,,,0,53,53,18,1,,
5ecd22e76997ec03464c71aa,2023-06-16_10h10.32.139,phx_ver10,2022.2.5,Win32,59.19261276,,,,,,,,,,,,30,testing_3,zh2sh,ai,zh2sh_ai,zh2sh_8_aishai.wav,zh2sh_8_aishai.wav,,TRUE,FALSE,,,,,,,,,,,,,,f,0.0317,space,0.486,,,,,,,,0,54,54,29,1,,
5ecd22e76997ec03464c71aa,2023-06-16_10h10.32.139,phx_ver10,2022.2.5,Win32,59.19261276,,,,,,,,,,,,130,testing_3,sh2j,au,sh2j_au,sh2j_8_aujau.wav,sh2j_8_aujau.wav,,TRUE,FALSE,,,,,,,,,,,,,,f,0.0541,space,0.5162,,,,,,,,0,55,55,129,1,,
5ecd22e76997ec03464c71aa,2023-06-16_10h10.32.139,phx_ver10,2022.2.5,Win32,59.19261276,,,,,,,,,,,,84,testing_3,j2x,au,j2x_au,j2x_8_auxau.wav,j2x_1_aujau.wav,,FALSE,FALSE,,,,,,,,,,,,,,f,0.1371,space,0.734,,,,,,,,0,56,56,83,1,,
5ecd22e76997ec03464c71aa,2023-06-16_10h10.32.139,phx_ver10,2022.2.5,Win32,59.19261276,,,,,,,,,,,,33,testing_3,zh2sh,au,zh2sh_au,zh2sh_1_auzhau.wav,zh2sh_1_auzhau.wav,,TRUE,FALSE,,,,,,,,,,,,,,f,0.1507,space,0.8275,,,,,,,,0,57,57,32,1,,
5ecd22e76997ec03464c71aa,2023-06-16_10h10.32.139,phx_ver10,2022.2.5,Win32,59.19261276,,,,,,,,,,,,126,testing_3,sh2j,ai,sh2j_ai,sh2j_8_aijai.wav,sh2j_8_aijai.wav,,TRUE,FALSE,,,,,,,,,,,,,,f,0.0309,space,0.6216,,,,,,,,0,58,58,125,1,,
5ecd22e76997ec03464c71aa,2023-06-16_10h10.32.139,phx_ver10,2022.2.5,Win32,59.19261276,,,,,,,,,,,,102,testing_3,sh2x,ai,sh2x_ai,sh2x_8_aixai.wav,sh2x_8_aixai.wav,,TRUE,FALSE,,,,,,,,,,,,,,f,0.235,space,0.9381,,,,,,,,0,59,59,101,1,,
5ecd22e76997ec03464c71aa,2023-06-16_10h10.32.139,phx_ver10,2022.2.5,Win32,59.19261276,,,,,,,,,,,,9,testing_1,zh2x,i,zh2x_i,zh2x_1_izhi.wav,zh2x_1_izhi_copy.wav,,TRUE,TRUE,,,,,,,,,,,,,,f,0.0672,space,0.7001,,,,,,,,0,60,60,8,1,,
5ecd22e76997ec03464c71aa,2023-06-16_10h10.32.139,phx_ver10,2022.2.5,Win32,59.19261276,,,,,,,,,,,,47,testing_3,zh2sh,i,zh2sh_i,zh2sh_1_izhi.wav,zh2sh_8_ishi.wav,,FALSE,FALSE,,,,,,,,,,,,,,f,2.6661,space,3.0166,,,,,,,,0,61,61,46,1,,
5ecd22e76997ec03464c71aa,2023-06-16_10h10.32.139,phx_ver10,2022.2.5,Win32,59.19261276,,,,,,,,,,,,34,testing_3,zh2sh,au,zh2sh_au,zh2sh_8_aushau.wav,zh2sh_8_aushau.wav,,TRUE,FALSE,,,,,,,,,,,,,,f,0.5673,space,1.0176,,,,,,,,0,62,62,33,1,,
5ecd22e76997ec03464c71aa,2023-06-16_10h10.32.139,phx_ver10,2022.2.5,Win32,59.19261276,,,,,,,,,,,,58,testing_3,zh2j,au,zh2j_au,zh2j_8_aujau.wav,zh2j_8_aujau.wav,,TRUE,FALSE,,,,,,,,,,,,,,f,0.1591,space,0.6984,,,,,,,,0,63,63,57,1,,
5ecd22e76997ec03464c71aa,2023-06-16_10h10.32.139,phx_ver10,2022.2.5,Win32,59.19261276,,,,,,,,,,,,143,testing_3,sh2j,i,sh2j_i,sh2j_1_ishi.wav,sh2j_8_iji.wav,,FALSE,FALSE,,,,,,,,,,,,,,f,0.467,space,1.04,,,,,,,,0,64,64,142,1,,
5ecd22e76997ec03464c71aa,2023-06-16_10h10.32.139,phx_ver10,2022.2.5,Win32,59.19261276,,,,,,,,,,,,55,testing_3,zh2j,ai,zh2j_ai,zh2j_1_aizhai.wav,zh2j_8_aijai.wav,,FALSE,FALSE,,,,,,,,,,,,,,f,0.3186,space,1.2055,,,,,,,,0,65,65,54,1,,
5ecd22e76997ec03464c71aa,2023-06-16_10h10.32.139,phx_ver10,2022.2.5,Win32,59.19261276,,,,,,,,,,,,133,testing_3,sh2j,e,sh2j_e,sh2j_1_eshe.wav,sh2j_1_eshe.wav,,TRUE,FALSE,,,,,,,,,,,,,,f,0.3508,space,0.7842,,,,,,,,0,66,66,132,1,,
5ecd22e76997ec03464c71aa,2023-06-16_10h10.32.139,phx_ver10,2022.2.5,Win32,59.19261276,,,,,,,,,,,,24,testing_2,zh2x,ei,zh2x_ei,zh2x_8_eixei.wav,zh2x_1_eizhei.wav,,FALSE,FALSE,,,,,,,,,,,,,,f,0.1912,space,0.7841,,,,,,,,0,67,67,23,1,,
5ecd22e76997ec03464c71aa,2023-06-16_10h10.32.139,phx_ver10,2022.2.5,Win32,59.19261276,,,,,,,,,,,,119,testing_3,sh2x,i,sh2x_i,sh2x_1_ishi.wav,sh2x_8_ixi.wav,,FALSE,FALSE,,,,,,,,,,,,,,f,0.0408,space,0.5658,,,,,,,,0,68,68,118,1,,
5ecd22e76997ec03464c71aa,2023-06-16_10h10.32.139,phx_ver10,2022.2.5,Win32,59.19261276,,,,,,,,,,,,4,testing_1,zh2x,a,zh2x_a,zh2x_8_axa.wav,zh2x_1_azha.wav,,FALSE,TRUE,,,,,,,,,,,,,,f,0.0507,space,0.6166,,,,,,,,0,69,69,3,1,,
5ecd22e76997ec03464c71aa,2023-06-16_10h10.32.139,phx_ver10,2022.2.5,Win32,59.19261276,,,,,,,,,,,,15,testing_2,zh2x,ai,zh2x_ai,zh2x_1_aizhai.wav,zh2x_8_aixai.wav,,FALSE,FALSE,,,,,,,,,,,,,,f,0.1177,space,0.6,,,,,,,,0,70,70,14,1,,
5ecd22e76997ec03464c71aa,2023-06-16_10h10.32.139,phx_ver10,2022.2.5,Win32,59.19261276,,,,,,,,,,,,35,testing_3,zh2sh,au,zh2sh_au,zh2sh_1_auzhau.wav,zh2sh_8_aushau.wav,,FALSE,FALSE,,,,,,,,,,,,,,f,0.4671,space,0.9509,,,,,,,,0,71,71,34,1,,
5ecd22e76997ec03464c71aa,2023-06-16_10h10.32.139,phx_ver10,2022.2.5,Win32,59.19261276,,,,,,,,,,,,7,testing_1,zh2x,e,zh2x_e,zh2x_1_ezhe.wav,zh2x_8_exe.wav,,FALSE,TRUE,,,,,,,,,,,,,,f,0.3173,space,0.9509,,,,,,,,0,72,72,6,1,,
5ecd22e76997ec03464c71aa,2023-06-16_10h10.32.139,phx_ver10,2022.2.5,Win32,59.19261276,,,,,,,,,,,,44,testing_3,zh2sh,ei,zh2sh_ei,zh2sh_8_eishei.wav,zh2sh_1_eizhei.wav,,FALSE,FALSE,,,,,,,,,,,,,,f,0.5828,space,1.1835,,,,,,,,0,73,73,43,1,,
5ecd22e76997ec03464c71aa,2023-06-16_10h10.32.139,phx_ver10,2022.2.5,Win32,59.19261276,,,,,,,,,,,,108,testing_3,sh2x,au,sh2x_au,sh2x_8_auxau.wav,sh2x_1_aushau.wav,,FALSE,FALSE,,,,,,,,,,,,,,f,0.5835,space,1.7169,,,,,,,,0,74,74,107,1,,
5ecd22e76997ec03464c71aa,2023-06-16_10h10.32.139,phx_ver10,2022.2.5,Win32,59.19261276,,,,,,,,,,,,22,testing_2,zh2x,ei,zh2x_ei,zh2x_8_eixei.wav,zh2x_8_eixei.wav,,TRUE,FALSE,,,,,,,,,,,,,,f,0.8343,space,1.4784,,,,,,,,0,75,75,21,1,,
5ecd22e76997ec03464c71aa,2023-06-16_10h10.32.139,phx_ver10,2022.2.5,Win32,59.19261276,,,,,,,,,,,,78,testing_3,j2x,ai,j2x_ai,j2x_8_aixai.wav,j2x_8_aixai.wav,,TRUE,FALSE,,,,,,,,,,,,,,f,0.3242,space,1.1619,,,,,,,,0,76,76,77,1,,
5ecd22e76997ec03464c71aa,2023-06-16_10h10.32.139,phx_ver10,2022.2.5,Win32,59.19261276,,,,,,,,,,,,32,testing_3,zh2sh,ai,zh2sh_ai,zh2sh_8_aishai.wav,zh2sh_1_aizhai.wav,,FALSE,FALSE,,,,,,,,,,,,,,f,0.0087,space,0.4864,,,,,,,,0,77,77,31,1,,
5ecd22e76997ec03464c71aa,2023-06-16_10h10.32.139,phx_ver10,2022.2.5,Win32,59.19261276,,,,,,,,,,,,131,testing_3,sh2j,au,sh2j_au,sh2j_1_aushau.wav,sh2j_8_aujau.wav,,FALSE,FALSE,,,,,,,,,,,,,,f,0.1421,space,0.6541,,,,,,,,0,78,78,130,1,,
5ecd22e76997ec03464c71aa,2023-06-16_10h10.32.139,phx_ver10,2022.2.5,Win32,59.19261276,,,,,,,,,,,,13,testing_2,zh2x,ai,zh2x_ai,zh2x_1_aizhai.wav,zh2x_1_aizhai.wav,,TRUE,FALSE,,,,,,,,,,,,,,f,0.4508,space,0.8491,,,,,,,,0,79,79,12,1,,
5ecd22e76997ec03464c71aa,2023-06-16_10h10.32.139,phx_ver10,2022.2.5,Win32,59.19261276,,,,,,,,,,,,65,testing_3,zh2j,ei,zh2j_ei,zh2j_1_eizhei.wav,zh2j_1_eizhei.wav,,TRUE,FALSE,,,,,,,,,,,,,,f,0.4334,space,0.8347,,,,,,,,0,80,80,64,1,,
5ecd22e76997ec03464c71aa,2023-06-16_10h10.32.139,phx_ver10,2022.2.5,Win32,59.19261276,,,,,,,,,,,,106,testing_3,sh2x,au,sh2x_au,sh2x_8_auxau.wav,sh2x_8_auxau.wav,,TRUE,FALSE,,,,,,,,,,,,,,f,0.2172,space,0.5941,,,,,,,,0,81,81,105,1,,
5ecd22e76997ec03464c71aa,2023-06-16_10h10.32.139,phx_ver10,2022.2.5,Win32,59.19261276,,,,,,,,,,,,93,testing_3,j2x,i,j2x_i,j2x_1_iji.wav,j2x_1_iji.wav,,TRUE,FALSE,,,,,,,,,,,,,,f,0.451,space,0.97,,,,,,,,0,82,82,92,1,,
5ecd22e76997ec03464c71aa,2023-06-16_10h10.32.139,phx_ver10,2022.2.5,Win32,59.19261276,,,,,,,,,,,,98,testing_3,sh2x,a,sh2x_a,sh2x_8_axa.wav,sh2x_8_axa.wav,,TRUE,FALSE,,,,,,,,,,,,,,f,0.3169,space,0.856,,,,,,,,0,83,83,97,1,,
5ecd22e76997ec03464c71aa,2023-06-16_10h10.32.139,phx_ver10,2022.2.5,Win32,59.19261276,,,,,,,,,,,,64,testing_3,zh2j,e,zh2j_e,zh2j_8_eje.wav,zh2j_1_ezhe.wav,,FALSE,FALSE,,,,,,,,,,,,,,f,0.5012,space,1.0666,,,,,,,,0,84,84,63,1,,
5ecd22e76997ec03464c71aa,2023-06-16_10h10.32.139,phx_ver10,2022.2.5,Win32,59.19261276,,,,,,,,,,,,136,testing_3,sh2j,e,sh2j_e,sh2j_8_eje.wav,sh2j_1_eshe.wav,,FALSE,FALSE,,,,,,,,,,,,,,f,0.4142,space,0.8176,,,,,,,,0,85,85,135,1,,
5ecd22e76997ec03464c71aa,2023-06-16_10h10.32.139,phx_ver10,2022.2.5,Win32,59.19261276,,,,,,,,,,,,91,testing_3,j2x,ei,j2x_ei,j2x_1_eijei.wav,j2x_8_eixei.wav,,FALSE,FALSE,,,,,,,,,,,,,,f,0.2369,space,0.6493,,,,,,,,0,86,86,90,1,,
5ecd22e76997ec03464c71aa,2023-06-16_10h10.32.139,phx_ver10,2022.2.5,Win32,59.19261276,,,,,,,,,,,,88,testing_3,j2x,e,j2x_e,j2x_8_exe.wav,j2x_1_eje.wav,,FALSE,FALSE,,,,,,,,,,,,,,f,0.2641,space,0.698,,,,,,,,0,87,87,87,1,,
5ecd22e76997ec03464c71aa,2023-06-16_10h10.32.139,phx_ver10,2022.2.5,Win32,59.19261276,,,,,,,,,,,,140,testing_3,sh2j,ei,sh2j_ei,sh2j_8_eijei.wav,sh2j_1_eishei.wav,,FALSE,FALSE,,,,,,,,,,,,,,f,0.1094,space,0.6007,,,,,,,,0,88,88,139,1,,
5ecd22e76997ec03464c71aa,2023-06-16_10h10.32.139,phx_ver10,2022.2.5,Win32,59.19261276,,,,,,,,,,,,69,testing_3,zh2j,i,zh2j_i,zh2j_1_izhi.wav,zh2j_1_izhi.wav,,TRUE,FALSE,,,,,,,,,,,,,,f,0.0221,space,0.4665,,,,,,,,0,89,89,68,1,,
5ecd22e76997ec03464c71aa,2023-06-16_10h10.32.139,phx_ver10,2022.2.5,Win32,59.19261276,,,,,,,,,,,,96,testing_3,j2x,i,j2x_i,j2x_8_ixi.wav,j2x_1_iji.wav,,FALSE,FALSE,,,,,,,,,,,,,,f,0.3625,space,0.8675,,,,,,,,0,90,90,95,1,,
5ecd22e76997ec03464c71aa,2023-06-16_10h10.32.139,phx_ver10,2022.2.5,Win32,59.19261276,,,,,,,,,,,,89,testing_3,j2x,ei,j2x_ei,j2x_1_eijei.wav,j2x_1_eijei.wav,,TRUE,FALSE,,,,,,,,,,,,,,f,0.1601,space,0.7034,,,,,,,,0,91,91,88,1,,
5ecd22e76997ec03464c71aa,2023-06-16_10h10.32.139,phx_ver10,2022.2.5,Win32,59.19261276,,,,,,,,,,,,10,testing_1,zh2x,i,zh2x_i,zh2x_8_ixi.wav,zh2x_8_ixi_copy.wav,,TRUE,TRUE,,,,,,,,,,,,,,f,0.2508,space,0.6837,,,,,,,,0,92,92,9,1,,
5ecd22e76997ec03464c71aa,2023-06-16_10h10.32.139,phx_ver10,2022.2.5,Win32,59.19261276,,,,,,,,,,,,73,testing_3,j2x,a,j2x_a,j2x_1_aja.wav,j2x_1_aja.wav,,TRUE,FALSE,,,,,,,,,,,,,,f,0.8345,space,1.1927,,,,,,,,0,93,93,72,1,,
5ecd22e76997ec03464c71aa,2023-06-16_10h10.32.139,phx_ver10,2022.2.5,Win32,59.19261276,,,,,,,,,,,,116,testing_3,sh2x,ei,sh2x_ei,sh2x_8_eixei.wav,sh2x_1_eishei.wav,,FALSE,FALSE,,,,,,,,,,,,,,f,0.1339,space,1.0595,,,,,,,,0,94,94,115,1,,
5ecd22e76997ec03464c71aa,2023-06-16_10h10.32.139,phx_ver10,2022.2.5,Win32,59.19261276,,,,,,,,,,,,141,testing_3,sh2j,i,sh2j_i,sh2j_1_ishi.wav,sh2j_1_ishi.wav,,TRUE,FALSE,,,,,,,,,,,,,,f,0.2501,space,0.8346,,,,,,,,0,95,95,140,1,,
5ecd22e76997ec03464c71aa,2023-06-16_10h10.32.139,phx_ver10,2022.2.5,Win32,59.19261276,,,,,,,,,,,,128,testing_3,sh2j,ai,sh2j_ai,sh2j_8_aijai.wav,sh2j_1_aishai.wav,,FALSE,FALSE,,,,,,,,,,,,,,f,0.11,space,0.5786,,,,,,,,0,96,96,127,1,,
5ecd22e76997ec03464c71aa,2023-06-16_10h10.32.139,phx_ver10,2022.2.5,Win32,59.19261276,,,,,,,,,,,,95,testing_3,j2x,i,j2x_i,j2x_1_iji.wav,j2x_8_ixi.wav,,FALSE,FALSE,,,,,,,,,,,,,,f,0.4,space,0.8501,,,,,,,,0,97,97,94,1,,
5ecd22e76997ec03464c71aa,2023-06-16_10h10.32.139,phx_ver10,2022.2.5,Win32,59.19261276,,,,,,,,,,,,99,testing_3,sh2x,a,sh2x_a,sh2x_1_asha.wav,sh2x_8_axa.wav,,FALSE,FALSE,,,,,,,,,,,,,,f,0.635,space,1.017,,,,,,,,0,98,98,98,1,,
5ecd22e76997ec03464c71aa,2023-06-16_10h10.32.139,phx_ver10,2022.2.5,Win32,59.19261276,,,,,,,,,,,,57,testing_3,zh2j,au,zh2j_au,zh2j_1_auzhau.wav,zh2j_1_auzhau.wav,,TRUE,FALSE,,,,,,,,,,,,,,f,0.4501,space,0.7506,,,,,,,,0,99,99,56,1,,
5ecd22e76997ec03464c71aa,2023-06-16_10h10.32.139,phx_ver10,2022.2.5,Win32,59.19261276,,,,,,,,,,,,79,testing_3,j2x,ai,j2x_ai,j2x_1_aijai.wav,j2x_8_aixai.wav,,FALSE,FALSE,,,,,,,,,,,,,,f,0.1153,space,0.5334,,,,,,,,0,100,100,78,1,,
5ecd22e76997ec03464c71aa,2023-06-16_10h10.32.139,phx_ver10,2022.2.5,Win32,59.19261276,,,,,,,,,,,,43,testing_3,zh2sh,ei,zh2sh_ei,zh2sh_1_eizhei.wav,zh2sh_8_eishei.wav,,FALSE,FALSE,,,,,,,,,,,,,,f,0.4492,space,0.7991,,,,,,,,0,101,101,42,1,,
5ecd22e76997ec03464c71aa,2023-06-16_10h10.32.139,phx_ver10,2022.2.5,Win32,59.19261276,,,,,,,,,,,,38,testing_3,zh2sh,e,zh2sh_e,zh2sh_8_eshe.wav,zh2sh_8_eshe.wav,,TRUE,FALSE,,,,,,,,,,,,,,f,0.8166,space,1.1359,,,,,,,,0,102,102,37,1,,
5ecd22e76997ec03464c71aa,2023-06-16_10h10.32.139,phx_ver10,2022.2.5,Win32,59.19261276,,,,,,,,,,,,87,testing_3,j2x,e,j2x_e,j2x_1_eje.wav,j2x_8_exe.wav,,FALSE,FALSE,,,,,,,,,,,,,,f,1.8502,space,2.2003,,,,,,,,0,103,103,86,1,,
5ecd22e76997ec03464c71aa,2023-06-16_10h10.32.139,phx_ver10,2022.2.5,Win32,59.19261276,,,,,,,,,,,,17,testing_2,zh2x,au,zh2x_au,zh2x_1_auzhau.wav,zh2x_1_auzhau.wav,,TRUE,FALSE,,,,,,,,,,,,,,f,0.0258,space,0.5398,,,,,,,,0,104,104,16,1,,
5ecd22e76997ec03464c71aa,2023-06-16_10h10.32.139,phx_ver10,2022.2.5,Win32,59.19261276,,,,,,,,,,,,68,testing_3,zh2j,ei,zh2j_ei,zh2j_8_eijei.wav,zh2j_1_eizhei.wav,,FALSE,FALSE,,,,,,,,,,,,,,f,1.5567,space,1.9807,,,,,,,,0,105,105,67,1,,
5ecd22e76997ec03464c71aa,2023-06-16_10h10.32.139,phx_ver10,2022.2.5,Win32,59.19261276,,,,,,,,,,,,21,testing_2,zh2x,ei,zh2x_ei,zh2x_1_eizhei.wav,zh2x_1_eizhei.wav,,TRUE,FALSE,,,,,,,,,,,,,,f,0.468,space,0.5575,,,,,,,,0,106,106,20,1,,
5ecd22e76997ec03464c71aa,2023-06-16_10h10.32.139,phx_ver10,2022.2.5,Win32,59.19261276,,,,,,,,,,,,48,testing_3,zh2sh,i,zh2sh_i,zh2sh_8_ishi.wav,zh2sh_1_izhi.wav,,FALSE,FALSE,,,,,,,,,,,,,,f,2.5092,space,2.9686,,,,,,,,0,107,107,47,1,,
5ecd22e76997ec03464c71aa,2023-06-16_10h10.32.139,phx_ver10,2022.2.5,Win32,59.19261276,,,,,,,,,,,,142,testing_3,sh2j,i,sh2j_i,sh2j_8_iji.wav,sh2j_8_iji.wav,,TRUE,FALSE,,,,,,,,,,,,,,f,0.3997,space,0.7998,,,,,,,,0,108,108,141,1,,
5ecd22e76997ec03464c71aa,2023-06-16_10h10.32.139,phx_ver10,2022.2.5,Win32,59.19261276,,,,,,,,,,,,121,testing_3,sh2j,a,sh2j_a,sh2j_1_asha.wav,sh2j_1_asha.wav,,TRUE,FALSE,,,,,,,,,,,,,,f,0.5847,space,0.8618,,,,,,,,0,109,109,120,1,,
5ecd22e76997ec03464c71aa,2023-06-16_10h10.32.139,phx_ver10,2022.2.5,Win32,59.19261276,,,,,,,,,,,,101,testing_3,sh2x,ai,sh2x_ai,sh2x_1_aishai.wav,sh2x_1_aishai.wav,,TRUE,FALSE,,,,,,,,,,,,,,f,0.4551,space,0.7822,,,,,,,,0,110,110,100,1,,
5ecd22e76997ec03464c71aa,2023-06-16_10h10.32.139,phx_ver10,2022.2.5,Win32,59.19261276,,,,,,,,,,,,45,testing_3,zh2sh,i,zh2sh_i,zh2sh_1_izhi.wav,zh2sh_1_izhi.wav,,TRUE,FALSE,,,,,,,,,,,,,,f,0.2003,space,0.6001,,,,,,,,0,111,111,44,1,,
5ecd22e76997ec03464c71aa,2023-06-16_10h10.32.139,phx_ver10,2022.2.5,Win32,59.19261276,,,,,,,,,,,,109,testing_3,sh2x,e,sh2x_e,sh2x_1_eshe.wav,sh2x_1_eshe.wav,,TRUE,FALSE,,,,,,,,,,,,,,f,0.4672,space,1.6006,,,,,,,,0,112,112,108,1,,
5ecd22e76997ec03464c71aa,2023-06-16_10h10.32.139,phx_ver10,2022.2.5,Win32,59.19261276,,,,,,,,,,,,56,testing_3,zh2j,ai,zh2j_ai,zh2j_8_aijai.wav,zh2j_1_aizhai.wav,,FALSE,FALSE,,,,,,,,,,,,,,f,0.0054,space,0.6168,,,,,,,,0,113,113,55,1,,
5ecd22e76997ec03464c71aa,2023-06-16_10h10.32.139,phx_ver10,2022.2.5,Win32,59.19261276,,,,,,,,,,,,8,testing_1,zh2x,e,zh2x_e,zh2x_8_exe.wav,zh2x_1_ezhe.wav,,FALSE,TRUE,,,,,,,,,,,,,,f,0.7762,space,1.4126,,,,,,,,0,114,114,7,1,,
5ecd22e76997ec03464c71aa,2023-06-16_10h10.32.139,phx_ver10,2022.2.5,Win32,59.19261276,,,,,,,,,,,,67,testing_3,zh2j,ei,zh2j_ei,zh2j_1_eizhei.wav,zh2j_8_eijei.wav,,FALSE,FALSE,,,,,,,,,,,,,,f,0.5329,space,0.9222,,,,,,,,0,115,115,66,1,,
5ecd22e76997ec03464c71aa,2023-06-16_10h10.32.139,phx_ver10,2022.2.5,Win32,59.19261276,,,,,,,,,,,,25,testing_3,zh2sh,a,zh2sh_a,zh2sh_1_azha.wav,zh2sh_1_azha.wav,,TRUE,FALSE,,,,,,,,,,,,,,j,1.6561,space,1.9936,,,,,,,,0,116,116,24,1,,
5ecd22e76997ec03464c71aa,2023-06-16_10h10.32.139,phx_ver10,2022.2.5,Win32,59.19261276,,,,,,,,,,,,14,testing_2,zh2x,ai,zh2x_ai,zh2x_8_aixai.wav,zh2x_8_aixai.wav,,TRUE,FALSE,,,,,,,,,,,,,,f,0.5897,space,0.9554,,,,,,,,0,117,117,13,1,,
5ecd22e76997ec03464c71aa,2023-06-16_10h10.32.139,phx_ver10,2022.2.5,Win32,59.19261276,,,,,,,,,,,,122,testing_3,sh2j,a,sh2j_a,sh2j_8_aja.wav,sh2j_8_aja.wav,,TRUE,FALSE,,,,,,,,,,,,,,f,1.4827,space,1.8164,,,,,,,,0,118,118,121,1,,
5ecd22e76997ec03464c71aa,2023-06-16_10h10.32.139,phx_ver10,2022.2.5,Win32,59.19261276,,,,,,,,,,,,1,testing_1,zh2x,a,zh2x_a,zh2x_1_azha.wav,zh2x_1_azha_copy.wav,,TRUE,TRUE,,,,,,,,,,,,,,f,0.801,space,1.2001,,,,,,,,0,119,119,0,1,,
5ecd22e76997ec03464c71aa,2023-06-16_10h10.32.139,phx_ver10,2022.2.5,Win32,59.19261276,,,,,,,,,,,,39,testing_3,zh2sh,e,zh2sh_e,zh2sh_1_ezhe.wav,zh2sh_8_eshe.wav,,FALSE,FALSE,,,,,,,,,,,,,,f,0.7345,space,1.0681,,,,,,,,0,120,120,38,1,,
5ecd22e76997ec03464c71aa,2023-06-16_10h10.32.139,phx_ver10,2022.2.5,Win32,59.19261276,,,,,,,,,,,,139,testing_3,sh2j,ei,sh2j_ei,sh2j_1_eishei.wav,sh2j_8_eijei.wav,,FALSE,FALSE,,,,,,,,,,,,,,f,0.0279,space,0.4845,,,,,,,,0,121,121,138,1,,
5ecd22e76997ec03464c71aa,2023-06-16_10h10.32.139,phx_ver10,2022.2.5,Win32,59.19261276,,,,,,,,,,,,16,testing_2,zh2x,ai,zh2x_ai,zh2x_8_aixai.wav,zh2x_1_aizhai.wav,,FALSE,FALSE,,,,,,,,,,,,,,f,0.19,space,0.5826,,,,,,,,0,122,122,15,1,,
5ecd22e76997ec03464c71aa,2023-06-16_10h10.32.139,phx_ver10,2022.2.5,Win32,59.19261276,,,,,,,,,,,,127,testing_3,sh2j,ai,sh2j_ai,sh2j_1_aishai.wav,sh2j_8_aijai.wav,,FALSE,FALSE,,,,,,,,,,,,,,f,0.4429,space,0.7618,,,,,,,,0,123,123,126,1,,
5ecd22e76997ec03464c71aa,2023-06-16_10h10.32.139,phx_ver10,2022.2.5,Win32,59.19261276,,,,,,,,,,,,86,testing_3,j2x,e,j2x_e,j2x_8_exe.wav,j2x_8_exe.wav,,TRUE,FALSE,,,,,,,,,,,,,,f,0.4406,space,0.8506,,,,,,,,0,124,124,85,1,,
5ecd22e76997ec03464c71aa,2023-06-16_10h10.32.139,phx_ver10,2022.2.5,Win32,59.19261276,,,,,,,,,,,,37,testing_3,zh2sh,e,zh2sh_e,zh2sh_1_ezhe.wav,zh2sh_1_ezhe.wav,,TRUE,FALSE,,,,,,,,,,,,,,f,0.159,space,0.551,,,,,,,,0,125,125,36,1,,
5ecd22e76997ec03464c71aa,2023-06-16_10h10.32.139,phx_ver10,2022.2.5,Win32,59.19261276,,,,,,,,,,,,26,testing_3,zh2sh,a,zh2sh_a,zh2sh_8_asha.wav,zh2sh_8_asha.wav,,TRUE,FALSE,,,,,,,,,,,,,,f,0.2832,space,0.8495,,,,,,,,0,126,126,25,1,,
5ecd22e76997ec03464c71aa,2023-06-16_10h10.32.139,phx_ver10,2022.2.5,Win32,59.19261276,,,,,,,,,,,,18,testing_2,zh2x,au,zh2x_au,zh2x_8_auxau.wav,zh2x_8_auxau.wav,,TRUE,FALSE,,,,,,,,,,,,,,f,1.2503,space,1.853,,,,,,,,0,127,127,17,1,,
5ecd22e76997ec03464c71aa,2023-06-16_10h10.32.139,phx_ver10,2022.2.5,Win32,59.19261276,,,,,,,,,,,,20,testing_2,zh2x,au,zh2x_au,zh2x_8_auxau.wav,zh2x_1_auzhau.wav,,FALSE,FALSE,,,,,,,,,,,,,,f,0.1637,space,1.0142,,,,,,,,0,128,128,19,1,,
5ecd22e76997ec03464c71aa,2023-06-16_10h10.32.139,phx_ver10,2022.2.5,Win32,59.19261276,,,,,,,,,,,,123,testing_3,sh2j,a,sh2j_a,sh2j_1_asha.wav,sh2j_8_aja.wav,,FALSE,FALSE,,,,,,,,,,,,,,f,1.2009,space,1.6388,,,,,,,,0,129,129,122,1,,
5ecd22e76997ec03464c71aa,2023-06-16_10h10.32.139,phx_ver10,2022.2.5,Win32,59.19261276,,,,,,,,,,,,41,testing_3,zh2sh,ei,zh2sh_ei,zh2sh_1_eizhei.wav,zh2sh_1_eizhei.wav,,TRUE,FALSE,,,,,,,,,,,,,,f,0.6107,space,1.2417,,,,,,,,0,130,130,40,1,,
5ecd22e76997ec03464c71aa,2023-06-16_10h10.32.139,phx_ver10,2022.2.5,Win32,59.19261276,,,,,,,,,,,,72,testing_3,zh2j,i,zh2j_i,zh2j_8_iji.wav,zh2j_1_izhi.wav,,FALSE,FALSE,,,,,,,,,,,,,,f,0.4845,space,0.8667,,,,,,,,0,131,131,71,1,,
5ecd22e76997ec03464c71aa,2023-06-16_10h10.32.139,phx_ver10,2022.2.5,Win32,59.19261276,,,,,,,,,,,,113,testing_3,sh2x,ei,sh2x_ei,sh2x_1_eishei.wav,sh2x_1_eishei.wav,,TRUE,FALSE,,,,,,,,,,,,,,f,0.3551,space,0.6777,,,,,,,,0,132,132,112,1,,
5ecd22e76997ec03464c71aa,2023-06-16_10h10.32.139,phx_ver10,2022.2.5,Win32,59.19261276,,,,,,,,,,,,27,testing_3,zh2sh,a,zh2sh_a,zh2sh_1_azha.wav,zh2sh_8_asha.wav,,FALSE,FALSE,,,,,,,,,,,,,,f,0.8672,space,1.3843,,,,,,,,0,133,133,26,1,,
5ecd22e76997ec03464c71aa,2023-06-16_10h10.32.139,phx_ver10,2022.2.5,Win32,59.19261276,,,,,,,,,,,,23,testing_2,zh2x,ei,zh2x_ei,zh2x_1_eizhei.wav,zh2x_8_eixei.wav,,FALSE,FALSE,,,,,,,,,,,,,,f,0.368,space,0.7726,,,,,,,,0,134,134,22,1,,
5ecd22e76997ec03464c71aa,2023-06-16_10h10.32.139,phx_ver10,2022.2.5,Win32,59.19261276,,,,,,,,,,,,135,testing_3,sh2j,e,sh2j_e,sh2j_1_eshe.wav,sh2j_8_eje.wav,,FALSE,FALSE,,,,,,,,,,,,,,f,0.6405,space,1.0254,,,,,,,,0,135,135,134,1,,
5ecd22e76997ec03464c71aa,2023-06-16_10h10.32.139,phx_ver10,2022.2.5,Win32,59.19261276,,,,,,,,,,,,118,testing_3,sh2x,i,sh2x_i,sh2x_8_ixi.wav,sh2x_8_ixi.wav,,TRUE,FALSE,,,,,,,,,,,,,,f,0.4142,space,0.7475,,,,,,,,0,136,136,117,1,,
5ecd22e76997ec03464c71aa,2023-06-16_10h10.32.139,phx_ver10,2022.2.5,Win32,59.19261276,,,,,,,,,,,,60,testing_3,zh2j,au,zh2j_au,zh2j_8_aujau.wav,zh2j_1_auzhau.wav,,FALSE,FALSE,,,,,,,,,,,,,,f,1.3676,space,1.7845,,,,,,,,0,137,137,59,1,,
5ecd22e76997ec03464c71aa,2023-06-16_10h10.32.139,phx_ver10,2022.2.5,Win32,59.19261276,,,,,,,,,,,,29,testing_3,zh2sh,ai,zh2sh_ai,zh2sh_1_aizhai.wav,zh2sh_1_aizhai.wav,,TRUE,FALSE,,,,,,,,,,,,,,f,0.4496,space,0.917,,,,,,,,0,138,138,28,1,,
5ecd22e76997ec03464c71aa,2023-06-16_10h10.32.139,phx_ver10,2022.2.5,Win32,59.19261276,,,,,,,,,,,,90,testing_3,j2x,ei,j2x_ei,j2x_8_eixei.wav,j2x_8_eixei.wav,,TRUE,FALSE,,,,,,,,,,,,,,f,0.0536,space,0.5495,,,,,,,,0,139,139,89,1,,
5ecd22e76997ec03464c71aa,2023-06-16_10h10.32.139,phx_ver10,2022.2.5,Win32,59.19261276,,,,,,,,,,,,12,testing_1,zh2x,i,zh2x_i,zh2x_8_ixi.wav,zh2x_1_izhi.wav,,FALSE,TRUE,,,,,,,,,,,,,,f,0.5062,space,1.0995,,,,,,,,0,140,140,11,1,,
5ecd22e76997ec03464c71aa,2023-06-16_10h10.32.139,phx_ver10,2022.2.5,Win32,59.19261276,,,,,,,,,,,,63,testing_3,zh2j,e,zh2j_e,zh2j_1_ezhe.wav,zh2j_8_eje.wav,,FALSE,FALSE,,,,,,,,,,,,,,f,0.3467,space,0.6969,,,,,,,,0,141,141,62,1,,
5ecd22e76997ec03464c71aa,2023-06-16_10h10.32.139,phx_ver10,2022.2.5,Win32,59.19261276,,,,,,,,,,,,110,testing_3,sh2x,e,sh2x_e,sh2x_8_exe.wav,sh2x_8_exe.wav,,TRUE,FALSE,,,,,,,,,,,,,,f,0.067,space,0.4338,,,,,,,,0,142,142,109,1,,
5ecd22e76997ec03464c71aa,2023-06-16_10h10.32.139,phx_ver10,2022.2.5,Win32,59.19261276,,,,,,,,,,,,6,testing_1,zh2x,e,zh2x_e,zh2x_8_exe.wav,zh2x_8_exe_copy.wav,,TRUE,TRUE,,,,,,,,,,,,,,f,0.3016,space,0.6415,,,,,,,,0,143,143,5,1,,
5ecd22e76997ec03464c71aa,2023-06-16_10h10.32.139,phx_ver10,2022.2.5,Win32,59.19261276,,,,,,,,,,,,,,,,,,,,,,,,,,,,,,,,,,,,,,,,,,,,,,,,,,,space,3.1237
