participant,date,expName,psychopyVersion,OS,frameRate,space_1.keys,space_1.rt,space_2.keys,space_2.rt,space_train.keys,space_train.rt,training.thisRepN,training.thisTrialN,training.thisN,training.thisIndex,training.ran,token_id,task,continuum,vowel,series,sound_1,sound_2,img,same,trained,FJ_attn.keys,FJ_attn.rt,space_attn.keys,space_attn.rt,if_attn_test.thisRepN,if_attn_test.thisTrialN,if_attn_test.thisN,if_attn_test.thisIndex,if_attn_test.ran,space_trans_1.keys,space_trans_1.rt,space_trans_11.keys,space_trans_11.rt,FJ_test.keys,FJ_test.rt,space_test.keys,space_test.rt,testing_pre.thisRepN,testing_pre.thisTrialN,testing_pre.thisN,testing_pre.thisIndex,testing_pre.ran,space_trans_2.keys,space_trans_2.rt,testing_all.thisRepN,testing_all.thisTrialN,testing_all.thisN,testing_all.thisIndex,testing_all.ran,space_ending.keys,space_ending.rt
5ee454ad40c72e152991826e,2023-06-16_20h59.26.142,phx_ver10,2022.2.5,Win32,60.02040694,,,,,,,,,,,,,,,,,,,,,,,,,,,,,,,,,,,,,,,,,,,,,,,,,,,,
5ee454ad40c72e152991826e,2023-06-16_20h59.26.142,phx_ver10,2022.2.5,Win32,60.02040694,space,4.896,,,,,,,,,,,,,,,,,,,,,,,,,,,,,,,,,,,,,,,,,,,,,,,,,,
5ee454ad40c72e152991826e,2023-06-16_20h59.26.142,phx_ver10,2022.2.5,Win32,60.02040694,,,space,3.2184,,,,,,,,,,,,,,,,,,,,,,,,,,,,,,,,,,,,,,,,,,,,,,,,
5ee454ad40c72e152991826e,2023-06-16_20h59.26.142,phx_ver10,2022.2.5,Win32,60.02040694,,,,,space,2.9014,0,0,0,42,1,43,training,zh2x,i,zh2x_i,zh2x_6_ixi.wav,,ixi.jpg,,,,,,,,,,,,,,,,,,,,,,,,,,,,,,,,,
5ee454ad40c72e152991826e,2023-06-16_20h59.26.142,phx_ver10,2022.2.5,Win32,60.02040694,,,,,space,2.3509,0,1,1,13,1,14,training,zh2x,a,zh2x_a,zh2x_7_axa.wav,,axa.jpg,,,,,,,,,,,,,,,,,,,,,,,,,,,,,,,,,
5ee454ad40c72e152991826e,2023-06-16_20h59.26.142,phx_ver10,2022.2.5,Win32,60.02040694,,,,,space,1.6523,0,2,2,2,1,3,training,zh2x,a,zh2x_a,zh2x_2_azha.wav,,azha.jpg,,,,,,,,,,,,,,,,,,,,,,,,,,,,,,,,,
5ee454ad40c72e152991826e,2023-06-16_20h59.26.142,phx_ver10,2022.2.5,Win32,60.02040694,,,,,space,1.3189,0,3,3,7,1,8,training,zh2x,a,zh2x_a,zh2x_4_azha.wav,,azha.jpg,,,,,,,,,,,,,,,,,,,,,,,,,,,,,,,,,
5ee454ad40c72e152991826e,2023-06-16_20h59.26.142,phx_ver10,2022.2.5,Win32,60.02040694,,,,,space,1.037,0,4,4,8,1,9,training,zh2x,a,zh2x_a,zh2x_5_axa.wav,,axa.jpg,,,,,,,,,,,,,,,,,,,,,,,,,,,,,,,,,
5ee454ad40c72e152991826e,2023-06-16_20h59.26.142,phx_ver10,2022.2.5,Win32,60.02040694,,,,,space,1.8498,0,5,5,36,1,37,training,zh2x,i,zh2x_i,zh2x_2_izhi.wav,,izhi.jpg,,,,,,,,,,,,,,,,,,,,,,,,,,,,,,,,,
5ee454ad40c72e152991826e,2023-06-16_20h59.26.142,phx_ver10,2022.2.5,Win32,60.02040694,,,,,,,,,,,,,attn_test,,,,zh2x_1_azha.wav,zh2x_8_axa.wav,axa.jpg,RIGHT,,f,5.8841,space,7.6983,0,0,0,0,1,,,,,,,,,,,,,,,,,,,,,,
5ee454ad40c72e152991826e,2023-06-16_20h59.26.142,phx_ver10,2022.2.5,Win32,60.02040694,,,,,space,1.6769,0,6,6,4,1,5,training,zh2x,a,zh2x_a,zh2x_2_azha.wav,,azha.jpg,,,,,,,,,,,,,,,,,,,,,,,,,,,,,,,,,
5ee454ad40c72e152991826e,2023-06-16_20h59.26.142,phx_ver10,2022.2.5,Win32,60.02040694,,,,,space,1.8849,0,7,7,30,1,31,training,zh2x,e,zh2x_e,zh2x_7_exe.wav,,exe.jpg,,,,,,,,,,,,,,,,,,,,,,,,,,,,,,,,,
5ee454ad40c72e152991826e,2023-06-16_20h59.26.142,phx_ver10,2022.2.5,Win32,60.02040694,,,,,space,1.0491,0,8,8,40,1,41,training,zh2x,i,zh2x_i,zh2x_5_ixi.wav,,ixi.jpg,,,,,,,,,,,,,,,,,,,,,,,,,,,,,,,,,
5ee454ad40c72e152991826e,2023-06-16_20h59.26.142,phx_ver10,2022.2.5,Win32,60.02040694,,,,,space,1.0343,0,9,9,24,1,25,training,zh2x,e,zh2x_e,zh2x_5_exe.wav,,exe.jpg,,,,,,,,,,,,,,,,,,,,,,,,,,,,,,,,,
5ee454ad40c72e152991826e,2023-06-16_20h59.26.142,phx_ver10,2022.2.5,Win32,60.02040694,,,,,space,0.7725,0,10,10,3,1,4,training,zh2x,a,zh2x_a,zh2x_2_azha.wav,,azha.jpg,,,,,,,,,,,,,,,,,,,,,,,,,,,,,,,,,
5ee454ad40c72e152991826e,2023-06-16_20h59.26.142,phx_ver10,2022.2.5,Win32,60.02040694,,,,,space,0.8037,0,11,11,11,1,12,training,zh2x,a,zh2x_a,zh2x_7_axa.wav,,axa.jpg,,,,,,,,,,,,,,,,,,,,,,,,,,,,,,,,,
5ee454ad40c72e152991826e,2023-06-16_20h59.26.142,phx_ver10,2022.2.5,Win32,60.02040694,,,,,,,,,,,,,attn_test,,,,zh2x_1_azha.wav,zh2x_1_izhi.wav,azha.jpg,LEFT,,f,0.6527,space,2.5885,0,0,0,0,1,,,,,,,,,,,,,,,,,,,,,,
5ee454ad40c72e152991826e,2023-06-16_20h59.26.142,phx_ver10,2022.2.5,Win32,60.02040694,,,,,space,2.2738,0,12,12,38,1,39,training,zh2x,i,zh2x_i,zh2x_3_izhi.wav,,izhi.jpg,,,,,,,,,,,,,,,,,,,,,,,,,,,,,,,,,
5ee454ad40c72e152991826e,2023-06-16_20h59.26.142,phx_ver10,2022.2.5,Win32,60.02040694,,,,,space,1.6693,0,13,13,25,1,26,training,zh2x,e,zh2x_e,zh2x_6_exe.wav,,exe.jpg,,,,,,,,,,,,,,,,,,,,,,,,,,,,,,,,,
5ee454ad40c72e152991826e,2023-06-16_20h59.26.142,phx_ver10,2022.2.5,Win32,60.02040694,,,,,space,1.0256,0,14,14,10,1,11,training,zh2x,a,zh2x_a,zh2x_6_axa.wav,,axa.jpg,,,,,,,,,,,,,,,,,,,,,,,,,,,,,,,,,
5ee454ad40c72e152991826e,2023-06-16_20h59.26.142,phx_ver10,2022.2.5,Win32,60.02040694,,,,,space,0.6183,0,15,15,15,1,16,training,zh2x,a,zh2x_a,zh2x_8_axa.wav,,axa.jpg,,,,,,,,,,,,,,,,,,,,,,,,,,,,,,,,,
5ee454ad40c72e152991826e,2023-06-16_20h59.26.142,phx_ver10,2022.2.5,Win32,60.02040694,,,,,space,0.8011,0,16,16,47,1,48,training,zh2x,i,zh2x_i,zh2x_8_ixi.wav,,ixi.jpg,,,,,,,,,,,,,,,,,,,,,,,,,,,,,,,,,
5ee454ad40c72e152991826e,2023-06-16_20h59.26.142,phx_ver10,2022.2.5,Win32,60.02040694,,,,,space,1.8532,0,17,17,16,1,17,training,zh2x,e,zh2x_e,zh2x_1_ezhe.wav,,ezhe.jpg,,,,,,,,,,,,,,,,,,,,,,,,,,,,,,,,,
5ee454ad40c72e152991826e,2023-06-16_20h59.26.142,phx_ver10,2022.2.5,Win32,60.02040694,,,,,,,,,,,,,attn_test,,,,zh2x_1_ezhe.wav,zh2x_8_ixi.wav,ixi.jpg,RIGHT,,j,0.368,space,1.1535,0,0,0,0,1,,,,,,,,,,,,,,,,,,,,,,
5ee454ad40c72e152991826e,2023-06-16_20h59.26.142,phx_ver10,2022.2.5,Win32,60.02040694,,,,,space,1.1149,0,18,18,41,1,42,training,zh2x,i,zh2x_i,zh2x_6_ixi.wav,,ixi.jpg,,,,,,,,,,,,,,,,,,,,,,,,,,,,,,,,,
5ee454ad40c72e152991826e,2023-06-16_20h59.26.142,phx_ver10,2022.2.5,Win32,60.02040694,,,,,space,0.5643,0,19,19,43,1,44,training,zh2x,i,zh2x_i,zh2x_7_ixi.wav,,ixi.jpg,,,,,,,,,,,,,,,,,,,,,,,,,,,,,,,,,
5ee454ad40c72e152991826e,2023-06-16_20h59.26.142,phx_ver10,2022.2.5,Win32,60.02040694,,,,,space,1.0552,0,20,20,23,1,24,training,zh2x,e,zh2x_e,zh2x_4_ezhe.wav,,ezhe.jpg,,,,,,,,,,,,,,,,,,,,,,,,,,,,,,,,,
5ee454ad40c72e152991826e,2023-06-16_20h59.26.142,phx_ver10,2022.2.5,Win32,60.02040694,,,,,space,0.8383,0,21,21,6,1,7,training,zh2x,a,zh2x_a,zh2x_3_azha.wav,,azha.jpg,,,,,,,,,,,,,,,,,,,,,,,,,,,,,,,,,
5ee454ad40c72e152991826e,2023-06-16_20h59.26.142,phx_ver10,2022.2.5,Win32,60.02040694,,,,,space,0.6854,0,22,22,18,1,19,training,zh2x,e,zh2x_e,zh2x_2_ezhe.wav,,ezhe.jpg,,,,,,,,,,,,,,,,,,,,,,,,,,,,,,,,,
5ee454ad40c72e152991826e,2023-06-16_20h59.26.142,phx_ver10,2022.2.5,Win32,60.02040694,,,,,space,0.5041,0,23,23,12,1,13,training,zh2x,a,zh2x_a,zh2x_7_axa.wav,,axa.jpg,,,,,,,,,,,,,,,,,,,,,,,,,,,,,,,,,
5ee454ad40c72e152991826e,2023-06-16_20h59.26.142,phx_ver10,2022.2.5,Win32,60.02040694,,,,,,,,,,,,,attn_test,,,,zh2x_1_ezhe.wav,zh2x_1_izhi.wav,ezhe.jpg,LEFT,,f,0.1009,space,0.6676,0,0,0,0,1,,,,,,,,,,,,,,,,,,,,,,
5ee454ad40c72e152991826e,2023-06-16_20h59.26.142,phx_ver10,2022.2.5,Win32,60.02040694,,,,,space,1.3098,0,24,24,34,1,35,training,zh2x,i,zh2x_i,zh2x_2_izhi.wav,,izhi.jpg,,,,,,,,,,,,,,,,,,,,,,,,,,,,,,,,,
5ee454ad40c72e152991826e,2023-06-16_20h59.26.142,phx_ver10,2022.2.5,Win32,60.02040694,,,,,space,0.6991,0,25,25,17,1,18,training,zh2x,e,zh2x_e,zh2x_2_ezhe.wav,,ezhe.jpg,,,,,,,,,,,,,,,,,,,,,,,,,,,,,,,,,
5ee454ad40c72e152991826e,2023-06-16_20h59.26.142,phx_ver10,2022.2.5,Win32,60.02040694,,,,,space,0.5084,0,26,26,33,1,34,training,zh2x,i,zh2x_i,zh2x_2_izhi.wav,,izhi.jpg,,,,,,,,,,,,,,,,,,,,,,,,,,,,,,,,,
5ee454ad40c72e152991826e,2023-06-16_20h59.26.142,phx_ver10,2022.2.5,Win32,60.02040694,,,,,space,0.7505,0,27,27,5,1,6,training,zh2x,a,zh2x_a,zh2x_3_azha.wav,,azha.jpg,,,,,,,,,,,,,,,,,,,,,,,,,,,,,,,,,
5ee454ad40c72e152991826e,2023-06-16_20h59.26.142,phx_ver10,2022.2.5,Win32,60.02040694,,,,,space,0.8227,0,28,28,9,1,10,training,zh2x,a,zh2x_a,zh2x_6_axa.wav,,axa.jpg,,,,,,,,,,,,,,,,,,,,,,,,,,,,,,,,,
5ee454ad40c72e152991826e,2023-06-16_20h59.26.142,phx_ver10,2022.2.5,Win32,60.02040694,,,,,space,0.4885,0,29,29,44,1,45,training,zh2x,i,zh2x_i,zh2x_7_ixi.wav,,ixi.jpg,,,,,,,,,,,,,,,,,,,,,,,,,,,,,,,,,
5ee454ad40c72e152991826e,2023-06-16_20h59.26.142,phx_ver10,2022.2.5,Win32,60.02040694,,,,,,,,,,,,,attn_test,,,,zh2x_1_ezhe.wav,zh2x_8_ixi.wav,ixi.jpg,RIGHT,,j,2.9882,space,3.6308,0,0,0,0,1,,,,,,,,,,,,,,,,,,,,,,
5ee454ad40c72e152991826e,2023-06-16_20h59.26.142,phx_ver10,2022.2.5,Win32,60.02040694,,,,,space,0.7334,0,30,30,14,1,15,training,zh2x,a,zh2x_a,zh2x_7_axa.wav,,axa.jpg,,,,,,,,,,,,,,,,,,,,,,,,,,,,,,,,,
5ee454ad40c72e152991826e,2023-06-16_20h59.26.142,phx_ver10,2022.2.5,Win32,60.02040694,,,,,space,0.3173,0,31,31,1,1,2,training,zh2x,a,zh2x_a,zh2x_2_azha.wav,,azha.jpg,,,,,,,,,,,,,,,,,,,,,,,,,,,,,,,,,
5ee454ad40c72e152991826e,2023-06-16_20h59.26.142,phx_ver10,2022.2.5,Win32,60.02040694,,,,,space,0.8397,0,32,32,45,1,46,training,zh2x,i,zh2x_i,zh2x_7_ixi.wav,,ixi.jpg,,,,,,,,,,,,,,,,,,,,,,,,,,,,,,,,,
5ee454ad40c72e152991826e,2023-06-16_20h59.26.142,phx_ver10,2022.2.5,Win32,60.02040694,,,,,space,0.2674,0,33,33,46,1,47,training,zh2x,i,zh2x_i,zh2x_7_ixi.wav,,ixi.jpg,,,,,,,,,,,,,,,,,,,,,,,,,,,,,,,,,
5ee454ad40c72e152991826e,2023-06-16_20h59.26.142,phx_ver10,2022.2.5,Win32,60.02040694,,,,,space,0.2701,0,34,34,37,1,38,training,zh2x,i,zh2x_i,zh2x_3_izhi.wav,,izhi.jpg,,,,,,,,,,,,,,,,,,,,,,,,,,,,,,,,,
5ee454ad40c72e152991826e,2023-06-16_20h59.26.142,phx_ver10,2022.2.5,Win32,60.02040694,,,,,space,0.3547,0,35,35,32,1,33,training,zh2x,i,zh2x_i,zh2x_1_izhi.wav,,izhi.jpg,,,,,,,,,,,,,,,,,,,,,,,,,,,,,,,,,
5ee454ad40c72e152991826e,2023-06-16_20h59.26.142,phx_ver10,2022.2.5,Win32,60.02040694,,,,,,,,,,,,,attn_test,,,,zh2x_1_azha.wav,zh2x_1_izhi.wav,izhi.jpg,RIGHT,,j,0.9568,space,1.6404,0,0,0,0,1,,,,,,,,,,,,,,,,,,,,,,
5ee454ad40c72e152991826e,2023-06-16_20h59.26.142,phx_ver10,2022.2.5,Win32,60.02040694,,,,,space,0.5969,0,36,36,39,1,40,training,zh2x,i,zh2x_i,zh2x_4_izhi.wav,,izhi.jpg,,,,,,,,,,,,,,,,,,,,,,,,,,,,,,,,,
5ee454ad40c72e152991826e,2023-06-16_20h59.26.142,phx_ver10,2022.2.5,Win32,60.02040694,,,,,space,0.192,0,37,37,20,1,21,training,zh2x,e,zh2x_e,zh2x_2_ezhe.wav,,ezhe.jpg,,,,,,,,,,,,,,,,,,,,,,,,,,,,,,,,,
5ee454ad40c72e152991826e,2023-06-16_20h59.26.142,phx_ver10,2022.2.5,Win32,60.02040694,,,,,space,1.071,0,38,38,31,1,32,training,zh2x,e,zh2x_e,zh2x_8_exe.wav,,exe.jpg,,,,,,,,,,,,,,,,,,,,,,,,,,,,,,,,,
5ee454ad40c72e152991826e,2023-06-16_20h59.26.142,phx_ver10,2022.2.5,Win32,60.02040694,,,,,space,0.591,0,39,39,29,1,30,training,zh2x,e,zh2x_e,zh2x_7_exe.wav,,exe.jpg,,,,,,,,,,,,,,,,,,,,,,,,,,,,,,,,,
5ee454ad40c72e152991826e,2023-06-16_20h59.26.142,phx_ver10,2022.2.5,Win32,60.02040694,,,,,space,0.5842,0,40,40,22,1,23,training,zh2x,e,zh2x_e,zh2x_3_ezhe.wav,,ezhe.jpg,,,,,,,,,,,,,,,,,,,,,,,,,,,,,,,,,
5ee454ad40c72e152991826e,2023-06-16_20h59.26.142,phx_ver10,2022.2.5,Win32,60.02040694,,,,,space,0.6002,0,41,41,26,1,27,training,zh2x,e,zh2x_e,zh2x_6_exe.wav,,exe.jpg,,,,,,,,,,,,,,,,,,,,,,,,,,,,,,,,,
5ee454ad40c72e152991826e,2023-06-16_20h59.26.142,phx_ver10,2022.2.5,Win32,60.02040694,,,,,,,,,,,,,attn_test,,,,zh2x_1_ezhe.wav,zh2x_8_ixi.wav,ezhe.jpg,LEFT,,f,0.0668,space,0.7005,0,0,0,0,1,,,,,,,,,,,,,,,,,,,,,,
5ee454ad40c72e152991826e,2023-06-16_20h59.26.142,phx_ver10,2022.2.5,Win32,60.02040694,,,,,space,0.7445,0,42,42,0,1,1,training,zh2x,a,zh2x_a,zh2x_1_azha.wav,,azha.jpg,,,,,,,,,,,,,,,,,,,,,,,,,,,,,,,,,
5ee454ad40c72e152991826e,2023-06-16_20h59.26.142,phx_ver10,2022.2.5,Win32,60.02040694,,,,,space,0.8353,0,43,43,19,1,20,training,zh2x,e,zh2x_e,zh2x_2_ezhe.wav,,ezhe.jpg,,,,,,,,,,,,,,,,,,,,,,,,,,,,,,,,,
5ee454ad40c72e152991826e,2023-06-16_20h59.26.142,phx_ver10,2022.2.5,Win32,60.02040694,,,,,space,0.4306,0,44,44,35,1,36,training,zh2x,i,zh2x_i,zh2x_2_izhi.wav,,izhi.jpg,,,,,,,,,,,,,,,,,,,,,,,,,,,,,,,,,
5ee454ad40c72e152991826e,2023-06-16_20h59.26.142,phx_ver10,2022.2.5,Win32,60.02040694,,,,,space,0.7675,0,45,45,27,1,28,training,zh2x,e,zh2x_e,zh2x_7_exe.wav,,exe.jpg,,,,,,,,,,,,,,,,,,,,,,,,,,,,,,,,,
5ee454ad40c72e152991826e,2023-06-16_20h59.26.142,phx_ver10,2022.2.5,Win32,60.02040694,,,,,space,0.3,0,46,46,21,1,22,training,zh2x,e,zh2x_e,zh2x_3_ezhe.wav,,ezhe.jpg,,,,,,,,,,,,,,,,,,,,,,,,,,,,,,,,,
5ee454ad40c72e152991826e,2023-06-16_20h59.26.142,phx_ver10,2022.2.5,Win32,60.02040694,,,,,space,0.9007,0,47,47,28,1,29,training,zh2x,e,zh2x_e,zh2x_7_exe.wav,,exe.jpg,,,,,,,,,,,,,,,,,,,,,,,,,,,,,,,,,
5ee454ad40c72e152991826e,2023-06-16_20h59.26.142,phx_ver10,2022.2.5,Win32,60.02040694,,,,,,,,,,,,,attn_test,,,,zh2x_1_ezhe.wav,zh2x_8_exe.wav,exe.jpg,RIGHT,,j,0.7221,space,1.6404,,,,,,,,,,,,,,,,,,,,,,,,,,,
5ee454ad40c72e152991826e,2023-06-16_20h59.26.142,phx_ver10,2022.2.5,Win32,60.02040694,,,,,,,,,,,,,,,,,,,,,,,,,,,,,,,space,3.4464,,,,,,,,,,,,,,,,,,,,
5ee454ad40c72e152991826e,2023-06-16_20h59.26.142,phx_ver10,2022.2.5,Win32,60.02040694,,,,,,,,,,,,,,,,,,,,,,,,,,,,,,,,,space,14.2369,,,,,,,,,,,,,,,,,,
5ee454ad40c72e152991826e,2023-06-16_20h59.26.142,phx_ver10,2022.2.5,Win32,60.02040694,,,,,,,,,,,,1,testing_pre,,,,ifi.wav,ifi.wav,,TRUE,,,,,,,,,,,,,,,f,1.3517,space,2.6308,0,0,0,0,1,,,,,,,,,
5ee454ad40c72e152991826e,2023-06-16_20h59.26.142,phx_ver10,2022.2.5,Win32,60.02040694,,,,,,,,,,,,2,testing_pre,,,,auhau.wav,aufau.wav,,FALSE,,,,,,,,,,,,,,,j,0.6424,space,1.0708,0,1,1,1,1,,,,,,,,,
5ee454ad40c72e152991826e,2023-06-16_20h59.26.142,phx_ver10,2022.2.5,Win32,60.02040694,,,,,,,,,,,,3,testing_pre,,,,afa.wav,aha.wav,,FALSE,,,,,,,,,,,,,,,j,0.4691,space,0.8358,0,2,2,2,1,,,,,,,,,
5ee454ad40c72e152991826e,2023-06-16_20h59.26.142,phx_ver10,2022.2.5,Win32,60.02040694,,,,,,,,,,,,4,testing_pre,,,,eihei.wav,eihei.wav,,TRUE,,,,,,,,,,,,,,,f,0.1202,space,0.9506,0,3,3,3,1,,,,,,,,,
5ee454ad40c72e152991826e,2023-06-16_20h59.26.142,phx_ver10,2022.2.5,Win32,60.02040694,,,,,,,,,,,,5,testing_pre,,,,ihi.wav,ifi.wav,,FALSE,,,,,,,,,,,,,,,j,0.3563,space,0.8063,0,4,4,4,1,,,,,,,,,
5ee454ad40c72e152991826e,2023-06-16_20h59.26.142,phx_ver10,2022.2.5,Win32,60.02040694,,,,,,,,,,,,,,,,,,,,,,,,,,,,,,,,,,,,,,,,,,,,space,1.3572,,,,,,,
5ee454ad40c72e152991826e,2023-06-16_20h59.26.142,phx_ver10,2022.2.5,Win32,60.02040694,,,,,,,,,,,,124,testing_3,sh2j,a,sh2j_a,sh2j_8_aja.wav,sh2j_1_asha.wav,,FALSE,FALSE,,,,,,,,,,,,,,j,0.4652,space,1.2473,,,,,,,,0,0,0,123,1,,
5ee454ad40c72e152991826e,2023-06-16_20h59.26.142,phx_ver10,2022.2.5,Win32,60.02040694,,,,,,,,,,,,68,testing_3,zh2j,ei,zh2j_ei,zh2j_8_eijei.wav,zh2j_1_eizhei.wav,,FALSE,FALSE,,,,,,,,,,,,,,f,0.3357,space,1.115,,,,,,,,0,1,1,67,1,,
5ee454ad40c72e152991826e,2023-06-16_20h59.26.142,phx_ver10,2022.2.5,Win32,60.02040694,,,,,,,,,,,,65,testing_3,zh2j,ei,zh2j_ei,zh2j_1_eizhei.wav,zh2j_1_eizhei.wav,,TRUE,FALSE,,,,,,,,,,,,,,f,0.4867,space,1.2732,,,,,,,,0,2,2,64,1,,
5ee454ad40c72e152991826e,2023-06-16_20h59.26.142,phx_ver10,2022.2.5,Win32,60.02040694,,,,,,,,,,,,70,testing_3,zh2j,i,zh2j_i,zh2j_8_iji.wav,zh2j_8_iji.wav,,TRUE,FALSE,,,,,,,,,,,,,,f,0.6381,space,1.3592,,,,,,,,0,3,3,69,1,,
5ee454ad40c72e152991826e,2023-06-16_20h59.26.142,phx_ver10,2022.2.5,Win32,60.02040694,,,,,,,,,,,,125,testing_3,sh2j,ai,sh2j_ai,sh2j_1_aishai.wav,sh2j_1_aishai.wav,,TRUE,FALSE,,,,,,,,,,,,,,f,0.466,space,1.1653,,,,,,,,0,4,4,124,1,,
5ee454ad40c72e152991826e,2023-06-16_20h59.26.142,phx_ver10,2022.2.5,Win32,60.02040694,,,,,,,,,,,,15,testing_2,zh2x,ai,zh2x_ai,zh2x_1_aizhai.wav,zh2x_8_aixai.wav,,FALSE,FALSE,,,,,,,,,,,,,,j,1.086,space,1.4964,,,,,,,,0,5,5,14,1,,
5ee454ad40c72e152991826e,2023-06-16_20h59.26.142,phx_ver10,2022.2.5,Win32,60.02040694,,,,,,,,,,,,40,testing_3,zh2sh,e,zh2sh_e,zh2sh_8_eshe.wav,zh2sh_1_ezhe.wav,,FALSE,FALSE,,,,,,,,,,,,,,j,0.3853,space,0.8705,,,,,,,,0,6,6,39,1,,
5ee454ad40c72e152991826e,2023-06-16_20h59.26.142,phx_ver10,2022.2.5,Win32,60.02040694,,,,,,,,,,,,28,testing_3,zh2sh,a,zh2sh_a,zh2sh_8_asha.wav,zh2sh_1_azha.wav,,FALSE,FALSE,,,,,,,,,,,,,,j,0.5269,space,1.1644,,,,,,,,0,7,7,27,1,,
5ee454ad40c72e152991826e,2023-06-16_20h59.26.142,phx_ver10,2022.2.5,Win32,60.02040694,,,,,,,,,,,,61,testing_3,zh2j,e,zh2j_e,zh2j_1_ezhe.wav,zh2j_1_ezhe.wav,,TRUE,FALSE,,,,,,,,,,,,,,f,0.587,space,0.9931,,,,,,,,0,8,8,60,1,,
5ee454ad40c72e152991826e,2023-06-16_20h59.26.142,phx_ver10,2022.2.5,Win32,60.02040694,,,,,,,,,,,,98,testing_3,sh2x,a,sh2x_a,sh2x_8_axa.wav,sh2x_8_axa.wav,,TRUE,FALSE,,,,,,,,,,,,,,j,0.6081,space,1.0236,,,,,,,,0,9,9,97,1,,
5ee454ad40c72e152991826e,2023-06-16_20h59.26.142,phx_ver10,2022.2.5,Win32,60.02040694,,,,,,,,,,,,21,testing_2,zh2x,ei,zh2x_ei,zh2x_1_eizhei.wav,zh2x_1_eizhei.wav,,TRUE,FALSE,,,,,,,,,,,,,,f,0.6398,space,1.1931,,,,,,,,0,10,10,20,1,,
5ee454ad40c72e152991826e,2023-06-16_20h59.26.142,phx_ver10,2022.2.5,Win32,60.02040694,,,,,,,,,,,,122,testing_3,sh2j,a,sh2j_a,sh2j_8_aja.wav,sh2j_8_aja.wav,,TRUE,FALSE,,,,,,,,,,,,,,f,1.5743,space,1.9907,,,,,,,,0,11,11,121,1,,
5ee454ad40c72e152991826e,2023-06-16_20h59.26.142,phx_ver10,2022.2.5,Win32,60.02040694,,,,,,,,,,,,127,testing_3,sh2j,ai,sh2j_ai,sh2j_1_aishai.wav,sh2j_8_aijai.wav,,FALSE,FALSE,,,,,,,,,,,,,,j,0.2009,space,0.5917,,,,,,,,0,12,12,126,1,,
5ee454ad40c72e152991826e,2023-06-16_20h59.26.142,phx_ver10,2022.2.5,Win32,60.02040694,,,,,,,,,,,,10,testing_1,zh2x,i,zh2x_i,zh2x_8_ixi.wav,zh2x_8_ixi_copy.wav,,TRUE,TRUE,,,,,,,,,,,,,,f,0.4942,space,0.8027,,,,,,,,0,13,13,9,1,,
5ee454ad40c72e152991826e,2023-06-16_20h59.26.142,phx_ver10,2022.2.5,Win32,60.02040694,,,,,,,,,,,,74,testing_3,j2x,a,j2x_a,j2x_8_axa.wav,j2x_8_axa.wav,,TRUE,FALSE,,,,,,,,,,,,,,f,1.4705,space,1.9145,,,,,,,,0,14,14,73,1,,
5ee454ad40c72e152991826e,2023-06-16_20h59.26.142,phx_ver10,2022.2.5,Win32,60.02040694,,,,,,,,,,,,139,testing_3,sh2j,ei,sh2j_ei,sh2j_1_eishei.wav,sh2j_8_eijei.wav,,FALSE,FALSE,,,,,,,,,,,,,,j,0.4378,space,0.7696,,,,,,,,0,15,15,138,1,,
5ee454ad40c72e152991826e,2023-06-16_20h59.26.142,phx_ver10,2022.2.5,Win32,60.02040694,,,,,,,,,,,,71,testing_3,zh2j,i,zh2j_i,zh2j_1_izhi.wav,zh2j_8_iji.wav,,FALSE,FALSE,,,,,,,,,,,,,,j,0.3475,space,0.6908,,,,,,,,0,16,16,70,1,,
5ee454ad40c72e152991826e,2023-06-16_20h59.26.142,phx_ver10,2022.2.5,Win32,60.02040694,,,,,,,,,,,,93,testing_3,j2x,i,j2x_i,j2x_1_iji.wav,j2x_1_iji.wav,,TRUE,FALSE,,,,,,,,,,,,,,f,0.5081,space,0.9694,,,,,,,,0,17,17,92,1,,
5ee454ad40c72e152991826e,2023-06-16_20h59.26.142,phx_ver10,2022.2.5,Win32,60.02040694,,,,,,,,,,,,118,testing_3,sh2x,i,sh2x_i,sh2x_8_ixi.wav,sh2x_8_ixi.wav,,TRUE,FALSE,,,,,,,,,,,,,,f,0.2972,space,0.7019,,,,,,,,0,18,18,117,1,,
5ee454ad40c72e152991826e,2023-06-16_20h59.26.142,phx_ver10,2022.2.5,Win32,60.02040694,,,,,,,,,,,,138,testing_3,sh2j,ei,sh2j_ei,sh2j_8_eijei.wav,sh2j_8_eijei.wav,,TRUE,FALSE,,,,,,,,,,,,,,f,0.3864,space,0.7397,,,,,,,,0,19,19,137,1,,
5ee454ad40c72e152991826e,2023-06-16_20h59.26.142,phx_ver10,2022.2.5,Win32,60.02040694,,,,,,,,,,,,130,testing_3,sh2j,au,sh2j_au,sh2j_8_aujau.wav,sh2j_8_aujau.wav,,TRUE,FALSE,,,,,,,,,,,,,,f,0.4209,space,0.7388,,,,,,,,0,20,20,129,1,,
5ee454ad40c72e152991826e,2023-06-16_20h59.26.142,phx_ver10,2022.2.5,Win32,60.02040694,,,,,,,,,,,,51,testing_3,zh2j,a,zh2j_a,zh2j_1_azha.wav,zh2j_8_aja.wav,,FALSE,FALSE,,,,,,,,,,,,,,j,0.4071,space,0.8291,,,,,,,,0,21,21,50,1,,
5ee454ad40c72e152991826e,2023-06-16_20h59.26.142,phx_ver10,2022.2.5,Win32,60.02040694,,,,,,,,,,,,75,testing_3,j2x,a,j2x_a,j2x_1_aja.wav,j2x_8_axa.wav,,FALSE,FALSE,,,,,,,,,,,,,,j,1.2133,space,1.4971,,,,,,,,0,22,22,74,1,,
5ee454ad40c72e152991826e,2023-06-16_20h59.26.142,phx_ver10,2022.2.5,Win32,60.02040694,,,,,,,,,,,,84,testing_3,j2x,au,j2x_au,j2x_8_auxau.wav,j2x_1_aujau.wav,,FALSE,FALSE,,,,,,,,,,,,,,f,2.7931,space,3.0988,,,,,,,,0,23,23,83,1,,
5ee454ad40c72e152991826e,2023-06-16_20h59.26.142,phx_ver10,2022.2.5,Win32,60.02040694,,,,,,,,,,,,72,testing_3,zh2j,i,zh2j_i,zh2j_8_iji.wav,zh2j_1_izhi.wav,,FALSE,FALSE,,,,,,,,,,,,,,f,1.8416,space,2.1519,,,,,,,,0,24,24,71,1,,
5ee454ad40c72e152991826e,2023-06-16_20h59.26.142,phx_ver10,2022.2.5,Win32,60.02040694,,,,,,,,,,,,42,testing_3,zh2sh,ei,zh2sh_ei,zh2sh_8_eishei.wav,zh2sh_8_eishei.wav,,TRUE,FALSE,,,,,,,,,,,,,,f,1.1382,space,1.4004,,,,,,,,0,25,25,41,1,,
5ee454ad40c72e152991826e,2023-06-16_20h59.26.142,phx_ver10,2022.2.5,Win32,60.02040694,,,,,,,,,,,,17,testing_2,zh2x,au,zh2x_au,zh2x_1_auzhau.wav,zh2x_1_auzhau.wav,,TRUE,FALSE,,,,,,,,,,,,,,f,0.4137,space,0.7018,,,,,,,,0,26,26,16,1,,
5ee454ad40c72e152991826e,2023-06-16_20h59.26.142,phx_ver10,2022.2.5,Win32,60.02040694,,,,,,,,,,,,102,testing_3,sh2x,ai,sh2x_ai,sh2x_8_aixai.wav,sh2x_8_aixai.wav,,TRUE,FALSE,,,,,,,,,,,,,,j,0.7706,space,1.0379,,,,,,,,0,27,27,101,1,,
5ee454ad40c72e152991826e,2023-06-16_20h59.26.142,phx_ver10,2022.2.5,Win32,60.02040694,,,,,,,,,,,,132,testing_3,sh2j,au,sh2j_au,sh2j_8_aujau.wav,sh2j_1_aushau.wav,,FALSE,FALSE,,,,,,,,,,,,,,j,0.6175,space,0.8949,,,,,,,,0,28,28,131,1,,
5ee454ad40c72e152991826e,2023-06-16_20h59.26.142,phx_ver10,2022.2.5,Win32,60.02040694,,,,,,,,,,,,7,testing_1,zh2x,e,zh2x_e,zh2x_1_ezhe.wav,zh2x_8_exe.wav,,FALSE,TRUE,,,,,,,,,,,,,,f,2.4128,space,2.6883,,,,,,,,0,29,29,6,1,,
5ee454ad40c72e152991826e,2023-06-16_20h59.26.142,phx_ver10,2022.2.5,Win32,60.02040694,,,,,,,,,,,,123,testing_3,sh2j,a,sh2j_a,sh2j_1_asha.wav,sh2j_8_aja.wav,,FALSE,FALSE,,,,,,,,,,,,,,j,0.2981,space,0.7186,,,,,,,,0,30,30,122,1,,
5ee454ad40c72e152991826e,2023-06-16_20h59.26.142,phx_ver10,2022.2.5,Win32,60.02040694,,,,,,,,,,,,78,testing_3,j2x,ai,j2x_ai,j2x_8_aixai.wav,j2x_8_aixai.wav,,TRUE,FALSE,,,,,,,,,,,,,,f,0.138,space,0.5414,,,,,,,,0,31,31,77,1,,
5ee454ad40c72e152991826e,2023-06-16_20h59.26.142,phx_ver10,2022.2.5,Win32,60.02040694,,,,,,,,,,,,107,testing_3,sh2x,au,sh2x_au,sh2x_1_aushau.wav,sh2x_8_auxau.wav,,FALSE,FALSE,,,,,,,,,,,,,,j,0.5865,space,0.8851,,,,,,,,0,32,32,106,1,,
5ee454ad40c72e152991826e,2023-06-16_20h59.26.142,phx_ver10,2022.2.5,Win32,60.02040694,,,,,,,,,,,,131,testing_3,sh2j,au,sh2j_au,sh2j_1_aushau.wav,sh2j_8_aujau.wav,,FALSE,FALSE,,,,,,,,,,,,,,j,0.2318,space,0.5757,,,,,,,,0,33,33,130,1,,
5ee454ad40c72e152991826e,2023-06-16_20h59.26.142,phx_ver10,2022.2.5,Win32,60.02040694,,,,,,,,,,,,76,testing_3,j2x,a,j2x_a,j2x_8_axa.wav,j2x_1_aja.wav,,FALSE,FALSE,,,,,,,,,,,,,,f,0.4881,space,0.8208,,,,,,,,0,34,34,75,1,,
5ee454ad40c72e152991826e,2023-06-16_20h59.26.142,phx_ver10,2022.2.5,Win32,60.02040694,,,,,,,,,,,,63,testing_3,zh2j,e,zh2j_e,zh2j_1_ezhe.wav,zh2j_8_eje.wav,,FALSE,FALSE,,,,,,,,,,,,,,f,0.2429,space,0.5838,,,,,,,,0,35,35,62,1,,
5ee454ad40c72e152991826e,2023-06-16_20h59.26.142,phx_ver10,2022.2.5,Win32,60.02040694,,,,,,,,,,,,105,testing_3,sh2x,au,sh2x_au,sh2x_1_aushau.wav,sh2x_1_aushau.wav,,TRUE,FALSE,,,,,,,,,,,,,,f,0.3882,space,0.9018,,,,,,,,0,36,36,104,1,,
5ee454ad40c72e152991826e,2023-06-16_20h59.26.142,phx_ver10,2022.2.5,Win32,60.02040694,,,,,,,,,,,,16,testing_2,zh2x,ai,zh2x_ai,zh2x_8_aixai.wav,zh2x_1_aizhai.wav,,FALSE,FALSE,,,,,,,,,,,,,,j,0.3518,space,0.6537,,,,,,,,0,37,37,15,1,,
5ee454ad40c72e152991826e,2023-06-16_20h59.26.142,phx_ver10,2022.2.5,Win32,60.02040694,,,,,,,,,,,,116,testing_3,sh2x,ei,sh2x_ei,sh2x_8_eixei.wav,sh2x_1_eishei.wav,,FALSE,FALSE,,,,,,,,,,,,,,j,0.2548,space,0.566,,,,,,,,0,38,38,115,1,,
5ee454ad40c72e152991826e,2023-06-16_20h59.26.142,phx_ver10,2022.2.5,Win32,60.02040694,,,,,,,,,,,,6,testing_1,zh2x,e,zh2x_e,zh2x_8_exe.wav,zh2x_8_exe_copy.wav,,TRUE,TRUE,,,,,,,,,,,,,,f,0.3511,space,0.6825,,,,,,,,0,39,39,5,1,,
5ee454ad40c72e152991826e,2023-06-16_20h59.26.142,phx_ver10,2022.2.5,Win32,60.02040694,,,,,,,,,,,,31,testing_3,zh2sh,ai,zh2sh_ai,zh2sh_1_aizhai.wav,zh2sh_8_aishai.wav,,FALSE,FALSE,,,,,,,,,,,,,,j,0.1283,space,0.451,,,,,,,,0,40,40,30,1,,
5ee454ad40c72e152991826e,2023-06-16_20h59.26.142,phx_ver10,2022.2.5,Win32,60.02040694,,,,,,,,,,,,37,testing_3,zh2sh,e,zh2sh_e,zh2sh_1_ezhe.wav,zh2sh_1_ezhe.wav,,TRUE,FALSE,,,,,,,,,,,,,,f,0.4404,space,0.8379,,,,,,,,0,41,41,36,1,,
5ee454ad40c72e152991826e,2023-06-16_20h59.26.142,phx_ver10,2022.2.5,Win32,60.02040694,,,,,,,,,,,,43,testing_3,zh2sh,ei,zh2sh_ei,zh2sh_1_eizhei.wav,zh2sh_8_eishei.wav,,FALSE,FALSE,,,,,,,,,,,,,,f,0.5497,space,0.8708,,,,,,,,0,42,42,42,1,,
5ee454ad40c72e152991826e,2023-06-16_20h59.26.142,phx_ver10,2022.2.5,Win32,60.02040694,,,,,,,,,,,,86,testing_3,j2x,e,j2x_e,j2x_8_exe.wav,j2x_8_exe.wav,,TRUE,FALSE,,,,,,,,,,,,,,f,0.2059,space,0.5491,,,,,,,,0,43,43,85,1,,
5ee454ad40c72e152991826e,2023-06-16_20h59.26.142,phx_ver10,2022.2.5,Win32,60.02040694,,,,,,,,,,,,1,testing_1,zh2x,a,zh2x_a,zh2x_1_azha.wav,zh2x_1_azha_copy.wav,,TRUE,TRUE,,,,,,,,,,,,,,f,0.4101,space,0.705,,,,,,,,0,44,44,0,1,,
5ee454ad40c72e152991826e,2023-06-16_20h59.26.142,phx_ver10,2022.2.5,Win32,60.02040694,,,,,,,,,,,,133,testing_3,sh2j,e,sh2j_e,sh2j_1_eshe.wav,sh2j_1_eshe.wav,,TRUE,FALSE,,,,,,,,,,,,,,f,0.4055,space,0.6742,,,,,,,,0,45,45,132,1,,
5ee454ad40c72e152991826e,2023-06-16_20h59.26.142,phx_ver10,2022.2.5,Win32,60.02040694,,,,,,,,,,,,53,testing_3,zh2j,ai,zh2j_ai,zh2j_1_aizhai.wav,zh2j_1_aizhai.wav,,TRUE,FALSE,,,,,,,,,,,,,,f,0.2927,space,0.6202,,,,,,,,0,46,46,52,1,,
5ee454ad40c72e152991826e,2023-06-16_20h59.26.142,phx_ver10,2022.2.5,Win32,60.02040694,,,,,,,,,,,,117,testing_3,sh2x,i,sh2x_i,sh2x_1_ishi.wav,sh2x_1_ishi.wav,,TRUE,FALSE,,,,,,,,,,,,,,j,0.0881,space,0.4506,,,,,,,,0,47,47,116,1,,
5ee454ad40c72e152991826e,2023-06-16_20h59.26.142,phx_ver10,2022.2.5,Win32,60.02040694,,,,,,,,,,,,137,testing_3,sh2j,ei,sh2j_ei,sh2j_1_eishei.wav,sh2j_1_eishei.wav,,TRUE,FALSE,,,,,,,,,,,,,,f,1.2562,space,1.506,,,,,,,,0,48,48,136,1,,
5ee454ad40c72e152991826e,2023-06-16_20h59.26.142,phx_ver10,2022.2.5,Win32,60.02040694,,,,,,,,,,,,46,testing_3,zh2sh,i,zh2sh_i,zh2sh_8_ishi.wav,zh2sh_8_ishi.wav,,TRUE,FALSE,,,,,,,,,,,,,,j,0.621,space,0.9033,,,,,,,,0,49,49,45,1,,
5ee454ad40c72e152991826e,2023-06-16_20h59.26.142,phx_ver10,2022.2.5,Win32,60.02040694,,,,,,,,,,,,47,testing_3,zh2sh,i,zh2sh_i,zh2sh_1_izhi.wav,zh2sh_8_ishi.wav,,FALSE,FALSE,,,,,,,,,,,,,,f,0.6191,space,0.8872,,,,,,,,0,50,50,46,1,,
5ee454ad40c72e152991826e,2023-06-16_20h59.26.142,phx_ver10,2022.2.5,Win32,60.02040694,,,,,,,,,,,,49,testing_3,zh2j,a,zh2j_a,zh2j_1_azha.wav,zh2j_1_azha.wav,,TRUE,FALSE,,,,,,,,,,,,,,j,0.4007,space,0.7287,,,,,,,,0,51,51,48,1,,
5ee454ad40c72e152991826e,2023-06-16_20h59.26.142,phx_ver10,2022.2.5,Win32,60.02040694,,,,,,,,,,,,29,testing_3,zh2sh,ai,zh2sh_ai,zh2sh_1_aizhai.wav,zh2sh_1_aizhai.wav,,TRUE,FALSE,,,,,,,,,,,,,,f,0.5185,space,0.8576,,,,,,,,0,52,52,28,1,,
5ee454ad40c72e152991826e,2023-06-16_20h59.26.142,phx_ver10,2022.2.5,Win32,60.02040694,,,,,,,,,,,,57,testing_3,zh2j,au,zh2j_au,zh2j_1_auzhau.wav,zh2j_1_auzhau.wav,,TRUE,FALSE,,,,,,,,,,,,,,f,0.8376,space,1.1044,,,,,,,,0,53,53,56,1,,
5ee454ad40c72e152991826e,2023-06-16_20h59.26.142,phx_ver10,2022.2.5,Win32,60.02040694,,,,,,,,,,,,83,testing_3,j2x,au,j2x_au,j2x_1_aujau.wav,j2x_8_auxau.wav,,FALSE,FALSE,,,,,,,,,,,,,,j,1.9185,space,2.1515,,,,,,,,0,54,54,82,1,,
5ee454ad40c72e152991826e,2023-06-16_20h59.26.142,phx_ver10,2022.2.5,Win32,60.02040694,,,,,,,,,,,,52,testing_3,zh2j,a,zh2j_a,zh2j_8_aja.wav,zh2j_1_azha.wav,,FALSE,FALSE,,,,,,,,,,,,,,j,0.3581,space,0.566,,,,,,,,0,55,55,51,1,,
5ee454ad40c72e152991826e,2023-06-16_20h59.26.142,phx_ver10,2022.2.5,Win32,60.02040694,,,,,,,,,,,,90,testing_3,j2x,ei,j2x_ei,j2x_8_eixei.wav,j2x_8_eixei.wav,,TRUE,FALSE,,,,,,,,,,,,,,f,1.3426,space,1.5866,,,,,,,,0,56,56,89,1,,
5ee454ad40c72e152991826e,2023-06-16_20h59.26.142,phx_ver10,2022.2.5,Win32,60.02040694,,,,,,,,,,,,20,testing_2,zh2x,au,zh2x_au,zh2x_8_auxau.wav,zh2x_1_auzhau.wav,,FALSE,FALSE,,,,,,,,,,,,,,j,0.524,space,0.7845,,,,,,,,0,57,57,19,1,,
5ee454ad40c72e152991826e,2023-06-16_20h59.26.142,phx_ver10,2022.2.5,Win32,60.02040694,,,,,,,,,,,,115,testing_3,sh2x,ei,sh2x_ei,sh2x_1_eishei.wav,sh2x_8_eixei.wav,,FALSE,FALSE,,,,,,,,,,,,,,j,0.0701,space,0.3756,,,,,,,,0,58,58,114,1,,
5ee454ad40c72e152991826e,2023-06-16_20h59.26.142,phx_ver10,2022.2.5,Win32,60.02040694,,,,,,,,,,,,69,testing_3,zh2j,i,zh2j_i,zh2j_1_izhi.wav,zh2j_1_izhi.wav,,TRUE,FALSE,,,,,,,,,,,,,,j,0.3344,space,0.5663,,,,,,,,0,59,59,68,1,,
5ee454ad40c72e152991826e,2023-06-16_20h59.26.142,phx_ver10,2022.2.5,Win32,60.02040694,,,,,,,,,,,,38,testing_3,zh2sh,e,zh2sh_e,zh2sh_8_eshe.wav,zh2sh_8_eshe.wav,,TRUE,FALSE,,,,,,,,,,,,,,j,0.7528,space,1.005,,,,,,,,0,60,60,37,1,,
5ee454ad40c72e152991826e,2023-06-16_20h59.26.142,phx_ver10,2022.2.5,Win32,60.02040694,,,,,,,,,,,,96,testing_3,j2x,i,j2x_i,j2x_8_ixi.wav,j2x_1_iji.wav,,FALSE,FALSE,,,,,,,,,,,,,,j,0.2037,space,0.4253,,,,,,,,0,61,61,95,1,,
5ee454ad40c72e152991826e,2023-06-16_20h59.26.142,phx_ver10,2022.2.5,Win32,60.02040694,,,,,,,,,,,,77,testing_3,j2x,ai,j2x_ai,j2x_1_aijai.wav,j2x_1_aijai.wav,,TRUE,FALSE,,,,,,,,,,,,,,j,0.1202,space,0.3813,,,,,,,,0,62,62,76,1,,
5ee454ad40c72e152991826e,2023-06-16_20h59.26.142,phx_ver10,2022.2.5,Win32,60.02040694,,,,,,,,,,,,25,testing_3,zh2sh,a,zh2sh_a,zh2sh_1_azha.wav,zh2sh_1_azha.wav,,TRUE,FALSE,,,,,,,,,,,,,,f,0.9692,space,1.2017,,,,,,,,0,63,63,24,1,,
5ee454ad40c72e152991826e,2023-06-16_20h59.26.142,phx_ver10,2022.2.5,Win32,60.02040694,,,,,,,,,,,,128,testing_3,sh2j,ai,sh2j_ai,sh2j_8_aijai.wav,sh2j_1_aishai.wav,,FALSE,FALSE,,,,,,,,,,,,,,f,1.2724,space,1.576,,,,,,,,0,64,64,127,1,,
5ee454ad40c72e152991826e,2023-06-16_20h59.26.142,phx_ver10,2022.2.5,Win32,60.02040694,,,,,,,,,,,,59,testing_3,zh2j,au,zh2j_au,zh2j_1_auzhau.wav,zh2j_8_aujau.wav,,FALSE,FALSE,,,,,,,,,,,,,,j,0.1695,space,0.5326,,,,,,,,0,65,65,58,1,,
5ee454ad40c72e152991826e,2023-06-16_20h59.26.142,phx_ver10,2022.2.5,Win32,60.02040694,,,,,,,,,,,,33,testing_3,zh2sh,au,zh2sh_au,zh2sh_1_auzhau.wav,zh2sh_1_auzhau.wav,,TRUE,FALSE,,,,,,,,,,,,,,f,0.336,space,0.66,,,,,,,,0,66,66,32,1,,
5ee454ad40c72e152991826e,2023-06-16_20h59.26.142,phx_ver10,2022.2.5,Win32,60.02040694,,,,,,,,,,,,114,testing_3,sh2x,ei,sh2x_ei,sh2x_8_eixei.wav,sh2x_8_eixei.wav,,TRUE,FALSE,,,,,,,,,,,,,,j,2.1052,space,2.3571,,,,,,,,0,67,67,113,1,,
5ee454ad40c72e152991826e,2023-06-16_20h59.26.142,phx_ver10,2022.2.5,Win32,60.02040694,,,,,,,,,,,,39,testing_3,zh2sh,e,zh2sh_e,zh2sh_1_ezhe.wav,zh2sh_8_eshe.wav,,FALSE,FALSE,,,,,,,,,,,,,,f,0.7535,space,1.0344,,,,,,,,0,68,68,38,1,,
5ee454ad40c72e152991826e,2023-06-16_20h59.26.142,phx_ver10,2022.2.5,Win32,60.02040694,,,,,,,,,,,,111,testing_3,sh2x,e,sh2x_e,sh2x_1_eshe.wav,sh2x_8_exe.wav,,FALSE,FALSE,,,,,,,,,,,,,,j,0.204,space,0.5057,,,,,,,,0,69,69,110,1,,
5ee454ad40c72e152991826e,2023-06-16_20h59.26.142,phx_ver10,2022.2.5,Win32,60.02040694,,,,,,,,,,,,11,testing_1,zh2x,i,zh2x_i,zh2x_1_izhi.wav,zh2x_8_ixi.wav,,FALSE,TRUE,,,,,,,,,,,,,,j,0.12,space,0.4358,,,,,,,,0,70,70,10,1,,
5ee454ad40c72e152991826e,2023-06-16_20h59.26.142,phx_ver10,2022.2.5,Win32,60.02040694,,,,,,,,,,,,41,testing_3,zh2sh,ei,zh2sh_ei,zh2sh_1_eizhei.wav,zh2sh_1_eizhei.wav,,TRUE,FALSE,,,,,,,,,,,,,,j,0.4684,space,0.7511,,,,,,,,0,71,71,40,1,,
5ee454ad40c72e152991826e,2023-06-16_20h59.26.142,phx_ver10,2022.2.5,Win32,60.02040694,,,,,,,,,,,,66,testing_3,zh2j,ei,zh2j_ei,zh2j_8_eijei.wav,zh2j_8_eijei.wav,,TRUE,FALSE,,,,,,,,,,,,,,j,0.3852,space,0.6774,,,,,,,,0,72,72,65,1,,
5ee454ad40c72e152991826e,2023-06-16_20h59.26.142,phx_ver10,2022.2.5,Win32,60.02040694,,,,,,,,,,,,112,testing_3,sh2x,e,sh2x_e,sh2x_8_exe.wav,sh2x_1_eshe.wav,,FALSE,FALSE,,,,,,,,,,,,,,j,0.4596,space,0.6932,,,,,,,,0,73,73,111,1,,
5ee454ad40c72e152991826e,2023-06-16_20h59.26.142,phx_ver10,2022.2.5,Win32,60.02040694,,,,,,,,,,,,97,testing_3,sh2x,a,sh2x_a,sh2x_1_asha.wav,sh2x_1_asha.wav,,TRUE,FALSE,,,,,,,,,,,,,,f,0.232,space,0.5844,,,,,,,,0,74,74,96,1,,
5ee454ad40c72e152991826e,2023-06-16_20h59.26.142,phx_ver10,2022.2.5,Win32,60.02040694,,,,,,,,,,,,110,testing_3,sh2x,e,sh2x_e,sh2x_8_exe.wav,sh2x_8_exe.wav,,TRUE,FALSE,,,,,,,,,,,,,,f,0.315,space,0.5693,,,,,,,,0,75,75,109,1,,
5ee454ad40c72e152991826e,2023-06-16_20h59.26.142,phx_ver10,2022.2.5,Win32,60.02040694,,,,,,,,,,,,126,testing_3,sh2j,ai,sh2j_ai,sh2j_8_aijai.wav,sh2j_8_aijai.wav,,TRUE,FALSE,,,,,,,,,,,,,,f,1.4493,space,1.7406,,,,,,,,0,76,76,125,1,,
5ee454ad40c72e152991826e,2023-06-16_20h59.26.142,phx_ver10,2022.2.5,Win32,60.02040694,,,,,,,,,,,,5,testing_1,zh2x,e,zh2x_e,zh2x_1_ezhe.wav,zh2x_1_ezhe_copy.wav,,TRUE,TRUE,,,,,,,,,,,,,,f,0.1661,space,0.4833,,,,,,,,0,77,77,4,1,,
5ee454ad40c72e152991826e,2023-06-16_20h59.26.142,phx_ver10,2022.2.5,Win32,60.02040694,,,,,,,,,,,,34,testing_3,zh2sh,au,zh2sh_au,zh2sh_8_aushau.wav,zh2sh_8_aushau.wav,,TRUE,FALSE,,,,,,,,,,,,,,f,1.0725,space,1.3377,,,,,,,,0,78,78,33,1,,
5ee454ad40c72e152991826e,2023-06-16_20h59.26.142,phx_ver10,2022.2.5,Win32,60.02040694,,,,,,,,,,,,13,testing_2,zh2x,ai,zh2x_ai,zh2x_1_aizhai.wav,zh2x_1_aizhai.wav,,TRUE,FALSE,,,,,,,,,,,,,,f,0.3347,space,0.5761,,,,,,,,0,79,79,12,1,,
5ee454ad40c72e152991826e,2023-06-16_20h59.26.142,phx_ver10,2022.2.5,Win32,60.02040694,,,,,,,,,,,,26,testing_3,zh2sh,a,zh2sh_a,zh2sh_8_asha.wav,zh2sh_8_asha.wav,,TRUE,FALSE,,,,,,,,,,,,,,f,0.5211,space,0.7684,,,,,,,,0,80,80,25,1,,
5ee454ad40c72e152991826e,2023-06-16_20h59.26.142,phx_ver10,2022.2.5,Win32,60.02040694,,,,,,,,,,,,94,testing_3,j2x,i,j2x_i,j2x_8_ixi.wav,j2x_8_ixi.wav,,TRUE,FALSE,,,,,,,,,,,,,,j,0.5157,space,0.7826,,,,,,,,0,81,81,93,1,,
5ee454ad40c72e152991826e,2023-06-16_20h59.26.142,phx_ver10,2022.2.5,Win32,60.02040694,,,,,,,,,,,,109,testing_3,sh2x,e,sh2x_e,sh2x_1_eshe.wav,sh2x_1_eshe.wav,,TRUE,FALSE,,,,,,,,,,,,,,f,0.2691,space,0.5634,,,,,,,,0,82,82,108,1,,
5ee454ad40c72e152991826e,2023-06-16_20h59.26.142,phx_ver10,2022.2.5,Win32,60.02040694,,,,,,,,,,,,141,testing_3,sh2j,i,sh2j_i,sh2j_1_ishi.wav,sh2j_1_ishi.wav,,TRUE,FALSE,,,,,,,,,,,,,,f,0.75,space,1.0179,,,,,,,,0,83,83,140,1,,
5ee454ad40c72e152991826e,2023-06-16_20h59.26.142,phx_ver10,2022.2.5,Win32,60.02040694,,,,,,,,,,,,8,testing_1,zh2x,e,zh2x_e,zh2x_8_exe.wav,zh2x_1_ezhe.wav,,FALSE,TRUE,,,,,,,,,,,,,,f,0.5952,space,0.862,,,,,,,,0,84,84,7,1,,
5ee454ad40c72e152991826e,2023-06-16_20h59.26.142,phx_ver10,2022.2.5,Win32,60.02040694,,,,,,,,,,,,91,testing_3,j2x,ei,j2x_ei,j2x_1_eijei.wav,j2x_8_eixei.wav,,FALSE,FALSE,,,,,,,,,,,,,,j,0.2428,space,0.6914,,,,,,,,0,85,85,90,1,,
5ee454ad40c72e152991826e,2023-06-16_20h59.26.142,phx_ver10,2022.2.5,Win32,60.02040694,,,,,,,,,,,,119,testing_3,sh2x,i,sh2x_i,sh2x_1_ishi.wav,sh2x_8_ixi.wav,,FALSE,FALSE,,,,,,,,,,,,,,j,0.517,space,0.7815,,,,,,,,0,86,86,118,1,,
5ee454ad40c72e152991826e,2023-06-16_20h59.26.142,phx_ver10,2022.2.5,Win32,60.02040694,,,,,,,,,,,,9,testing_1,zh2x,i,zh2x_i,zh2x_1_izhi.wav,zh2x_1_izhi_copy.wav,,TRUE,TRUE,,,,,,,,,,,,,,f,1.1611,space,1.4265,,,,,,,,0,87,87,8,1,,
5ee454ad40c72e152991826e,2023-06-16_20h59.26.142,phx_ver10,2022.2.5,Win32,60.02040694,,,,,,,,,,,,22,testing_2,zh2x,ei,zh2x_ei,zh2x_8_eixei.wav,zh2x_8_eixei.wav,,TRUE,FALSE,,,,,,,,,,,,,,f,1.6986,space,1.9553,,,,,,,,0,88,88,21,1,,
5ee454ad40c72e152991826e,2023-06-16_20h59.26.142,phx_ver10,2022.2.5,Win32,60.02040694,,,,,,,,,,,,92,testing_3,j2x,ei,j2x_ei,j2x_8_eixei.wav,j2x_1_eijei.wav,,FALSE,FALSE,,,,,,,,,,,,,,f,0.4389,space,0.7029,,,,,,,,0,89,89,91,1,,
5ee454ad40c72e152991826e,2023-06-16_20h59.26.142,phx_ver10,2022.2.5,Win32,60.02040694,,,,,,,,,,,,73,testing_3,j2x,a,j2x_a,j2x_1_aja.wav,j2x_1_aja.wav,,TRUE,FALSE,,,,,,,,,,,,,,j,0.2953,space,0.6613,,,,,,,,0,90,90,72,1,,
5ee454ad40c72e152991826e,2023-06-16_20h59.26.142,phx_ver10,2022.2.5,Win32,60.02040694,,,,,,,,,,,,87,testing_3,j2x,e,j2x_e,j2x_1_eje.wav,j2x_8_exe.wav,,FALSE,FALSE,,,,,,,,,,,,,,f,0.7424,space,1.0014,,,,,,,,0,91,91,86,1,,
5ee454ad40c72e152991826e,2023-06-16_20h59.26.142,phx_ver10,2022.2.5,Win32,60.02040694,,,,,,,,,,,,121,testing_3,sh2j,a,sh2j_a,sh2j_1_asha.wav,sh2j_1_asha.wav,,TRUE,FALSE,,,,,,,,,,,,,,f,0.4163,space,0.6859,,,,,,,,0,92,92,120,1,,
5ee454ad40c72e152991826e,2023-06-16_20h59.26.142,phx_ver10,2022.2.5,Win32,60.02040694,,,,,,,,,,,,62,testing_3,zh2j,e,zh2j_e,zh2j_8_eje.wav,zh2j_8_eje.wav,,TRUE,FALSE,,,,,,,,,,,,,,f,0.1973,space,0.4748,,,,,,,,0,93,93,61,1,,
5ee454ad40c72e152991826e,2023-06-16_20h59.26.142,phx_ver10,2022.2.5,Win32,60.02040694,,,,,,,,,,,,58,testing_3,zh2j,au,zh2j_au,zh2j_8_aujau.wav,zh2j_8_aujau.wav,,TRUE,FALSE,,,,,,,,,,,,,,f,0.19,space,1.0864,,,,,,,,0,94,94,57,1,,
5ee454ad40c72e152991826e,2023-06-16_20h59.26.142,phx_ver10,2022.2.5,Win32,60.02040694,,,,,,,,,,,,143,testing_3,sh2j,i,sh2j_i,sh2j_1_ishi.wav,sh2j_8_iji.wav,,FALSE,FALSE,,,,,,,,,,,,,,f,0.2252,space,0.5138,,,,,,,,0,95,95,142,1,,
5ee454ad40c72e152991826e,2023-06-16_20h59.26.142,phx_ver10,2022.2.5,Win32,60.02040694,,,,,,,,,,,,129,testing_3,sh2j,au,sh2j_au,sh2j_1_aushau.wav,sh2j_1_aushau.wav,,TRUE,FALSE,,,,,,,,,,,,,,j,0.1686,space,0.4879,,,,,,,,0,96,96,128,1,,
5ee454ad40c72e152991826e,2023-06-16_20h59.26.142,phx_ver10,2022.2.5,Win32,60.02040694,,,,,,,,,,,,82,testing_3,j2x,au,j2x_au,j2x_8_auxau.wav,j2x_8_auxau.wav,,TRUE,FALSE,,,,,,,,,,,,,,f,0.474,space,0.7545,,,,,,,,0,97,97,81,1,,
5ee454ad40c72e152991826e,2023-06-16_20h59.26.142,phx_ver10,2022.2.5,Win32,60.02040694,,,,,,,,,,,,32,testing_3,zh2sh,ai,zh2sh_ai,zh2sh_8_aishai.wav,zh2sh_1_aizhai.wav,,FALSE,FALSE,,,,,,,,,,,,,,j,1.2694,space,1.5369,,,,,,,,0,98,98,31,1,,
5ee454ad40c72e152991826e,2023-06-16_20h59.26.142,phx_ver10,2022.2.5,Win32,60.02040694,,,,,,,,,,,,101,testing_3,sh2x,ai,sh2x_ai,sh2x_1_aishai.wav,sh2x_1_aishai.wav,,TRUE,FALSE,,,,,,,,,,,,,,f,0.2879,space,0.5271,,,,,,,,0,99,99,100,1,,
5ee454ad40c72e152991826e,2023-06-16_20h59.26.142,phx_ver10,2022.2.5,Win32,60.02040694,,,,,,,,,,,,27,testing_3,zh2sh,a,zh2sh_a,zh2sh_1_azha.wav,zh2sh_8_asha.wav,,FALSE,FALSE,,,,,,,,,,,,,,f,0.6205,space,0.8791,,,,,,,,0,100,100,26,1,,
5ee454ad40c72e152991826e,2023-06-16_20h59.26.142,phx_ver10,2022.2.5,Win32,60.02040694,,,,,,,,,,,,104,testing_3,sh2x,ai,sh2x_ai,sh2x_8_aixai.wav,sh2x_1_aishai.wav,,FALSE,FALSE,,,,,,,,,,,,,,f,0.5554,space,0.8343,,,,,,,,0,101,101,103,1,,
5ee454ad40c72e152991826e,2023-06-16_20h59.26.142,phx_ver10,2022.2.5,Win32,60.02040694,,,,,,,,,,,,103,testing_3,sh2x,ai,sh2x_ai,sh2x_1_aishai.wav,sh2x_8_aixai.wav,,FALSE,FALSE,,,,,,,,,,,,,,j,0.083,space,0.3978,,,,,,,,0,102,102,102,1,,
5ee454ad40c72e152991826e,2023-06-16_20h59.26.142,phx_ver10,2022.2.5,Win32,60.02040694,,,,,,,,,,,,108,testing_3,sh2x,au,sh2x_au,sh2x_8_auxau.wav,sh2x_1_aushau.wav,,FALSE,FALSE,,,,,,,,,,,,,,j,0.2339,space,0.5222,,,,,,,,0,103,103,107,1,,
5ee454ad40c72e152991826e,2023-06-16_20h59.26.142,phx_ver10,2022.2.5,Win32,60.02040694,,,,,,,,,,,,81,testing_3,j2x,au,j2x_au,j2x_1_aujau.wav,j2x_1_aujau.wav,,TRUE,FALSE,,,,,,,,,,,,,,f,0.3371,space,0.6178,,,,,,,,0,104,104,80,1,,
5ee454ad40c72e152991826e,2023-06-16_20h59.26.142,phx_ver10,2022.2.5,Win32,60.02040694,,,,,,,,,,,,19,testing_2,zh2x,au,zh2x_au,zh2x_1_auzhau.wav,zh2x_8_auxau.wav,,FALSE,FALSE,,,,,,,,,,,,,,f,0.7057,space,1.0005,,,,,,,,0,105,105,18,1,,
5ee454ad40c72e152991826e,2023-06-16_20h59.26.142,phx_ver10,2022.2.5,Win32,60.02040694,,,,,,,,,,,,4,testing_1,zh2x,a,zh2x_a,zh2x_8_axa.wav,zh2x_1_azha.wav,,FALSE,TRUE,,,,,,,,,,,,,,j,1.3203,space,1.5871,,,,,,,,0,106,106,3,1,,
5ee454ad40c72e152991826e,2023-06-16_20h59.26.142,phx_ver10,2022.2.5,Win32,60.02040694,,,,,,,,,,,,55,testing_3,zh2j,ai,zh2j_ai,zh2j_1_aizhai.wav,zh2j_8_aijai.wav,,FALSE,FALSE,,,,,,,,,,,,,,j,0.419,space,0.6383,,,,,,,,0,107,107,54,1,,
5ee454ad40c72e152991826e,2023-06-16_20h59.26.142,phx_ver10,2022.2.5,Win32,60.02040694,,,,,,,,,,,,99,testing_3,sh2x,a,sh2x_a,sh2x_1_asha.wav,sh2x_8_axa.wav,,FALSE,FALSE,,,,,,,,,,,,,,j,0.2248,space,0.5202,,,,,,,,0,108,108,98,1,,
5ee454ad40c72e152991826e,2023-06-16_20h59.26.142,phx_ver10,2022.2.5,Win32,60.02040694,,,,,,,,,,,,142,testing_3,sh2j,i,sh2j_i,sh2j_8_iji.wav,sh2j_8_iji.wav,,TRUE,FALSE,,,,,,,,,,,,,,f,0.2811,space,0.5867,,,,,,,,0,109,109,141,1,,
5ee454ad40c72e152991826e,2023-06-16_20h59.26.142,phx_ver10,2022.2.5,Win32,60.02040694,,,,,,,,,,,,136,testing_3,sh2j,e,sh2j_e,sh2j_8_eje.wav,sh2j_1_eshe.wav,,FALSE,FALSE,,,,,,,,,,,,,,f,1.6872,space,1.9466,,,,,,,,0,110,110,135,1,,
5ee454ad40c72e152991826e,2023-06-16_20h59.26.142,phx_ver10,2022.2.5,Win32,60.02040694,,,,,,,,,,,,3,testing_1,zh2x,a,zh2x_a,zh2x_1_azha.wav,zh2x_8_axa.wav,,FALSE,TRUE,,,,,,,,,,,,,,j,0.1166,space,0.402,,,,,,,,0,111,111,2,1,,
5ee454ad40c72e152991826e,2023-06-16_20h59.26.142,phx_ver10,2022.2.5,Win32,60.02040694,,,,,,,,,,,,88,testing_3,j2x,e,j2x_e,j2x_8_exe.wav,j2x_1_eje.wav,,FALSE,FALSE,,,,,,,,,,,,,,f,0.7099,space,0.972,,,,,,,,0,112,112,87,1,,
5ee454ad40c72e152991826e,2023-06-16_20h59.26.142,phx_ver10,2022.2.5,Win32,60.02040694,,,,,,,,,,,,12,testing_1,zh2x,i,zh2x_i,zh2x_8_ixi.wav,zh2x_1_izhi.wav,,FALSE,TRUE,,,,,,,,,,,,,,f,2.0817,space,2.3079,,,,,,,,0,113,113,11,1,,
5ee454ad40c72e152991826e,2023-06-16_20h59.26.142,phx_ver10,2022.2.5,Win32,60.02040694,,,,,,,,,,,,14,testing_2,zh2x,ai,zh2x_ai,zh2x_8_aixai.wav,zh2x_8_aixai.wav,,TRUE,FALSE,,,,,,,,,,,,,,j,0.1196,space,0.4346,,,,,,,,0,114,114,13,1,,
5ee454ad40c72e152991826e,2023-06-16_20h59.26.142,phx_ver10,2022.2.5,Win32,60.02040694,,,,,,,,,,,,35,testing_3,zh2sh,au,zh2sh_au,zh2sh_1_auzhau.wav,zh2sh_8_aushau.wav,,FALSE,FALSE,,,,,,,,,,,,,,f,0.3362,space,0.5911,,,,,,,,0,115,115,34,1,,
5ee454ad40c72e152991826e,2023-06-16_20h59.26.142,phx_ver10,2022.2.5,Win32,60.02040694,,,,,,,,,,,,45,testing_3,zh2sh,i,zh2sh_i,zh2sh_1_izhi.wav,zh2sh_1_izhi.wav,,TRUE,FALSE,,,,,,,,,,,,,,f,0.3866,space,0.6267,,,,,,,,0,116,116,44,1,,
5ee454ad40c72e152991826e,2023-06-16_20h59.26.142,phx_ver10,2022.2.5,Win32,60.02040694,,,,,,,,,,,,85,testing_3,j2x,e,j2x_e,j2x_1_eje.wav,j2x_1_eje.wav,,TRUE,FALSE,,,,,,,,,,,,,,f,0.7527,space,1.0211,,,,,,,,0,117,117,84,1,,
5ee454ad40c72e152991826e,2023-06-16_20h59.26.142,phx_ver10,2022.2.5,Win32,60.02040694,,,,,,,,,,,,48,testing_3,zh2sh,i,zh2sh_i,zh2sh_8_ishi.wav,zh2sh_1_izhi.wav,,FALSE,FALSE,,,,,,,,,,,,,,f,1.4015,space,1.6866,,,,,,,,0,118,118,47,1,,
5ee454ad40c72e152991826e,2023-06-16_20h59.26.142,phx_ver10,2022.2.5,Win32,60.02040694,,,,,,,,,,,,18,testing_2,zh2x,au,zh2x_au,zh2x_8_auxau.wav,zh2x_8_auxau.wav,,TRUE,FALSE,,,,,,,,,,,,,,f,0.5179,space,0.7865,,,,,,,,0,119,119,17,1,,
5ee454ad40c72e152991826e,2023-06-16_20h59.26.142,phx_ver10,2022.2.5,Win32,60.02040694,,,,,,,,,,,,140,testing_3,sh2j,ei,sh2j_ei,sh2j_8_eijei.wav,sh2j_1_eishei.wav,,FALSE,FALSE,,,,,,,,,,,,,,j,0.2507,space,0.5185,,,,,,,,0,120,120,139,1,,
5ee454ad40c72e152991826e,2023-06-16_20h59.26.142,phx_ver10,2022.2.5,Win32,60.02040694,,,,,,,,,,,,23,testing_2,zh2x,ei,zh2x_ei,zh2x_1_eizhei.wav,zh2x_8_eixei.wav,,FALSE,FALSE,,,,,,,,,,,,,,f,1.001,space,1.2994,,,,,,,,0,121,121,22,1,,
5ee454ad40c72e152991826e,2023-06-16_20h59.26.142,phx_ver10,2022.2.5,Win32,60.02040694,,,,,,,,,,,,2,testing_1,zh2x,a,zh2x_a,zh2x_8_axa.wav,zh2x_8_axa_copy.wav,,TRUE,TRUE,,,,,,,,,,,,,,f,0.4356,space,0.6784,,,,,,,,0,122,122,1,1,,
5ee454ad40c72e152991826e,2023-06-16_20h59.26.142,phx_ver10,2022.2.5,Win32,60.02040694,,,,,,,,,,,,113,testing_3,sh2x,ei,sh2x_ei,sh2x_1_eishei.wav,sh2x_1_eishei.wav,,TRUE,FALSE,,,,,,,,,,,,,,f,1.6009,space,2.0188,,,,,,,,0,123,123,112,1,,
5ee454ad40c72e152991826e,2023-06-16_20h59.26.142,phx_ver10,2022.2.5,Win32,60.02040694,,,,,,,,,,,,80,testing_3,j2x,ai,j2x_ai,j2x_8_aixai.wav,j2x_1_aijai.wav,,FALSE,FALSE,,,,,,,,,,,,,,f,0.3538,space,0.6348,,,,,,,,0,124,124,79,1,,
5ee454ad40c72e152991826e,2023-06-16_20h59.26.142,phx_ver10,2022.2.5,Win32,60.02040694,,,,,,,,,,,,106,testing_3,sh2x,au,sh2x_au,sh2x_8_auxau.wav,sh2x_8_auxau.wav,,TRUE,FALSE,,,,,,,,,,,,,,f,0.3557,space,0.6378,,,,,,,,0,125,125,105,1,,
5ee454ad40c72e152991826e,2023-06-16_20h59.26.142,phx_ver10,2022.2.5,Win32,60.02040694,,,,,,,,,,,,79,testing_3,j2x,ai,j2x_ai,j2x_1_aijai.wav,j2x_8_aixai.wav,,FALSE,FALSE,,,,,,,,,,,,,,f,0.4408,space,0.7161,,,,,,,,0,126,126,78,1,,
5ee454ad40c72e152991826e,2023-06-16_20h59.26.142,phx_ver10,2022.2.5,Win32,60.02040694,,,,,,,,,,,,120,testing_3,sh2x,i,sh2x_i,sh2x_8_ixi.wav,sh2x_1_ishi.wav,,FALSE,FALSE,,,,,,,,,,,,,,j,0.2095,space,1.1533,,,,,,,,0,127,127,119,1,,
5ee454ad40c72e152991826e,2023-06-16_20h59.26.142,phx_ver10,2022.2.5,Win32,60.02040694,,,,,,,,,,,,95,testing_3,j2x,i,j2x_i,j2x_1_iji.wav,j2x_8_ixi.wav,,FALSE,FALSE,,,,,,,,,,,,,,j,0.2701,space,0.5031,,,,,,,,0,128,128,94,1,,
5ee454ad40c72e152991826e,2023-06-16_20h59.26.142,phx_ver10,2022.2.5,Win32,60.02040694,,,,,,,,,,,,64,testing_3,zh2j,e,zh2j_e,zh2j_8_eje.wav,zh2j_1_ezhe.wav,,FALSE,FALSE,,,,,,,,,,,,,,f,0.4497,space,0.7045,,,,,,,,0,129,129,63,1,,
5ee454ad40c72e152991826e,2023-06-16_20h59.26.142,phx_ver10,2022.2.5,Win32,60.02040694,,,,,,,,,,,,24,testing_2,zh2x,ei,zh2x_ei,zh2x_8_eixei.wav,zh2x_1_eizhei.wav,,FALSE,FALSE,,,,,,,,,,,,,,j,0.7736,space,1.0387,,,,,,,,0,130,130,23,1,,
5ee454ad40c72e152991826e,2023-06-16_20h59.26.142,phx_ver10,2022.2.5,Win32,60.02040694,,,,,,,,,,,,44,testing_3,zh2sh,ei,zh2sh_ei,zh2sh_8_eishei.wav,zh2sh_1_eizhei.wav,,FALSE,FALSE,,,,,,,,,,,,,,j,0.1961,space,0.4728,,,,,,,,0,131,131,43,1,,
5ee454ad40c72e152991826e,2023-06-16_20h59.26.142,phx_ver10,2022.2.5,Win32,60.02040694,,,,,,,,,,,,54,testing_3,zh2j,ai,zh2j_ai,zh2j_8_aijai.wav,zh2j_8_aijai.wav,,TRUE,FALSE,,,,,,,,,,,,,,f,0.337,space,0.6341,,,,,,,,0,132,132,53,1,,
5ee454ad40c72e152991826e,2023-06-16_20h59.26.142,phx_ver10,2022.2.5,Win32,60.02040694,,,,,,,,,,,,36,testing_3,zh2sh,au,zh2sh_au,zh2sh_8_aushau.wav,zh2sh_1_auzhau.wav,,FALSE,FALSE,,,,,,,,,,,,,,j,2.2626,space,2.4624,,,,,,,,0,133,133,35,1,,
5ee454ad40c72e152991826e,2023-06-16_20h59.26.142,phx_ver10,2022.2.5,Win32,60.02040694,,,,,,,,,,,,60,testing_3,zh2j,au,zh2j_au,zh2j_8_aujau.wav,zh2j_1_auzhau.wav,,FALSE,FALSE,,,,,,,,,,,,,,j,0.0677,space,0.2874,,,,,,,,0,134,134,59,1,,
5ee454ad40c72e152991826e,2023-06-16_20h59.26.142,phx_ver10,2022.2.5,Win32,60.02040694,,,,,,,,,,,,30,testing_3,zh2sh,ai,zh2sh_ai,zh2sh_8_aishai.wav,zh2sh_8_aishai.wav,,TRUE,FALSE,,,,,,,,,,,,,,f,0.2415,space,0.4864,,,,,,,,0,135,135,29,1,,
5ee454ad40c72e152991826e,2023-06-16_20h59.26.142,phx_ver10,2022.2.5,Win32,60.02040694,,,,,,,,,,,,67,testing_3,zh2j,ei,zh2j_ei,zh2j_1_eizhei.wav,zh2j_8_eijei.wav,,FALSE,FALSE,,,,,,,,,,,,,,j,1.8856,space,2.0477,,,,,,,,0,136,136,66,1,,
5ee454ad40c72e152991826e,2023-06-16_20h59.26.142,phx_ver10,2022.2.5,Win32,60.02040694,,,,,,,,,,,,144,testing_3,sh2j,i,sh2j_i,sh2j_8_iji.wav,sh2j_1_ishi.wav,,FALSE,FALSE,,,,,,,,,,,,,,j,2.0313,space,2.2084,,,,,,,,0,137,137,143,1,,
5ee454ad40c72e152991826e,2023-06-16_20h59.26.142,phx_ver10,2022.2.5,Win32,60.02040694,,,,,,,,,,,,100,testing_3,sh2x,a,sh2x_a,sh2x_8_axa.wav,sh2x_1_asha.wav,,FALSE,FALSE,,,,,,,,,,,,,,j,0.017,space,0.2033,,,,,,,,0,138,138,99,1,,
5ee454ad40c72e152991826e,2023-06-16_20h59.26.142,phx_ver10,2022.2.5,Win32,60.02040694,,,,,,,,,,,,135,testing_3,sh2j,e,sh2j_e,sh2j_1_eshe.wav,sh2j_8_eje.wav,,FALSE,FALSE,,,,,,,,,,,,,,j,0.1037,space,0.277,,,,,,,,0,139,139,134,1,,
5ee454ad40c72e152991826e,2023-06-16_20h59.26.142,phx_ver10,2022.2.5,Win32,60.02040694,,,,,,,,,,,,56,testing_3,zh2j,ai,zh2j_ai,zh2j_8_aijai.wav,zh2j_1_aizhai.wav,,FALSE,FALSE,,,,,,,,,,,,,,j,0.0608,space,0.2202,,,,,,,,0,140,140,55,1,,
5ee454ad40c72e152991826e,2023-06-16_20h59.26.142,phx_ver10,2022.2.5,Win32,60.02040694,,,,,,,,,,,,89,testing_3,j2x,ei,j2x_ei,j2x_1_eijei.wav,j2x_1_eijei.wav,,TRUE,FALSE,,,,,,,,,,,,,,f,0.2999,space,0.5233,,,,,,,,0,141,141,88,1,,
5ee454ad40c72e152991826e,2023-06-16_20h59.26.142,phx_ver10,2022.2.5,Win32,60.02040694,,,,,,,,,,,,50,testing_3,zh2j,a,zh2j_a,zh2j_8_aja.wav,zh2j_8_aja.wav,,TRUE,FALSE,,,,,,,,,,,,,,f,0.3837,space,0.5704,,,,,,,,0,142,142,49,1,,
5ee454ad40c72e152991826e,2023-06-16_20h59.26.142,phx_ver10,2022.2.5,Win32,60.02040694,,,,,,,,,,,,134,testing_3,sh2j,e,sh2j_e,sh2j_8_eje.wav,sh2j_8_eje.wav,,TRUE,FALSE,,,,,,,,,,,,,,f,0.1353,space,0.3345,,,,,,,,0,143,143,133,1,,
5ee454ad40c72e152991826e,2023-06-16_20h59.26.142,phx_ver10,2022.2.5,Win32,60.02040694,,,,,,,,,,,,,,,,,,,,,,,,,,,,,,,,,,,,,,,,,,,,,,,,,,,space,3.984
