participant,date,expName,psychopyVersion,OS,frameRate,space_1.keys,space_1.rt,space_2.keys,space_2.rt,space_train.keys,space_train.rt,training.thisRepN,training.thisTrialN,training.thisN,training.thisIndex,training.ran,token_id,task,continuum,vowel,series,sound_1,sound_2,img,same,trained,FJ_attn.keys,FJ_attn.rt,space_attn.keys,space_attn.rt,if_attn_test.thisRepN,if_attn_test.thisTrialN,if_attn_test.thisN,if_attn_test.thisIndex,if_attn_test.ran,space_trans_1.keys,space_trans_1.rt,space_trans_11.keys,space_trans_11.rt,FJ_test.keys,FJ_test.rt,space_test.keys,space_test.rt,testing_pre.thisRepN,testing_pre.thisTrialN,testing_pre.thisN,testing_pre.thisIndex,testing_pre.ran,space_trans_2.keys,space_trans_2.rt,testing_all.thisRepN,testing_all.thisTrialN,testing_all.thisN,testing_all.thisIndex,testing_all.ran,space_ending.keys,space_ending.rt
5ef0a10e3867d33b6bb063bc,2023-06-16_10h25.06.017,phx_ver10,2022.2.5,Win32,59.61251863,,,,,,,,,,,,,,,,,,,,,,,,,,,,,,,,,,,,,,,,,,,,,,,,,,,,
5ef0a10e3867d33b6bb063bc,2023-06-16_10h25.06.017,phx_ver10,2022.2.5,Win32,59.61251863,space,2.4193,,,,,,,,,,,,,,,,,,,,,,,,,,,,,,,,,,,,,,,,,,,,,,,,,,
5ef0a10e3867d33b6bb063bc,2023-06-16_10h25.06.017,phx_ver10,2022.2.5,Win32,59.61251863,,,space,0.8347,,,,,,,,,,,,,,,,,,,,,,,,,,,,,,,,,,,,,,,,,,,,,,,,
5ef0a10e3867d33b6bb063bc,2023-06-16_10h25.06.017,phx_ver10,2022.2.5,Win32,59.61251863,,,,,space,2.352,0,0,0,10,1,11,training,zh2x,a,zh2x_a,zh2x_6_axa.wav,,axa.jpg,,,,,,,,,,,,,,,,,,,,,,,,,,,,,,,,,
5ef0a10e3867d33b6bb063bc,2023-06-16_10h25.06.017,phx_ver10,2022.2.5,Win32,59.61251863,,,,,space,1.8515,0,1,1,19,1,20,training,zh2x,e,zh2x_e,zh2x_2_ezhe.wav,,ezhe.jpg,,,,,,,,,,,,,,,,,,,,,,,,,,,,,,,,,
5ef0a10e3867d33b6bb063bc,2023-06-16_10h25.06.017,phx_ver10,2022.2.5,Win32,59.61251863,,,,,space,1.4806,0,2,2,24,1,25,training,zh2x,e,zh2x_e,zh2x_5_exe.wav,,exe.jpg,,,,,,,,,,,,,,,,,,,,,,,,,,,,,,,,,
5ef0a10e3867d33b6bb063bc,2023-06-16_10h25.06.017,phx_ver10,2022.2.5,Win32,59.61251863,,,,,space,1.585,0,3,3,34,1,35,training,zh2x,i,zh2x_i,zh2x_2_izhi.wav,,izhi.jpg,,,,,,,,,,,,,,,,,,,,,,,,,,,,,,,,,
5ef0a10e3867d33b6bb063bc,2023-06-16_10h25.06.017,phx_ver10,2022.2.5,Win32,59.61251863,,,,,space,0.8014,0,4,4,35,1,36,training,zh2x,i,zh2x_i,zh2x_2_izhi.wav,,izhi.jpg,,,,,,,,,,,,,,,,,,,,,,,,,,,,,,,,,
5ef0a10e3867d33b6bb063bc,2023-06-16_10h25.06.017,phx_ver10,2022.2.5,Win32,59.61251863,,,,,space,0.7846,0,5,5,33,1,34,training,zh2x,i,zh2x_i,zh2x_2_izhi.wav,,izhi.jpg,,,,,,,,,,,,,,,,,,,,,,,,,,,,,,,,,
5ef0a10e3867d33b6bb063bc,2023-06-16_10h25.06.017,phx_ver10,2022.2.5,Win32,59.61251863,,,,,,,,,,,,,attn_test,,,,zh2x_1_izhi.wav,zh2x_1_azha.wav,izhi.jpg,LEFT,,f,1.1518,space,2.5529,0,0,0,0,1,,,,,,,,,,,,,,,,,,,,,,
5ef0a10e3867d33b6bb063bc,2023-06-16_10h25.06.017,phx_ver10,2022.2.5,Win32,59.61251863,,,,,space,0.8966,0,6,6,25,1,26,training,zh2x,e,zh2x_e,zh2x_6_exe.wav,,exe.jpg,,,,,,,,,,,,,,,,,,,,,,,,,,,,,,,,,
5ef0a10e3867d33b6bb063bc,2023-06-16_10h25.06.017,phx_ver10,2022.2.5,Win32,59.61251863,,,,,space,0.2005,0,7,7,29,1,30,training,zh2x,e,zh2x_e,zh2x_7_exe.wav,,exe.jpg,,,,,,,,,,,,,,,,,,,,,,,,,,,,,,,,,
5ef0a10e3867d33b6bb063bc,2023-06-16_10h25.06.017,phx_ver10,2022.2.5,Win32,59.61251863,,,,,space,0.1348,0,8,8,31,1,32,training,zh2x,e,zh2x_e,zh2x_8_exe.wav,,exe.jpg,,,,,,,,,,,,,,,,,,,,,,,,,,,,,,,,,
5ef0a10e3867d33b6bb063bc,2023-06-16_10h25.06.017,phx_ver10,2022.2.5,Win32,59.61251863,,,,,space,1.0344,0,9,9,44,1,45,training,zh2x,i,zh2x_i,zh2x_7_ixi.wav,,ixi.jpg,,,,,,,,,,,,,,,,,,,,,,,,,,,,,,,,,
5ef0a10e3867d33b6bb063bc,2023-06-16_10h25.06.017,phx_ver10,2022.2.5,Win32,59.61251863,,,,,space,0.9697,0,10,10,5,1,6,training,zh2x,a,zh2x_a,zh2x_3_azha.wav,,azha.jpg,,,,,,,,,,,,,,,,,,,,,,,,,,,,,,,,,
5ef0a10e3867d33b6bb063bc,2023-06-16_10h25.06.017,phx_ver10,2022.2.5,Win32,59.61251863,,,,,space,0.2167,0,11,11,21,1,22,training,zh2x,e,zh2x_e,zh2x_3_ezhe.wav,,ezhe.jpg,,,,,,,,,,,,,,,,,,,,,,,,,,,,,,,,,
5ef0a10e3867d33b6bb063bc,2023-06-16_10h25.06.017,phx_ver10,2022.2.5,Win32,59.61251863,,,,,,,,,,,,,attn_test,,,,zh2x_8_exe.wav,zh2x_1_azha.wav,azha.jpg,RIGHT,,f,1.5516,space,1.9691,0,0,0,0,1,,,,,,,,,,,,,,,,,,,,,,
5ef0a10e3867d33b6bb063bc,2023-06-16_10h25.06.017,phx_ver10,2022.2.5,Win32,59.61251863,,,,,space,0.6172,0,12,12,17,1,18,training,zh2x,e,zh2x_e,zh2x_2_ezhe.wav,,ezhe.jpg,,,,,,,,,,,,,,,,,,,,,,,,,,,,,,,,,
5ef0a10e3867d33b6bb063bc,2023-06-16_10h25.06.017,phx_ver10,2022.2.5,Win32,59.61251863,,,,,space,0.3973,0,13,13,42,1,43,training,zh2x,i,zh2x_i,zh2x_6_ixi.wav,,ixi.jpg,,,,,,,,,,,,,,,,,,,,,,,,,,,,,,,,,
5ef0a10e3867d33b6bb063bc,2023-06-16_10h25.06.017,phx_ver10,2022.2.5,Win32,59.61251863,,,,,space,0.1168,0,14,14,43,1,44,training,zh2x,i,zh2x_i,zh2x_7_ixi.wav,,ixi.jpg,,,,,,,,,,,,,,,,,,,,,,,,,,,,,,,,,
5ef0a10e3867d33b6bb063bc,2023-06-16_10h25.06.017,phx_ver10,2022.2.5,Win32,59.61251863,,,,,space,0.1543,0,15,15,3,1,4,training,zh2x,a,zh2x_a,zh2x_2_azha.wav,,azha.jpg,,,,,,,,,,,,,,,,,,,,,,,,,,,,,,,,,
5ef0a10e3867d33b6bb063bc,2023-06-16_10h25.06.017,phx_ver10,2022.2.5,Win32,59.61251863,,,,,space,0.0407,0,16,16,22,1,23,training,zh2x,e,zh2x_e,zh2x_3_ezhe.wav,,ezhe.jpg,,,,,,,,,,,,,,,,,,,,,,,,,,,,,,,,,
5ef0a10e3867d33b6bb063bc,2023-06-16_10h25.06.017,phx_ver10,2022.2.5,Win32,59.61251863,,,,,space,0.0357,0,17,17,1,1,2,training,zh2x,a,zh2x_a,zh2x_2_azha.wav,,azha.jpg,,,,,,,,,,,,,,,,,,,,,,,,,,,,,,,,,
5ef0a10e3867d33b6bb063bc,2023-06-16_10h25.06.017,phx_ver10,2022.2.5,Win32,59.61251863,,,,,,,,,,,,,attn_test,,,,zh2x_1_ezhe.wav,zh2x_1_izhi.wav,ezhe.jpg,LEFT,,f,0.117,space,0.6672,0,0,0,0,1,,,,,,,,,,,,,,,,,,,,,,
5ef0a10e3867d33b6bb063bc,2023-06-16_10h25.06.017,phx_ver10,2022.2.5,Win32,59.61251863,,,,,space,0.5507,0,18,18,8,1,9,training,zh2x,a,zh2x_a,zh2x_5_axa.wav,,axa.jpg,,,,,,,,,,,,,,,,,,,,,,,,,,,,,,,,,
5ef0a10e3867d33b6bb063bc,2023-06-16_10h25.06.017,phx_ver10,2022.2.5,Win32,59.61251863,,,,,space,0.2843,0,19,19,28,1,29,training,zh2x,e,zh2x_e,zh2x_7_exe.wav,,exe.jpg,,,,,,,,,,,,,,,,,,,,,,,,,,,,,,,,,
5ef0a10e3867d33b6bb063bc,2023-06-16_10h25.06.017,phx_ver10,2022.2.5,Win32,59.61251863,,,,,space,0.1171,0,20,20,2,1,3,training,zh2x,a,zh2x_a,zh2x_2_azha.wav,,azha.jpg,,,,,,,,,,,,,,,,,,,,,,,,,,,,,,,,,
5ef0a10e3867d33b6bb063bc,2023-06-16_10h25.06.017,phx_ver10,2022.2.5,Win32,59.61251863,,,,,space,0.7848,0,21,21,4,1,5,training,zh2x,a,zh2x_a,zh2x_2_azha.wav,,azha.jpg,,,,,,,,,,,,,,,,,,,,,,,,,,,,,,,,,
5ef0a10e3867d33b6bb063bc,2023-06-16_10h25.06.017,phx_ver10,2022.2.5,Win32,59.61251863,,,,,space,0.0504,0,22,22,30,1,31,training,zh2x,e,zh2x_e,zh2x_7_exe.wav,,exe.jpg,,,,,,,,,,,,,,,,,,,,,,,,,,,,,,,,,
5ef0a10e3867d33b6bb063bc,2023-06-16_10h25.06.017,phx_ver10,2022.2.5,Win32,59.61251863,,,,,space,0.5678,0,23,23,36,1,37,training,zh2x,i,zh2x_i,zh2x_2_izhi.wav,,izhi.jpg,,,,,,,,,,,,,,,,,,,,,,,,,,,,,,,,,
5ef0a10e3867d33b6bb063bc,2023-06-16_10h25.06.017,phx_ver10,2022.2.5,Win32,59.61251863,,,,,,,,,,,,,attn_test,,,,zh2x_8_axa.wav,zh2x_1_izhi.wav,izhi.jpg,RIGHT,,j,0.3515,space,1.1918,0,0,0,0,1,,,,,,,,,,,,,,,,,,,,,,
5ef0a10e3867d33b6bb063bc,2023-06-16_10h25.06.017,phx_ver10,2022.2.5,Win32,59.61251863,,,,,space,0.3679,0,24,24,32,1,33,training,zh2x,i,zh2x_i,zh2x_1_izhi.wav,,izhi.jpg,,,,,,,,,,,,,,,,,,,,,,,,,,,,,,,,,
5ef0a10e3867d33b6bb063bc,2023-06-16_10h25.06.017,phx_ver10,2022.2.5,Win32,59.61251863,,,,,space,0.1813,0,25,25,6,1,7,training,zh2x,a,zh2x_a,zh2x_3_azha.wav,,azha.jpg,,,,,,,,,,,,,,,,,,,,,,,,,,,,,,,,,
5ef0a10e3867d33b6bb063bc,2023-06-16_10h25.06.017,phx_ver10,2022.2.5,Win32,59.61251863,,,,,space,0.3354,0,26,26,41,1,42,training,zh2x,i,zh2x_i,zh2x_6_ixi.wav,,ixi.jpg,,,,,,,,,,,,,,,,,,,,,,,,,,,,,,,,,
5ef0a10e3867d33b6bb063bc,2023-06-16_10h25.06.017,phx_ver10,2022.2.5,Win32,59.61251863,,,,,space,0.0677,0,27,27,27,1,28,training,zh2x,e,zh2x_e,zh2x_7_exe.wav,,exe.jpg,,,,,,,,,,,,,,,,,,,,,,,,,,,,,,,,,
5ef0a10e3867d33b6bb063bc,2023-06-16_10h25.06.017,phx_ver10,2022.2.5,Win32,59.61251863,,,,,space,0.7249,0,28,28,46,1,47,training,zh2x,i,zh2x_i,zh2x_7_ixi.wav,,ixi.jpg,,,,,,,,,,,,,,,,,,,,,,,,,,,,,,,,,
5ef0a10e3867d33b6bb063bc,2023-06-16_10h25.06.017,phx_ver10,2022.2.5,Win32,59.61251863,,,,,space,0.6159,0,29,29,9,1,10,training,zh2x,a,zh2x_a,zh2x_6_axa.wav,,axa.jpg,,,,,,,,,,,,,,,,,,,,,,,,,,,,,,,,,
5ef0a10e3867d33b6bb063bc,2023-06-16_10h25.06.017,phx_ver10,2022.2.5,Win32,59.61251863,,,,,,,,,,,,,attn_test,,,,zh2x_1_izhi.wav,zh2x_8_exe.wav,exe.jpg,RIGHT,,j,0.2668,space,0.8013,0,0,0,0,1,,,,,,,,,,,,,,,,,,,,,,
5ef0a10e3867d33b6bb063bc,2023-06-16_10h25.06.017,phx_ver10,2022.2.5,Win32,59.61251863,,,,,space,0.55,0,30,30,26,1,27,training,zh2x,e,zh2x_e,zh2x_6_exe.wav,,exe.jpg,,,,,,,,,,,,,,,,,,,,,,,,,,,,,,,,,
5ef0a10e3867d33b6bb063bc,2023-06-16_10h25.06.017,phx_ver10,2022.2.5,Win32,59.61251863,,,,,space,0.1,0,31,31,47,1,48,training,zh2x,i,zh2x_i,zh2x_8_ixi.wav,,ixi.jpg,,,,,,,,,,,,,,,,,,,,,,,,,,,,,,,,,
5ef0a10e3867d33b6bb063bc,2023-06-16_10h25.06.017,phx_ver10,2022.2.5,Win32,59.61251863,,,,,space,0.0131,0,32,32,11,1,12,training,zh2x,a,zh2x_a,zh2x_7_axa.wav,,axa.jpg,,,,,,,,,,,,,,,,,,,,,,,,,,,,,,,,,
5ef0a10e3867d33b6bb063bc,2023-06-16_10h25.06.017,phx_ver10,2022.2.5,Win32,59.61251863,,,,,space,0.6684,0,33,33,39,1,40,training,zh2x,i,zh2x_i,zh2x_4_izhi.wav,,izhi.jpg,,,,,,,,,,,,,,,,,,,,,,,,,,,,,,,,,
5ef0a10e3867d33b6bb063bc,2023-06-16_10h25.06.017,phx_ver10,2022.2.5,Win32,59.61251863,,,,,space,0.4038,0,34,34,20,1,21,training,zh2x,e,zh2x_e,zh2x_2_ezhe.wav,,ezhe.jpg,,,,,,,,,,,,,,,,,,,,,,,,,,,,,,,,,
5ef0a10e3867d33b6bb063bc,2023-06-16_10h25.06.017,phx_ver10,2022.2.5,Win32,59.61251863,,,,,space,0.0676,0,35,35,37,1,38,training,zh2x,i,zh2x_i,zh2x_3_izhi.wav,,izhi.jpg,,,,,,,,,,,,,,,,,,,,,,,,,,,,,,,,,
5ef0a10e3867d33b6bb063bc,2023-06-16_10h25.06.017,phx_ver10,2022.2.5,Win32,59.61251863,,,,,,,,,,,,,attn_test,,,,zh2x_8_exe.wav,zh2x_8_axa.wav,axa.jpg,RIGHT,,j,4.0219,space,4.4387,0,0,0,0,1,,,,,,,,,,,,,,,,,,,,,,
5ef0a10e3867d33b6bb063bc,2023-06-16_10h25.06.017,phx_ver10,2022.2.5,Win32,59.61251863,,,,,space,0.5015,0,36,36,18,1,19,training,zh2x,e,zh2x_e,zh2x_2_ezhe.wav,,ezhe.jpg,,,,,,,,,,,,,,,,,,,,,,,,,,,,,,,,,
5ef0a10e3867d33b6bb063bc,2023-06-16_10h25.06.017,phx_ver10,2022.2.5,Win32,59.61251863,,,,,space,0.2342,0,37,37,15,1,16,training,zh2x,a,zh2x_a,zh2x_8_axa.wav,,axa.jpg,,,,,,,,,,,,,,,,,,,,,,,,,,,,,,,,,
5ef0a10e3867d33b6bb063bc,2023-06-16_10h25.06.017,phx_ver10,2022.2.5,Win32,59.61251863,,,,,space,0.2398,0,38,38,7,1,8,training,zh2x,a,zh2x_a,zh2x_4_azha.wav,,azha.jpg,,,,,,,,,,,,,,,,,,,,,,,,,,,,,,,,,
5ef0a10e3867d33b6bb063bc,2023-06-16_10h25.06.017,phx_ver10,2022.2.5,Win32,59.61251863,,,,,space,0.0341,0,39,39,13,1,14,training,zh2x,a,zh2x_a,zh2x_7_axa.wav,,axa.jpg,,,,,,,,,,,,,,,,,,,,,,,,,,,,,,,,,
5ef0a10e3867d33b6bb063bc,2023-06-16_10h25.06.017,phx_ver10,2022.2.5,Win32,59.61251863,,,,,space,0.5351,0,40,40,14,1,15,training,zh2x,a,zh2x_a,zh2x_7_axa.wav,,axa.jpg,,,,,,,,,,,,,,,,,,,,,,,,,,,,,,,,,
5ef0a10e3867d33b6bb063bc,2023-06-16_10h25.06.017,phx_ver10,2022.2.5,Win32,59.61251863,,,,,space,0.4177,0,41,41,16,1,17,training,zh2x,e,zh2x_e,zh2x_1_ezhe.wav,,ezhe.jpg,,,,,,,,,,,,,,,,,,,,,,,,,,,,,,,,,
5ef0a10e3867d33b6bb063bc,2023-06-16_10h25.06.017,phx_ver10,2022.2.5,Win32,59.61251863,,,,,,,,,,,,,attn_test,,,,zh2x_8_exe.wav,zh2x_8_axa.wav,axa.jpg,RIGHT,,j,1.1683,space,1.586,0,0,0,0,1,,,,,,,,,,,,,,,,,,,,,,
5ef0a10e3867d33b6bb063bc,2023-06-16_10h25.06.017,phx_ver10,2022.2.5,Win32,59.61251863,,,,,space,0.0875,0,42,42,45,1,46,training,zh2x,i,zh2x_i,zh2x_7_ixi.wav,,ixi.jpg,,,,,,,,,,,,,,,,,,,,,,,,,,,,,,,,,
5ef0a10e3867d33b6bb063bc,2023-06-16_10h25.06.017,phx_ver10,2022.2.5,Win32,59.61251863,,,,,space,0.0006,0,43,43,38,1,39,training,zh2x,i,zh2x_i,zh2x_3_izhi.wav,,izhi.jpg,,,,,,,,,,,,,,,,,,,,,,,,,,,,,,,,,
5ef0a10e3867d33b6bb063bc,2023-06-16_10h25.06.017,phx_ver10,2022.2.5,Win32,59.61251863,,,,,space,0.0241,0,44,44,40,1,41,training,zh2x,i,zh2x_i,zh2x_5_ixi.wav,,ixi.jpg,,,,,,,,,,,,,,,,,,,,,,,,,,,,,,,,,
5ef0a10e3867d33b6bb063bc,2023-06-16_10h25.06.017,phx_ver10,2022.2.5,Win32,59.61251863,,,,,space,0.0336,0,45,45,0,1,1,training,zh2x,a,zh2x_a,zh2x_1_azha.wav,,azha.jpg,,,,,,,,,,,,,,,,,,,,,,,,,,,,,,,,,
5ef0a10e3867d33b6bb063bc,2023-06-16_10h25.06.017,phx_ver10,2022.2.5,Win32,59.61251863,,,,,space,0.4999,0,46,46,23,1,24,training,zh2x,e,zh2x_e,zh2x_4_ezhe.wav,,ezhe.jpg,,,,,,,,,,,,,,,,,,,,,,,,,,,,,,,,,
5ef0a10e3867d33b6bb063bc,2023-06-16_10h25.06.017,phx_ver10,2022.2.5,Win32,59.61251863,,,,,space,0.4347,0,47,47,12,1,13,training,zh2x,a,zh2x_a,zh2x_7_axa.wav,,axa.jpg,,,,,,,,,,,,,,,,,,,,,,,,,,,,,,,,,
5ef0a10e3867d33b6bb063bc,2023-06-16_10h25.06.017,phx_ver10,2022.2.5,Win32,59.61251863,,,,,,,,,,,,,attn_test,,,,zh2x_8_ixi.wav,zh2x_1_ezhe.wav,ixi.jpg,LEFT,,f,0.2339,space,0.6679,,,,,,,,,,,,,,,,,,,,,,,,,,,
5ef0a10e3867d33b6bb063bc,2023-06-16_10h25.06.017,phx_ver10,2022.2.5,Win32,59.61251863,,,,,,,,,,,,,,,,,,,,,,,,,,,,,,,space,1.9521,,,,,,,,,,,,,,,,,,,,
5ef0a10e3867d33b6bb063bc,2023-06-16_10h25.06.017,phx_ver10,2022.2.5,Win32,59.61251863,,,,,,,,,,,,,,,,,,,,,,,,,,,,,,,,,space,5.7554,,,,,,,,,,,,,,,,,,
5ef0a10e3867d33b6bb063bc,2023-06-16_10h25.06.017,phx_ver10,2022.2.5,Win32,59.61251863,,,,,,,,,,,,3,testing_pre,,,,afa.wav,aha.wav,,FALSE,,,,,,,,,,,,,,,j,3.6207,space,4.5055,0,0,0,2,1,,,,,,,,,
5ef0a10e3867d33b6bb063bc,2023-06-16_10h25.06.017,phx_ver10,2022.2.5,Win32,59.61251863,,,,,,,,,,,,5,testing_pre,,,,ihi.wav,ifi.wav,,FALSE,,,,,,,,,,,,,,,j,1.3021,space,1.7028,0,1,1,4,1,,,,,,,,,
5ef0a10e3867d33b6bb063bc,2023-06-16_10h25.06.017,phx_ver10,2022.2.5,Win32,59.61251863,,,,,,,,,,,,1,testing_pre,,,,ifi.wav,ifi.wav,,TRUE,,,,,,,,,,,,,,,f,0.7683,space,1.6692,0,2,2,0,1,,,,,,,,,
5ef0a10e3867d33b6bb063bc,2023-06-16_10h25.06.017,phx_ver10,2022.2.5,Win32,59.61251863,,,,,,,,,,,,4,testing_pre,,,,eihei.wav,eihei.wav,,TRUE,,,,,,,,,,,,,,,f,2.4038,space,2.8203,0,3,3,3,1,,,,,,,,,
5ef0a10e3867d33b6bb063bc,2023-06-16_10h25.06.017,phx_ver10,2022.2.5,Win32,59.61251863,,,,,,,,,,,,2,testing_pre,,,,auhau.wav,aufau.wav,,FALSE,,,,,,,,,,,,,,,j,0.7852,space,1.2183,0,4,4,1,1,,,,,,,,,
5ef0a10e3867d33b6bb063bc,2023-06-16_10h25.06.017,phx_ver10,2022.2.5,Win32,59.61251863,,,,,,,,,,,,,,,,,,,,,,,,,,,,,,,,,,,,,,,,,,,,space,0.8517,,,,,,,
5ef0a10e3867d33b6bb063bc,2023-06-16_10h25.06.017,phx_ver10,2022.2.5,Win32,59.61251863,,,,,,,,,,,,48,testing_3,zh2sh,i,zh2sh_i,zh2sh_8_ishi.wav,zh2sh_1_izhi.wav,,FALSE,FALSE,,,,,,,,,,,,,,j,2.4873,space,2.8873,,,,,,,,0,0,0,47,1,,
5ef0a10e3867d33b6bb063bc,2023-06-16_10h25.06.017,phx_ver10,2022.2.5,Win32,59.61251863,,,,,,,,,,,,11,testing_1,zh2x,i,zh2x_i,zh2x_1_izhi.wav,zh2x_8_ixi.wav,,FALSE,TRUE,,,,,,,,,,,,,,j,0.7339,space,1.1178,,,,,,,,0,1,1,10,1,,
5ef0a10e3867d33b6bb063bc,2023-06-16_10h25.06.017,phx_ver10,2022.2.5,Win32,59.61251863,,,,,,,,,,,,83,testing_3,j2x,au,j2x_au,j2x_1_aujau.wav,j2x_8_auxau.wav,,FALSE,FALSE,,,,,,,,,,,,,,j,0.6675,space,1.7185,,,,,,,,0,2,2,82,1,,
5ef0a10e3867d33b6bb063bc,2023-06-16_10h25.06.017,phx_ver10,2022.2.5,Win32,59.61251863,,,,,,,,,,,,21,testing_2,zh2x,ei,zh2x_ei,zh2x_1_eizhei.wav,zh2x_1_eizhei.wav,,TRUE,FALSE,,,,,,,,,,,,,,f,0.4181,space,0.8179,,,,,,,,0,3,3,20,1,,
5ef0a10e3867d33b6bb063bc,2023-06-16_10h25.06.017,phx_ver10,2022.2.5,Win32,59.61251863,,,,,,,,,,,,68,testing_3,zh2j,ei,zh2j_ei,zh2j_8_eijei.wav,zh2j_1_eizhei.wav,,FALSE,FALSE,,,,,,,,,,,,,,f,0.2003,space,0.534,,,,,,,,0,4,4,67,1,,
5ef0a10e3867d33b6bb063bc,2023-06-16_10h25.06.017,phx_ver10,2022.2.5,Win32,59.61251863,,,,,,,,,,,,86,testing_3,j2x,e,j2x_e,j2x_8_exe.wav,j2x_8_exe.wav,,TRUE,FALSE,,,,,,,,,,,,,,f,0.4508,space,0.7006,,,,,,,,0,5,5,85,1,,
5ef0a10e3867d33b6bb063bc,2023-06-16_10h25.06.017,phx_ver10,2022.2.5,Win32,59.61251863,,,,,,,,,,,,29,testing_3,zh2sh,ai,zh2sh_ai,zh2sh_1_aizhai.wav,zh2sh_1_aizhai.wav,,TRUE,FALSE,,,,,,,,,,,,,,f,0.5343,space,0.8345,,,,,,,,0,6,6,28,1,,
5ef0a10e3867d33b6bb063bc,2023-06-16_10h25.06.017,phx_ver10,2022.2.5,Win32,59.61251863,,,,,,,,,,,,89,testing_3,j2x,ei,j2x_ei,j2x_1_eijei.wav,j2x_1_eijei.wav,,TRUE,FALSE,,,,,,,,,,,,,,f,0.601,space,0.8176,,,,,,,,0,7,7,88,1,,
5ef0a10e3867d33b6bb063bc,2023-06-16_10h25.06.017,phx_ver10,2022.2.5,Win32,59.61251863,,,,,,,,,,,,87,testing_3,j2x,e,j2x_e,j2x_1_eje.wav,j2x_8_exe.wav,,FALSE,FALSE,,,,,,,,,,,,,,j,0.6676,space,0.9845,,,,,,,,0,8,8,86,1,,
5ef0a10e3867d33b6bb063bc,2023-06-16_10h25.06.017,phx_ver10,2022.2.5,Win32,59.61251863,,,,,,,,,,,,3,testing_1,zh2x,a,zh2x_a,zh2x_1_azha.wav,zh2x_8_axa.wav,,FALSE,TRUE,,,,,,,,,,,,,,j,0.5011,space,0.7676,,,,,,,,0,9,9,2,1,,
5ef0a10e3867d33b6bb063bc,2023-06-16_10h25.06.017,phx_ver10,2022.2.5,Win32,59.61251863,,,,,,,,,,,,144,testing_3,sh2j,i,sh2j_i,sh2j_8_iji.wav,sh2j_1_ishi.wav,,FALSE,FALSE,,,,,,,,,,,,,,j,0.4681,space,0.6515,,,,,,,,0,10,10,143,1,,
5ef0a10e3867d33b6bb063bc,2023-06-16_10h25.06.017,phx_ver10,2022.2.5,Win32,59.61251863,,,,,,,,,,,,93,testing_3,j2x,i,j2x_i,j2x_1_iji.wav,j2x_1_iji.wav,,TRUE,FALSE,,,,,,,,,,,,,,f,0.4171,space,0.6176,,,,,,,,0,11,11,92,1,,
5ef0a10e3867d33b6bb063bc,2023-06-16_10h25.06.017,phx_ver10,2022.2.5,Win32,59.61251863,,,,,,,,,,,,101,testing_3,sh2x,ai,sh2x_ai,sh2x_1_aishai.wav,sh2x_1_aishai.wav,,TRUE,FALSE,,,,,,,,,,,,,,f,0.2844,space,0.4852,,,,,,,,0,12,12,100,1,,
5ef0a10e3867d33b6bb063bc,2023-06-16_10h25.06.017,phx_ver10,2022.2.5,Win32,59.61251863,,,,,,,,,,,,22,testing_2,zh2x,ei,zh2x_ei,zh2x_8_eixei.wav,zh2x_8_eixei.wav,,TRUE,FALSE,,,,,,,,,,,,,,f,1.0186,space,1.2517,,,,,,,,0,13,13,21,1,,
5ef0a10e3867d33b6bb063bc,2023-06-16_10h25.06.017,phx_ver10,2022.2.5,Win32,59.61251863,,,,,,,,,,,,85,testing_3,j2x,e,j2x_e,j2x_1_eje.wav,j2x_1_eje.wav,,TRUE,FALSE,,,,,,,,,,,,,,f,0.4013,space,0.6178,,,,,,,,0,14,14,84,1,,
5ef0a10e3867d33b6bb063bc,2023-06-16_10h25.06.017,phx_ver10,2022.2.5,Win32,59.61251863,,,,,,,,,,,,143,testing_3,sh2j,i,sh2j_i,sh2j_1_ishi.wav,sh2j_8_iji.wav,,FALSE,FALSE,,,,,,,,,,,,,,j,0.6345,space,0.8511,,,,,,,,0,15,15,142,1,,
5ef0a10e3867d33b6bb063bc,2023-06-16_10h25.06.017,phx_ver10,2022.2.5,Win32,59.61251863,,,,,,,,,,,,34,testing_3,zh2sh,au,zh2sh_au,zh2sh_8_aushau.wav,zh2sh_8_aushau.wav,,TRUE,FALSE,,,,,,,,,,,,,,f,0.335,space,0.5514,,,,,,,,0,16,16,33,1,,
5ef0a10e3867d33b6bb063bc,2023-06-16_10h25.06.017,phx_ver10,2022.2.5,Win32,59.61251863,,,,,,,,,,,,30,testing_3,zh2sh,ai,zh2sh_ai,zh2sh_8_aishai.wav,zh2sh_8_aishai.wav,,TRUE,FALSE,,,,,,,,,,,,,,f,0.2007,space,0.4506,,,,,,,,0,17,17,29,1,,
5ef0a10e3867d33b6bb063bc,2023-06-16_10h25.06.017,phx_ver10,2022.2.5,Win32,59.61251863,,,,,,,,,,,,37,testing_3,zh2sh,e,zh2sh_e,zh2sh_1_ezhe.wav,zh2sh_1_ezhe.wav,,TRUE,FALSE,,,,,,,,,,,,,,f,0.3344,space,0.5847,,,,,,,,0,18,18,36,1,,
5ef0a10e3867d33b6bb063bc,2023-06-16_10h25.06.017,phx_ver10,2022.2.5,Win32,59.61251863,,,,,,,,,,,,71,testing_3,zh2j,i,zh2j_i,zh2j_1_izhi.wav,zh2j_8_iji.wav,,FALSE,FALSE,,,,,,,,,,,,,,j,2.7709,space,2.9712,,,,,,,,0,19,19,70,1,,
5ef0a10e3867d33b6bb063bc,2023-06-16_10h25.06.017,phx_ver10,2022.2.5,Win32,59.61251863,,,,,,,,,,,,117,testing_3,sh2x,i,sh2x_i,sh2x_1_ishi.wav,sh2x_1_ishi.wav,,TRUE,FALSE,,,,,,,,,,,,,,f,0.3512,space,0.5346,,,,,,,,0,20,20,116,1,,
5ef0a10e3867d33b6bb063bc,2023-06-16_10h25.06.017,phx_ver10,2022.2.5,Win32,59.61251863,,,,,,,,,,,,19,testing_2,zh2x,au,zh2x_au,zh2x_1_auzhau.wav,zh2x_8_auxau.wav,,FALSE,FALSE,,,,,,,,,,,,,,j,0.6018,space,0.8681,,,,,,,,0,21,21,18,1,,
5ef0a10e3867d33b6bb063bc,2023-06-16_10h25.06.017,phx_ver10,2022.2.5,Win32,59.61251863,,,,,,,,,,,,140,testing_3,sh2j,ei,sh2j_ei,sh2j_8_eijei.wav,sh2j_1_eishei.wav,,FALSE,FALSE,,,,,,,,,,,,,,j,0.718,space,0.9185,,,,,,,,0,22,22,139,1,,
5ef0a10e3867d33b6bb063bc,2023-06-16_10h25.06.017,phx_ver10,2022.2.5,Win32,59.61251863,,,,,,,,,,,,59,testing_3,zh2j,au,zh2j_au,zh2j_1_auzhau.wav,zh2j_8_aujau.wav,,FALSE,FALSE,,,,,,,,,,,,,,f,0.301,space,0.5673,,,,,,,,0,23,23,58,1,,
5ef0a10e3867d33b6bb063bc,2023-06-16_10h25.06.017,phx_ver10,2022.2.5,Win32,59.61251863,,,,,,,,,,,,54,testing_3,zh2j,ai,zh2j_ai,zh2j_8_aijai.wav,zh2j_8_aijai.wav,,TRUE,FALSE,,,,,,,,,,,,,,f,0.4001,space,0.5838,,,,,,,,0,24,24,53,1,,
5ef0a10e3867d33b6bb063bc,2023-06-16_10h25.06.017,phx_ver10,2022.2.5,Win32,59.61251863,,,,,,,,,,,,73,testing_3,j2x,a,j2x_a,j2x_1_aja.wav,j2x_1_aja.wav,,TRUE,FALSE,,,,,,,,,,,,,,f,0.3344,space,0.5179,,,,,,,,0,25,25,72,1,,
5ef0a10e3867d33b6bb063bc,2023-06-16_10h25.06.017,phx_ver10,2022.2.5,Win32,59.61251863,,,,,,,,,,,,72,testing_3,zh2j,i,zh2j_i,zh2j_8_iji.wav,zh2j_1_izhi.wav,,FALSE,FALSE,,,,,,,,,,,,,,f,0.2845,space,0.4678,,,,,,,,0,26,26,71,1,,
5ef0a10e3867d33b6bb063bc,2023-06-16_10h25.06.017,phx_ver10,2022.2.5,Win32,59.61251863,,,,,,,,,,,,114,testing_3,sh2x,ei,sh2x_ei,sh2x_8_eixei.wav,sh2x_8_eixei.wav,,TRUE,FALSE,,,,,,,,,,,,,,f,0.2513,space,0.4177,,,,,,,,0,27,27,113,1,,
5ef0a10e3867d33b6bb063bc,2023-06-16_10h25.06.017,phx_ver10,2022.2.5,Win32,59.61251863,,,,,,,,,,,,126,testing_3,sh2j,ai,sh2j_ai,sh2j_8_aijai.wav,sh2j_8_aijai.wav,,TRUE,FALSE,,,,,,,,,,,,,,f,0.3512,space,0.5341,,,,,,,,0,28,28,125,1,,
5ef0a10e3867d33b6bb063bc,2023-06-16_10h25.06.017,phx_ver10,2022.2.5,Win32,59.61251863,,,,,,,,,,,,112,testing_3,sh2x,e,sh2x_e,sh2x_8_exe.wav,sh2x_1_eshe.wav,,FALSE,FALSE,,,,,,,,,,,,,,j,0.6349,space,0.8686,,,,,,,,0,29,29,111,1,,
5ef0a10e3867d33b6bb063bc,2023-06-16_10h25.06.017,phx_ver10,2022.2.5,Win32,59.61251863,,,,,,,,,,,,57,testing_3,zh2j,au,zh2j_au,zh2j_1_auzhau.wav,zh2j_1_auzhau.wav,,TRUE,FALSE,,,,,,,,,,,,,,f,0.3673,space,0.5505,,,,,,,,0,30,30,56,1,,
5ef0a10e3867d33b6bb063bc,2023-06-16_10h25.06.017,phx_ver10,2022.2.5,Win32,59.61251863,,,,,,,,,,,,53,testing_3,zh2j,ai,zh2j_ai,zh2j_1_aizhai.wav,zh2j_1_aizhai.wav,,TRUE,FALSE,,,,,,,,,,,,,,f,0.2674,space,0.4509,,,,,,,,0,31,31,52,1,,
5ef0a10e3867d33b6bb063bc,2023-06-16_10h25.06.017,phx_ver10,2022.2.5,Win32,59.61251863,,,,,,,,,,,,8,testing_1,zh2x,e,zh2x_e,zh2x_8_exe.wav,zh2x_1_ezhe.wav,,FALSE,TRUE,,,,,,,,,,,,,,j,0.4513,space,0.6352,,,,,,,,0,32,32,7,1,,
5ef0a10e3867d33b6bb063bc,2023-06-16_10h25.06.017,phx_ver10,2022.2.5,Win32,59.61251863,,,,,,,,,,,,52,testing_3,zh2j,a,zh2j_a,zh2j_8_aja.wav,zh2j_1_azha.wav,,FALSE,FALSE,,,,,,,,,,,,,,f,0.9521,space,1.2184,,,,,,,,0,33,33,51,1,,
5ef0a10e3867d33b6bb063bc,2023-06-16_10h25.06.017,phx_ver10,2022.2.5,Win32,59.61251863,,,,,,,,,,,,32,testing_3,zh2sh,ai,zh2sh_ai,zh2sh_8_aishai.wav,zh2sh_1_aizhai.wav,,FALSE,FALSE,,,,,,,,,,,,,,j,0.4674,space,0.7344,,,,,,,,0,34,34,31,1,,
5ef0a10e3867d33b6bb063bc,2023-06-16_10h25.06.017,phx_ver10,2022.2.5,Win32,59.61251863,,,,,,,,,,,,1,testing_1,zh2x,a,zh2x_a,zh2x_1_azha.wav,zh2x_1_azha_copy.wav,,TRUE,TRUE,,,,,,,,,,,,,,f,0.2841,space,0.5183,,,,,,,,0,35,35,0,1,,
5ef0a10e3867d33b6bb063bc,2023-06-16_10h25.06.017,phx_ver10,2022.2.5,Win32,59.61251863,,,,,,,,,,,,97,testing_3,sh2x,a,sh2x_a,sh2x_1_asha.wav,sh2x_1_asha.wav,,TRUE,FALSE,,,,,,,,,,,,,,f,0.1676,space,0.3681,,,,,,,,0,36,36,96,1,,
5ef0a10e3867d33b6bb063bc,2023-06-16_10h25.06.017,phx_ver10,2022.2.5,Win32,59.61251863,,,,,,,,,,,,44,testing_3,zh2sh,ei,zh2sh_ei,zh2sh_8_eishei.wav,zh2sh_1_eizhei.wav,,FALSE,FALSE,,,,,,,,,,,,,,j,0.5014,space,0.9516,,,,,,,,0,37,37,43,1,,
5ef0a10e3867d33b6bb063bc,2023-06-16_10h25.06.017,phx_ver10,2022.2.5,Win32,59.61251863,,,,,,,,,,,,2,testing_1,zh2x,a,zh2x_a,zh2x_8_axa.wav,zh2x_8_axa_copy.wav,,TRUE,TRUE,,,,,,,,,,,,,,f,0.2017,space,0.4351,,,,,,,,0,38,38,1,1,,
5ef0a10e3867d33b6bb063bc,2023-06-16_10h25.06.017,phx_ver10,2022.2.5,Win32,59.61251863,,,,,,,,,,,,43,testing_3,zh2sh,ei,zh2sh_ei,zh2sh_1_eizhei.wav,zh2sh_8_eishei.wav,,FALSE,FALSE,,,,,,,,,,,,,,j,0.6177,space,0.8344,,,,,,,,0,39,39,42,1,,
5ef0a10e3867d33b6bb063bc,2023-06-16_10h25.06.017,phx_ver10,2022.2.5,Win32,59.61251863,,,,,,,,,,,,104,testing_3,sh2x,ai,sh2x_ai,sh2x_8_aixai.wav,sh2x_1_aishai.wav,,FALSE,FALSE,,,,,,,,,,,,,,f,0.3011,space,0.5182,,,,,,,,0,40,40,103,1,,
5ef0a10e3867d33b6bb063bc,2023-06-16_10h25.06.017,phx_ver10,2022.2.5,Win32,59.61251863,,,,,,,,,,,,94,testing_3,j2x,i,j2x_i,j2x_8_ixi.wav,j2x_8_ixi.wav,,TRUE,FALSE,,,,,,,,,,,,,,f,0.3172,space,0.5347,,,,,,,,0,41,41,93,1,,
5ef0a10e3867d33b6bb063bc,2023-06-16_10h25.06.017,phx_ver10,2022.2.5,Win32,59.61251863,,,,,,,,,,,,67,testing_3,zh2j,ei,zh2j_ei,zh2j_1_eizhei.wav,zh2j_8_eijei.wav,,FALSE,FALSE,,,,,,,,,,,,,,f,0.2178,space,0.6515,,,,,,,,0,42,42,66,1,,
5ef0a10e3867d33b6bb063bc,2023-06-16_10h25.06.017,phx_ver10,2022.2.5,Win32,59.61251863,,,,,,,,,,,,49,testing_3,zh2j,a,zh2j_a,zh2j_1_azha.wav,zh2j_1_azha.wav,,TRUE,FALSE,,,,,,,,,,,,,,f,0.3181,space,0.5349,,,,,,,,0,43,43,48,1,,
5ef0a10e3867d33b6bb063bc,2023-06-16_10h25.06.017,phx_ver10,2022.2.5,Win32,59.61251863,,,,,,,,,,,,135,testing_3,sh2j,e,sh2j_e,sh2j_1_eshe.wav,sh2j_8_eje.wav,,FALSE,FALSE,,,,,,,,,,,,,,j,0.5014,space,0.7348,,,,,,,,0,44,44,134,1,,
5ef0a10e3867d33b6bb063bc,2023-06-16_10h25.06.017,phx_ver10,2022.2.5,Win32,59.61251863,,,,,,,,,,,,55,testing_3,zh2j,ai,zh2j_ai,zh2j_1_aizhai.wav,zh2j_8_aijai.wav,,FALSE,FALSE,,,,,,,,,,,,,,f,0.3009,space,0.5176,,,,,,,,0,45,45,54,1,,
5ef0a10e3867d33b6bb063bc,2023-06-16_10h25.06.017,phx_ver10,2022.2.5,Win32,59.61251863,,,,,,,,,,,,130,testing_3,sh2j,au,sh2j_au,sh2j_8_aujau.wav,sh2j_8_aujau.wav,,TRUE,FALSE,,,,,,,,,,,,,,f,0.2683,space,0.4849,,,,,,,,0,46,46,129,1,,
5ef0a10e3867d33b6bb063bc,2023-06-16_10h25.06.017,phx_ver10,2022.2.5,Win32,59.61251863,,,,,,,,,,,,61,testing_3,zh2j,e,zh2j_e,zh2j_1_ezhe.wav,zh2j_1_ezhe.wav,,TRUE,FALSE,,,,,,,,,,,,,,f,0.2008,space,0.4175,,,,,,,,0,47,47,60,1,,
5ef0a10e3867d33b6bb063bc,2023-06-16_10h25.06.017,phx_ver10,2022.2.5,Win32,59.61251863,,,,,,,,,,,,69,testing_3,zh2j,i,zh2j_i,zh2j_1_izhi.wav,zh2j_1_izhi.wav,,TRUE,FALSE,,,,,,,,,,,,,,f,0.2177,space,0.4181,,,,,,,,0,48,48,68,1,,
5ef0a10e3867d33b6bb063bc,2023-06-16_10h25.06.017,phx_ver10,2022.2.5,Win32,59.61251863,,,,,,,,,,,,27,testing_3,zh2sh,a,zh2sh_a,zh2sh_1_azha.wav,zh2sh_8_asha.wav,,FALSE,FALSE,,,,,,,,,,,,,,j,0.3845,space,0.6018,,,,,,,,0,49,49,26,1,,
5ef0a10e3867d33b6bb063bc,2023-06-16_10h25.06.017,phx_ver10,2022.2.5,Win32,59.61251863,,,,,,,,,,,,38,testing_3,zh2sh,e,zh2sh_e,zh2sh_8_eshe.wav,zh2sh_8_eshe.wav,,TRUE,FALSE,,,,,,,,,,,,,,f,0.1343,space,0.3514,,,,,,,,0,50,50,37,1,,
5ef0a10e3867d33b6bb063bc,2023-06-16_10h25.06.017,phx_ver10,2022.2.5,Win32,59.61251863,,,,,,,,,,,,66,testing_3,zh2j,ei,zh2j_ei,zh2j_8_eijei.wav,zh2j_8_eijei.wav,,TRUE,FALSE,,,,,,,,,,,,,,f,0.2341,space,0.4513,,,,,,,,0,51,51,65,1,,
5ef0a10e3867d33b6bb063bc,2023-06-16_10h25.06.017,phx_ver10,2022.2.5,Win32,59.61251863,,,,,,,,,,,,28,testing_3,zh2sh,a,zh2sh_a,zh2sh_8_asha.wav,zh2sh_1_azha.wav,,FALSE,FALSE,,,,,,,,,,,,,,j,0.701,space,0.9181,,,,,,,,0,52,52,27,1,,
5ef0a10e3867d33b6bb063bc,2023-06-16_10h25.06.017,phx_ver10,2022.2.5,Win32,59.61251863,,,,,,,,,,,,80,testing_3,j2x,ai,j2x_ai,j2x_8_aixai.wav,j2x_1_aijai.wav,,FALSE,FALSE,,,,,,,,,,,,,,j,0.4347,space,0.7011,,,,,,,,0,53,53,79,1,,
5ef0a10e3867d33b6bb063bc,2023-06-16_10h25.06.017,phx_ver10,2022.2.5,Win32,59.61251863,,,,,,,,,,,,5,testing_1,zh2x,e,zh2x_e,zh2x_1_ezhe.wav,zh2x_1_ezhe_copy.wav,,TRUE,TRUE,,,,,,,,,,,,,,f,0.1509,space,0.3678,,,,,,,,0,54,54,4,1,,
5ef0a10e3867d33b6bb063bc,2023-06-16_10h25.06.017,phx_ver10,2022.2.5,Win32,59.61251863,,,,,,,,,,,,103,testing_3,sh2x,ai,sh2x_ai,sh2x_1_aishai.wav,sh2x_8_aixai.wav,,FALSE,FALSE,,,,,,,,,,,,,,j,0.4674,space,0.718,,,,,,,,0,55,55,102,1,,
5ef0a10e3867d33b6bb063bc,2023-06-16_10h25.06.017,phx_ver10,2022.2.5,Win32,59.61251863,,,,,,,,,,,,40,testing_3,zh2sh,e,zh2sh_e,zh2sh_8_eshe.wav,zh2sh_1_ezhe.wav,,FALSE,FALSE,,,,,,,,,,,,,,j,0.3338,space,0.5175,,,,,,,,0,56,56,39,1,,
5ef0a10e3867d33b6bb063bc,2023-06-16_10h25.06.017,phx_ver10,2022.2.5,Win32,59.61251863,,,,,,,,,,,,77,testing_3,j2x,ai,j2x_ai,j2x_1_aijai.wav,j2x_1_aijai.wav,,TRUE,FALSE,,,,,,,,,,,,,,f,0.3178,space,0.5012,,,,,,,,0,57,57,76,1,,
5ef0a10e3867d33b6bb063bc,2023-06-16_10h25.06.017,phx_ver10,2022.2.5,Win32,59.61251863,,,,,,,,,,,,120,testing_3,sh2x,i,sh2x_i,sh2x_8_ixi.wav,sh2x_1_ishi.wav,,FALSE,FALSE,,,,,,,,,,,,,,f,0.7676,space,0.9345,,,,,,,,0,58,58,119,1,,
5ef0a10e3867d33b6bb063bc,2023-06-16_10h25.06.017,phx_ver10,2022.2.5,Win32,59.61251863,,,,,,,,,,,,13,testing_2,zh2x,ai,zh2x_ai,zh2x_1_aizhai.wav,zh2x_1_aizhai.wav,,TRUE,FALSE,,,,,,,,,,,,,,f,0.3178,space,0.4849,,,,,,,,0,59,59,12,1,,
5ef0a10e3867d33b6bb063bc,2023-06-16_10h25.06.017,phx_ver10,2022.2.5,Win32,59.61251863,,,,,,,,,,,,127,testing_3,sh2j,ai,sh2j_ai,sh2j_1_aishai.wav,sh2j_8_aijai.wav,,FALSE,FALSE,,,,,,,,,,,,,,j,0.4338,space,0.7508,,,,,,,,0,60,60,126,1,,
5ef0a10e3867d33b6bb063bc,2023-06-16_10h25.06.017,phx_ver10,2022.2.5,Win32,59.61251863,,,,,,,,,,,,64,testing_3,zh2j,e,zh2j_e,zh2j_8_eje.wav,zh2j_1_ezhe.wav,,FALSE,FALSE,,,,,,,,,,,,,,f,0.1512,space,0.3344,,,,,,,,0,61,61,63,1,,
5ef0a10e3867d33b6bb063bc,2023-06-16_10h25.06.017,phx_ver10,2022.2.5,Win32,59.61251863,,,,,,,,,,,,100,testing_3,sh2x,a,sh2x_a,sh2x_8_axa.wav,sh2x_1_asha.wav,,FALSE,FALSE,,,,,,,,,,,,,,j,1.4522,space,1.8865,,,,,,,,0,62,62,99,1,,
5ef0a10e3867d33b6bb063bc,2023-06-16_10h25.06.017,phx_ver10,2022.2.5,Win32,59.61251863,,,,,,,,,,,,115,testing_3,sh2x,ei,sh2x_ei,sh2x_1_eishei.wav,sh2x_8_eixei.wav,,FALSE,FALSE,,,,,,,,,,,,,,j,0.518,space,0.6849,,,,,,,,0,63,63,114,1,,
5ef0a10e3867d33b6bb063bc,2023-06-16_10h25.06.017,phx_ver10,2022.2.5,Win32,59.61251863,,,,,,,,,,,,56,testing_3,zh2j,ai,zh2j_ai,zh2j_8_aijai.wav,zh2j_1_aizhai.wav,,FALSE,FALSE,,,,,,,,,,,,,,f,0.8685,space,1.0356,,,,,,,,0,64,64,55,1,,
5ef0a10e3867d33b6bb063bc,2023-06-16_10h25.06.017,phx_ver10,2022.2.5,Win32,59.61251863,,,,,,,,,,,,99,testing_3,sh2x,a,sh2x_a,sh2x_1_asha.wav,sh2x_8_axa.wav,,FALSE,FALSE,,,,,,,,,,,,,,j,0.7183,space,0.9683,,,,,,,,0,65,65,98,1,,
5ef0a10e3867d33b6bb063bc,2023-06-16_10h25.06.017,phx_ver10,2022.2.5,Win32,59.61251863,,,,,,,,,,,,26,testing_3,zh2sh,a,zh2sh_a,zh2sh_8_asha.wav,zh2sh_8_asha.wav,,TRUE,FALSE,,,,,,,,,,,,,,f,0.1347,space,0.3516,,,,,,,,0,66,66,25,1,,
5ef0a10e3867d33b6bb063bc,2023-06-16_10h25.06.017,phx_ver10,2022.2.5,Win32,59.61251863,,,,,,,,,,,,121,testing_3,sh2j,a,sh2j_a,sh2j_1_asha.wav,sh2j_1_asha.wav,,TRUE,FALSE,,,,,,,,,,,,,,f,0.1845,space,0.3514,,,,,,,,0,67,67,120,1,,
5ef0a10e3867d33b6bb063bc,2023-06-16_10h25.06.017,phx_ver10,2022.2.5,Win32,59.61251863,,,,,,,,,,,,131,testing_3,sh2j,au,sh2j_au,sh2j_1_aushau.wav,sh2j_8_aujau.wav,,FALSE,FALSE,,,,,,,,,,,,,,j,0.2841,space,0.6339,,,,,,,,0,68,68,130,1,,
5ef0a10e3867d33b6bb063bc,2023-06-16_10h25.06.017,phx_ver10,2022.2.5,Win32,59.61251863,,,,,,,,,,,,96,testing_3,j2x,i,j2x_i,j2x_8_ixi.wav,j2x_1_iji.wav,,FALSE,FALSE,,,,,,,,,,,,,,j,0.3177,space,0.5513,,,,,,,,0,69,69,95,1,,
5ef0a10e3867d33b6bb063bc,2023-06-16_10h25.06.017,phx_ver10,2022.2.5,Win32,59.61251863,,,,,,,,,,,,118,testing_3,sh2x,i,sh2x_i,sh2x_8_ixi.wav,sh2x_8_ixi.wav,,TRUE,FALSE,,,,,,,,,,,,,,f,0.1177,space,0.3179,,,,,,,,0,70,70,117,1,,
5ef0a10e3867d33b6bb063bc,2023-06-16_10h25.06.017,phx_ver10,2022.2.5,Win32,59.61251863,,,,,,,,,,,,47,testing_3,zh2sh,i,zh2sh_i,zh2sh_1_izhi.wav,zh2sh_8_ishi.wav,,FALSE,FALSE,,,,,,,,,,,,,,j,0.3678,space,0.5842,,,,,,,,0,71,71,46,1,,
5ef0a10e3867d33b6bb063bc,2023-06-16_10h25.06.017,phx_ver10,2022.2.5,Win32,59.61251863,,,,,,,,,,,,62,testing_3,zh2j,e,zh2j_e,zh2j_8_eje.wav,zh2j_8_eje.wav,,TRUE,FALSE,,,,,,,,,,,,,,f,0.1844,space,0.3844,,,,,,,,0,72,72,61,1,,
5ef0a10e3867d33b6bb063bc,2023-06-16_10h25.06.017,phx_ver10,2022.2.5,Win32,59.61251863,,,,,,,,,,,,81,testing_3,j2x,au,j2x_au,j2x_1_aujau.wav,j2x_1_aujau.wav,,TRUE,FALSE,,,,,,,,,,,,,,f,0.1843,space,0.3682,,,,,,,,0,73,73,80,1,,
5ef0a10e3867d33b6bb063bc,2023-06-16_10h25.06.017,phx_ver10,2022.2.5,Win32,59.61251863,,,,,,,,,,,,25,testing_3,zh2sh,a,zh2sh_a,zh2sh_1_azha.wav,zh2sh_1_azha.wav,,TRUE,FALSE,,,,,,,,,,,,,,f,0.1683,space,0.3678,,,,,,,,0,74,74,24,1,,
5ef0a10e3867d33b6bb063bc,2023-06-16_10h25.06.017,phx_ver10,2022.2.5,Win32,59.61251863,,,,,,,,,,,,46,testing_3,zh2sh,i,zh2sh_i,zh2sh_8_ishi.wav,zh2sh_8_ishi.wav,,TRUE,FALSE,,,,,,,,,,,,,,f,0.201,space,0.3685,,,,,,,,0,75,75,45,1,,
5ef0a10e3867d33b6bb063bc,2023-06-16_10h25.06.017,phx_ver10,2022.2.5,Win32,59.61251863,,,,,,,,,,,,70,testing_3,zh2j,i,zh2j_i,zh2j_8_iji.wav,zh2j_8_iji.wav,,TRUE,FALSE,,,,,,,,,,,,,,f,0.2674,space,0.4175,,,,,,,,0,76,76,69,1,,
5ef0a10e3867d33b6bb063bc,2023-06-16_10h25.06.017,phx_ver10,2022.2.5,Win32,59.61251863,,,,,,,,,,,,119,testing_3,sh2x,i,sh2x_i,sh2x_1_ishi.wav,sh2x_8_ixi.wav,,FALSE,FALSE,,,,,,,,,,,,,,j,0.3367,space,0.4993,,,,,,,,0,77,77,118,1,,
5ef0a10e3867d33b6bb063bc,2023-06-16_10h25.06.017,phx_ver10,2022.2.5,Win32,59.61251863,,,,,,,,,,,,107,testing_3,sh2x,au,sh2x_au,sh2x_1_aushau.wav,sh2x_8_auxau.wav,,FALSE,FALSE,,,,,,,,,,,,,,j,0.517,space,0.6841,,,,,,,,0,78,78,106,1,,
5ef0a10e3867d33b6bb063bc,2023-06-16_10h25.06.017,phx_ver10,2022.2.5,Win32,59.61251863,,,,,,,,,,,,33,testing_3,zh2sh,au,zh2sh_au,zh2sh_1_auzhau.wav,zh2sh_1_auzhau.wav,,TRUE,FALSE,,,,,,,,,,,,,,f,1.4523,space,1.8193,,,,,,,,0,79,79,32,1,,
5ef0a10e3867d33b6bb063bc,2023-06-16_10h25.06.017,phx_ver10,2022.2.5,Win32,59.61251863,,,,,,,,,,,,91,testing_3,j2x,ei,j2x_ei,j2x_1_eijei.wav,j2x_8_eixei.wav,,FALSE,FALSE,,,,,,,,,,,,,,j,0.2848,space,0.6513,,,,,,,,0,80,80,90,1,,
5ef0a10e3867d33b6bb063bc,2023-06-16_10h25.06.017,phx_ver10,2022.2.5,Win32,59.61251863,,,,,,,,,,,,141,testing_3,sh2j,i,sh2j_i,sh2j_1_ishi.wav,sh2j_1_ishi.wav,,TRUE,FALSE,,,,,,,,,,,,,,f,0.2347,space,0.4685,,,,,,,,0,81,81,140,1,,
5ef0a10e3867d33b6bb063bc,2023-06-16_10h25.06.017,phx_ver10,2022.2.5,Win32,59.61251863,,,,,,,,,,,,17,testing_2,zh2x,au,zh2x_au,zh2x_1_auzhau.wav,zh2x_1_auzhau.wav,,TRUE,FALSE,,,,,,,,,,,,,,f,0.2846,space,0.7849,,,,,,,,0,82,82,16,1,,
5ef0a10e3867d33b6bb063bc,2023-06-16_10h25.06.017,phx_ver10,2022.2.5,Win32,59.61251863,,,,,,,,,,,,138,testing_3,sh2j,ei,sh2j_ei,sh2j_8_eijei.wav,sh2j_8_eijei.wav,,TRUE,FALSE,,,,,,,,,,,,,,f,0.8012,space,1.2004,,,,,,,,0,83,83,137,1,,
5ef0a10e3867d33b6bb063bc,2023-06-16_10h25.06.017,phx_ver10,2022.2.5,Win32,59.61251863,,,,,,,,,,,,42,testing_3,zh2sh,ei,zh2sh_ei,zh2sh_8_eishei.wav,zh2sh_8_eishei.wav,,TRUE,FALSE,,,,,,,,,,,,,,f,0.4344,space,0.8021,,,,,,,,0,84,84,41,1,,
5ef0a10e3867d33b6bb063bc,2023-06-16_10h25.06.017,phx_ver10,2022.2.5,Win32,59.61251863,,,,,,,,,,,,132,testing_3,sh2j,au,sh2j_au,sh2j_8_aujau.wav,sh2j_1_aushau.wav,,FALSE,FALSE,,,,,,,,,,,,,,j,0.0842,space,0.5849,,,,,,,,0,85,85,131,1,,
5ef0a10e3867d33b6bb063bc,2023-06-16_10h25.06.017,phx_ver10,2022.2.5,Win32,59.61251863,,,,,,,,,,,,75,testing_3,j2x,a,j2x_a,j2x_1_aja.wav,j2x_8_axa.wav,,FALSE,FALSE,,,,,,,,,,,,,,j,0.0843,space,0.6347,,,,,,,,0,86,86,74,1,,
5ef0a10e3867d33b6bb063bc,2023-06-16_10h25.06.017,phx_ver10,2022.2.5,Win32,59.61251863,,,,,,,,,,,,136,testing_3,sh2j,e,sh2j_e,sh2j_8_eje.wav,sh2j_1_eshe.wav,,FALSE,FALSE,,,,,,,,,,,,,,j,0.0345,space,0.4351,,,,,,,,0,87,87,135,1,,
5ef0a10e3867d33b6bb063bc,2023-06-16_10h25.06.017,phx_ver10,2022.2.5,Win32,59.61251863,,,,,,,,,,,,110,testing_3,sh2x,e,sh2x_e,sh2x_8_exe.wav,sh2x_8_exe.wav,,TRUE,FALSE,,,,,,,,,,,,,,f,0.0679,space,0.5176,,,,,,,,0,88,88,109,1,,
5ef0a10e3867d33b6bb063bc,2023-06-16_10h25.06.017,phx_ver10,2022.2.5,Win32,59.61251863,,,,,,,,,,,,113,testing_3,sh2x,ei,sh2x_ei,sh2x_1_eishei.wav,sh2x_1_eishei.wav,,TRUE,FALSE,,,,,,,,,,,,,,f,0.2505,space,0.684,,,,,,,,0,89,89,112,1,,
5ef0a10e3867d33b6bb063bc,2023-06-16_10h25.06.017,phx_ver10,2022.2.5,Win32,59.61251863,,,,,,,,,,,,50,testing_3,zh2j,a,zh2j_a,zh2j_8_aja.wav,zh2j_8_aja.wav,,TRUE,FALSE,,,,,,,,,,,,,,f,0.4838,space,0.8347,,,,,,,,0,90,90,49,1,,
5ef0a10e3867d33b6bb063bc,2023-06-16_10h25.06.017,phx_ver10,2022.2.5,Win32,59.61251863,,,,,,,,,,,,16,testing_2,zh2x,ai,zh2x_ai,zh2x_8_aixai.wav,zh2x_1_aizhai.wav,,FALSE,FALSE,,,,,,,,,,,,,,j,0.3671,space,0.8519,,,,,,,,0,91,91,15,1,,
5ef0a10e3867d33b6bb063bc,2023-06-16_10h25.06.017,phx_ver10,2022.2.5,Win32,59.61251863,,,,,,,,,,,,106,testing_3,sh2x,au,sh2x_au,sh2x_8_auxau.wav,sh2x_8_auxau.wav,,TRUE,FALSE,,,,,,,,,,,,,,f,0.1507,space,0.6676,,,,,,,,0,92,92,105,1,,
5ef0a10e3867d33b6bb063bc,2023-06-16_10h25.06.017,phx_ver10,2022.2.5,Win32,59.61251863,,,,,,,,,,,,88,testing_3,j2x,e,j2x_e,j2x_8_exe.wav,j2x_1_eje.wav,,FALSE,FALSE,,,,,,,,,,,,,,j,0.4019,space,0.7849,,,,,,,,0,93,93,87,1,,
5ef0a10e3867d33b6bb063bc,2023-06-16_10h25.06.017,phx_ver10,2022.2.5,Win32,59.61251863,,,,,,,,,,,,10,testing_1,zh2x,i,zh2x_i,zh2x_8_ixi.wav,zh2x_8_ixi_copy.wav,,TRUE,TRUE,,,,,,,,,,,,,,f,0.2508,space,0.6847,,,,,,,,0,94,94,9,1,,
5ef0a10e3867d33b6bb063bc,2023-06-16_10h25.06.017,phx_ver10,2022.2.5,Win32,59.61251863,,,,,,,,,,,,76,testing_3,j2x,a,j2x_a,j2x_8_axa.wav,j2x_1_aja.wav,,FALSE,FALSE,,,,,,,,,,,,,,j,0.1336,space,0.6342,,,,,,,,0,95,95,75,1,,
5ef0a10e3867d33b6bb063bc,2023-06-16_10h25.06.017,phx_ver10,2022.2.5,Win32,59.61251863,,,,,,,,,,,,123,testing_3,sh2j,a,sh2j_a,sh2j_1_asha.wav,sh2j_8_aja.wav,,FALSE,FALSE,,,,,,,,,,,,,,j,0.0502,space,0.4846,,,,,,,,0,96,96,122,1,,
5ef0a10e3867d33b6bb063bc,2023-06-16_10h25.06.017,phx_ver10,2022.2.5,Win32,59.61251863,,,,,,,,,,,,82,testing_3,j2x,au,j2x_au,j2x_8_auxau.wav,j2x_8_auxau.wav,,TRUE,FALSE,,,,,,,,,,,,,,f,0.3507,space,0.7179,,,,,,,,0,97,97,81,1,,
5ef0a10e3867d33b6bb063bc,2023-06-16_10h25.06.017,phx_ver10,2022.2.5,Win32,59.61251863,,,,,,,,,,,,65,testing_3,zh2j,ei,zh2j_ei,zh2j_1_eizhei.wav,zh2j_1_eizhei.wav,,TRUE,FALSE,,,,,,,,,,,,,,f,0.1008,space,0.5675,,,,,,,,0,98,98,64,1,,
5ef0a10e3867d33b6bb063bc,2023-06-16_10h25.06.017,phx_ver10,2022.2.5,Win32,59.61251863,,,,,,,,,,,,79,testing_3,j2x,ai,j2x_ai,j2x_1_aijai.wav,j2x_8_aixai.wav,,FALSE,FALSE,,,,,,,,,,,,,,j,0.1839,space,0.6016,,,,,,,,0,99,99,78,1,,
5ef0a10e3867d33b6bb063bc,2023-06-16_10h25.06.017,phx_ver10,2022.2.5,Win32,59.61251863,,,,,,,,,,,,137,testing_3,sh2j,ei,sh2j_ei,sh2j_1_eishei.wav,sh2j_1_eishei.wav,,TRUE,FALSE,,,,,,,,,,,,,,f,0.0671,space,0.4844,,,,,,,,0,100,100,136,1,,
5ef0a10e3867d33b6bb063bc,2023-06-16_10h25.06.017,phx_ver10,2022.2.5,Win32,59.61251863,,,,,,,,,,,,6,testing_1,zh2x,e,zh2x_e,zh2x_8_exe.wav,zh2x_8_exe_copy.wav,,TRUE,TRUE,,,,,,,,,,,,,,f,0.1514,space,0.5843,,,,,,,,0,101,101,5,1,,
5ef0a10e3867d33b6bb063bc,2023-06-16_10h25.06.017,phx_ver10,2022.2.5,Win32,59.61251863,,,,,,,,,,,,122,testing_3,sh2j,a,sh2j_a,sh2j_8_aja.wav,sh2j_8_aja.wav,,TRUE,FALSE,,,,,,,,,,,,,,f,0.401,space,0.7685,,,,,,,,0,102,102,121,1,,
5ef0a10e3867d33b6bb063bc,2023-06-16_10h25.06.017,phx_ver10,2022.2.5,Win32,59.61251863,,,,,,,,,,,,4,testing_1,zh2x,a,zh2x_a,zh2x_8_axa.wav,zh2x_1_azha.wav,,FALSE,TRUE,,,,,,,,,,,,,,j,0.2017,space,0.6169,,,,,,,,0,103,103,3,1,,
5ef0a10e3867d33b6bb063bc,2023-06-16_10h25.06.017,phx_ver10,2022.2.5,Win32,59.61251863,,,,,,,,,,,,63,testing_3,zh2j,e,zh2j_e,zh2j_1_ezhe.wav,zh2j_8_eje.wav,,FALSE,FALSE,,,,,,,,,,,,,,f,0.0841,space,0.5181,,,,,,,,0,104,104,62,1,,
5ef0a10e3867d33b6bb063bc,2023-06-16_10h25.06.017,phx_ver10,2022.2.5,Win32,59.61251863,,,,,,,,,,,,12,testing_1,zh2x,i,zh2x_i,zh2x_8_ixi.wav,zh2x_1_izhi.wav,,FALSE,TRUE,,,,,,,,,,,,,,j,0.2351,space,0.685,,,,,,,,0,105,105,11,1,,
5ef0a10e3867d33b6bb063bc,2023-06-16_10h25.06.017,phx_ver10,2022.2.5,Win32,59.61251863,,,,,,,,,,,,98,testing_3,sh2x,a,sh2x_a,sh2x_8_axa.wav,sh2x_8_axa.wav,,TRUE,FALSE,,,,,,,,,,,,,,f,0.1007,space,0.4677,,,,,,,,0,106,106,97,1,,
5ef0a10e3867d33b6bb063bc,2023-06-16_10h25.06.017,phx_ver10,2022.2.5,Win32,59.61251863,,,,,,,,,,,,133,testing_3,sh2j,e,sh2j_e,sh2j_1_eshe.wav,sh2j_1_eshe.wav,,TRUE,FALSE,,,,,,,,,,,,,,f,0.1835,space,0.6007,,,,,,,,0,107,107,132,1,,
5ef0a10e3867d33b6bb063bc,2023-06-16_10h25.06.017,phx_ver10,2022.2.5,Win32,59.61251863,,,,,,,,,,,,105,testing_3,sh2x,au,sh2x_au,sh2x_1_aushau.wav,sh2x_1_aushau.wav,,TRUE,FALSE,,,,,,,,,,,,,,f,0.1506,space,0.5674,,,,,,,,0,108,108,104,1,,
5ef0a10e3867d33b6bb063bc,2023-06-16_10h25.06.017,phx_ver10,2022.2.5,Win32,59.61251863,,,,,,,,,,,,95,testing_3,j2x,i,j2x_i,j2x_1_iji.wav,j2x_8_ixi.wav,,FALSE,FALSE,,,,,,,,,,,,,,j,0.084,space,0.4846,,,,,,,,0,109,109,94,1,,
5ef0a10e3867d33b6bb063bc,2023-06-16_10h25.06.017,phx_ver10,2022.2.5,Win32,59.61251863,,,,,,,,,,,,78,testing_3,j2x,ai,j2x_ai,j2x_8_aixai.wav,j2x_8_aixai.wav,,TRUE,FALSE,,,,,,,,,,,,,,f,0.1846,space,0.7018,,,,,,,,0,110,110,77,1,,
5ef0a10e3867d33b6bb063bc,2023-06-16_10h25.06.017,phx_ver10,2022.2.5,Win32,59.61251863,,,,,,,,,,,,60,testing_3,zh2j,au,zh2j_au,zh2j_8_aujau.wav,zh2j_1_auzhau.wav,,FALSE,FALSE,,,,,,,,,,,,,,f,0.4011,space,0.7683,,,,,,,,0,111,111,59,1,,
5ef0a10e3867d33b6bb063bc,2023-06-16_10h25.06.017,phx_ver10,2022.2.5,Win32,59.61251863,,,,,,,,,,,,134,testing_3,sh2j,e,sh2j_e,sh2j_8_eje.wav,sh2j_8_eje.wav,,TRUE,FALSE,,,,,,,,,,,,,,f,0.2674,space,0.7017,,,,,,,,0,112,112,133,1,,
5ef0a10e3867d33b6bb063bc,2023-06-16_10h25.06.017,phx_ver10,2022.2.5,Win32,59.61251863,,,,,,,,,,,,24,testing_2,zh2x,ei,zh2x_ei,zh2x_8_eixei.wav,zh2x_1_eizhei.wav,,FALSE,FALSE,,,,,,,,,,,,,,j,0.1181,space,0.5681,,,,,,,,0,113,113,23,1,,
5ef0a10e3867d33b6bb063bc,2023-06-16_10h25.06.017,phx_ver10,2022.2.5,Win32,59.61251863,,,,,,,,,,,,90,testing_3,j2x,ei,j2x_ei,j2x_8_eixei.wav,j2x_8_eixei.wav,,TRUE,FALSE,,,,,,,,,,,,,,f,0.0674,space,0.5176,,,,,,,,0,114,114,89,1,,
5ef0a10e3867d33b6bb063bc,2023-06-16_10h25.06.017,phx_ver10,2022.2.5,Win32,59.61251863,,,,,,,,,,,,35,testing_3,zh2sh,au,zh2sh_au,zh2sh_1_auzhau.wav,zh2sh_8_aushau.wav,,FALSE,FALSE,,,,,,,,,,,,,,j,0.2174,space,0.6183,,,,,,,,0,115,115,34,1,,
5ef0a10e3867d33b6bb063bc,2023-06-16_10h25.06.017,phx_ver10,2022.2.5,Win32,59.61251863,,,,,,,,,,,,41,testing_3,zh2sh,ei,zh2sh_ei,zh2sh_1_eizhei.wav,zh2sh_1_eizhei.wav,,TRUE,FALSE,,,,,,,,,,,,,,f,0.4175,space,0.7511,,,,,,,,0,116,116,40,1,,
5ef0a10e3867d33b6bb063bc,2023-06-16_10h25.06.017,phx_ver10,2022.2.5,Win32,59.61251863,,,,,,,,,,,,74,testing_3,j2x,a,j2x_a,j2x_8_axa.wav,j2x_8_axa.wav,,TRUE,FALSE,,,,,,,,,,,,,,f,0.3509,space,0.7349,,,,,,,,0,117,117,73,1,,
5ef0a10e3867d33b6bb063bc,2023-06-16_10h25.06.017,phx_ver10,2022.2.5,Win32,59.61251863,,,,,,,,,,,,15,testing_2,zh2x,ai,zh2x_ai,zh2x_1_aizhai.wav,zh2x_8_aixai.wav,,FALSE,FALSE,,,,,,,,,,,,,,j,0.2183,space,0.6188,,,,,,,,0,118,118,14,1,,
5ef0a10e3867d33b6bb063bc,2023-06-16_10h25.06.017,phx_ver10,2022.2.5,Win32,59.61251863,,,,,,,,,,,,51,testing_3,zh2j,a,zh2j_a,zh2j_1_azha.wav,zh2j_8_aja.wav,,FALSE,FALSE,,,,,,,,,,,,,,f,0.2342,space,0.6344,,,,,,,,0,119,119,50,1,,
5ef0a10e3867d33b6bb063bc,2023-06-16_10h25.06.017,phx_ver10,2022.2.5,Win32,59.61251863,,,,,,,,,,,,23,testing_2,zh2x,ei,zh2x_ei,zh2x_1_eizhei.wav,zh2x_8_eixei.wav,,FALSE,FALSE,,,,,,,,,,,,,,j,0.1671,space,0.8007,,,,,,,,0,120,120,22,1,,
5ef0a10e3867d33b6bb063bc,2023-06-16_10h25.06.017,phx_ver10,2022.2.5,Win32,59.61251863,,,,,,,,,,,,116,testing_3,sh2x,ei,sh2x_ei,sh2x_8_eixei.wav,sh2x_1_eishei.wav,,FALSE,FALSE,,,,,,,,,,,,,,j,0.101,space,0.5178,,,,,,,,0,121,121,115,1,,
5ef0a10e3867d33b6bb063bc,2023-06-16_10h25.06.017,phx_ver10,2022.2.5,Win32,59.61251863,,,,,,,,,,,,20,testing_2,zh2x,au,zh2x_au,zh2x_8_auxau.wav,zh2x_1_auzhau.wav,,FALSE,FALSE,,,,,,,,,,,,,,j,0.1181,space,0.4847,,,,,,,,0,122,122,19,1,,
5ef0a10e3867d33b6bb063bc,2023-06-16_10h25.06.017,phx_ver10,2022.2.5,Win32,59.61251863,,,,,,,,,,,,109,testing_3,sh2x,e,sh2x_e,sh2x_1_eshe.wav,sh2x_1_eshe.wav,,TRUE,FALSE,,,,,,,,,,,,,,f,0.1012,space,0.5012,,,,,,,,0,123,123,108,1,,
5ef0a10e3867d33b6bb063bc,2023-06-16_10h25.06.017,phx_ver10,2022.2.5,Win32,59.61251863,,,,,,,,,,,,14,testing_2,zh2x,ai,zh2x_ai,zh2x_8_aixai.wav,zh2x_8_aixai.wav,,TRUE,FALSE,,,,,,,,,,,,,,f,0.2513,space,0.7518,,,,,,,,0,124,124,13,1,,
5ef0a10e3867d33b6bb063bc,2023-06-16_10h25.06.017,phx_ver10,2022.2.5,Win32,59.61251863,,,,,,,,,,,,31,testing_3,zh2sh,ai,zh2sh_ai,zh2sh_1_aizhai.wav,zh2sh_8_aishai.wav,,FALSE,FALSE,,,,,,,,,,,,,,j,0.0173,space,0.4841,,,,,,,,0,125,125,30,1,,
5ef0a10e3867d33b6bb063bc,2023-06-16_10h25.06.017,phx_ver10,2022.2.5,Win32,59.61251863,,,,,,,,,,,,36,testing_3,zh2sh,au,zh2sh_au,zh2sh_8_aushau.wav,zh2sh_1_auzhau.wav,,FALSE,FALSE,,,,,,,,,,,,,,j,0.7859,space,1.1855,,,,,,,,0,126,126,35,1,,
5ef0a10e3867d33b6bb063bc,2023-06-16_10h25.06.017,phx_ver10,2022.2.5,Win32,59.61251863,,,,,,,,,,,,125,testing_3,sh2j,ai,sh2j_ai,sh2j_1_aishai.wav,sh2j_1_aishai.wav,,TRUE,FALSE,,,,,,,,,,,,,,f,0.0008,space,0.4011,,,,,,,,0,127,127,124,1,,
5ef0a10e3867d33b6bb063bc,2023-06-16_10h25.06.017,phx_ver10,2022.2.5,Win32,59.61251863,,,,,,,,,,,,139,testing_3,sh2j,ei,sh2j_ei,sh2j_1_eishei.wav,sh2j_8_eijei.wav,,FALSE,FALSE,,,,,,,,,,,,,,j,0.4339,space,0.7839,,,,,,,,0,128,128,138,1,,
5ef0a10e3867d33b6bb063bc,2023-06-16_10h25.06.017,phx_ver10,2022.2.5,Win32,59.61251863,,,,,,,,,,,,111,testing_3,sh2x,e,sh2x_e,sh2x_1_eshe.wav,sh2x_8_exe.wav,,FALSE,FALSE,,,,,,,,,,,,,,j,0.0676,space,0.4675,,,,,,,,0,129,129,110,1,,
5ef0a10e3867d33b6bb063bc,2023-06-16_10h25.06.017,phx_ver10,2022.2.5,Win32,59.61251863,,,,,,,,,,,,142,testing_3,sh2j,i,sh2j_i,sh2j_8_iji.wav,sh2j_8_iji.wav,,TRUE,FALSE,,,,,,,,,,,,,,f,0.5677,space,0.9345,,,,,,,,0,130,130,141,1,,
5ef0a10e3867d33b6bb063bc,2023-06-16_10h25.06.017,phx_ver10,2022.2.5,Win32,59.61251863,,,,,,,,,,,,58,testing_3,zh2j,au,zh2j_au,zh2j_8_aujau.wav,zh2j_8_aujau.wav,,TRUE,FALSE,,,,,,,,,,,,,,f,0.0168,space,0.4005,,,,,,,,0,131,131,57,1,,
5ef0a10e3867d33b6bb063bc,2023-06-16_10h25.06.017,phx_ver10,2022.2.5,Win32,59.61251863,,,,,,,,,,,,9,testing_1,zh2x,i,zh2x_i,zh2x_1_izhi.wav,zh2x_1_izhi_copy.wav,,TRUE,TRUE,,,,,,,,,,,,,,f,0.0792,space,0.4623,,,,,,,,0,132,132,8,1,,
5ef0a10e3867d33b6bb063bc,2023-06-16_10h25.06.017,phx_ver10,2022.2.5,Win32,59.61251863,,,,,,,,,,,,7,testing_1,zh2x,e,zh2x_e,zh2x_1_ezhe.wav,zh2x_8_exe.wav,,FALSE,TRUE,,,,,,,,,,,,,,j,0.2842,space,0.6511,,,,,,,,0,133,133,6,1,,
5ef0a10e3867d33b6bb063bc,2023-06-16_10h25.06.017,phx_ver10,2022.2.5,Win32,59.61251863,,,,,,,,,,,,102,testing_3,sh2x,ai,sh2x_ai,sh2x_8_aixai.wav,sh2x_8_aixai.wav,,TRUE,FALSE,,,,,,,,,,,,,,f,0.3176,space,0.6849,,,,,,,,0,134,134,101,1,,
5ef0a10e3867d33b6bb063bc,2023-06-16_10h25.06.017,phx_ver10,2022.2.5,Win32,59.61251863,,,,,,,,,,,,128,testing_3,sh2j,ai,sh2j_ai,sh2j_8_aijai.wav,sh2j_1_aishai.wav,,FALSE,FALSE,,,,,,,,,,,,,,j,0.2678,space,0.7012,,,,,,,,0,135,135,127,1,,
5ef0a10e3867d33b6bb063bc,2023-06-16_10h25.06.017,phx_ver10,2022.2.5,Win32,59.61251863,,,,,,,,,,,,92,testing_3,j2x,ei,j2x_ei,j2x_8_eixei.wav,j2x_1_eijei.wav,,FALSE,FALSE,,,,,,,,,,,,,,j,0.4172,space,0.7845,,,,,,,,0,136,136,91,1,,
5ef0a10e3867d33b6bb063bc,2023-06-16_10h25.06.017,phx_ver10,2022.2.5,Win32,59.61251863,,,,,,,,,,,,108,testing_3,sh2x,au,sh2x_au,sh2x_8_auxau.wav,sh2x_1_aushau.wav,,FALSE,FALSE,,,,,,,,,,,,,,j,0.1839,space,0.6178,,,,,,,,0,137,137,107,1,,
5ef0a10e3867d33b6bb063bc,2023-06-16_10h25.06.017,phx_ver10,2022.2.5,Win32,59.61251863,,,,,,,,,,,,129,testing_3,sh2j,au,sh2j_au,sh2j_1_aushau.wav,sh2j_1_aushau.wav,,TRUE,FALSE,,,,,,,,,,,,,,f,0.0007,space,0.4849,,,,,,,,0,138,138,128,1,,
5ef0a10e3867d33b6bb063bc,2023-06-16_10h25.06.017,phx_ver10,2022.2.5,Win32,59.61251863,,,,,,,,,,,,84,testing_3,j2x,au,j2x_au,j2x_8_auxau.wav,j2x_1_aujau.wav,,FALSE,FALSE,,,,,,,,,,,,,,j,0.1675,space,0.5854,,,,,,,,0,139,139,83,1,,
5ef0a10e3867d33b6bb063bc,2023-06-16_10h25.06.017,phx_ver10,2022.2.5,Win32,59.61251863,,,,,,,,,,,,18,testing_2,zh2x,au,zh2x_au,zh2x_8_auxau.wav,zh2x_8_auxau.wav,,TRUE,FALSE,,,,,,,,,,,,,,f,0.4179,space,1.0347,,,,,,,,0,140,140,17,1,,
5ef0a10e3867d33b6bb063bc,2023-06-16_10h25.06.017,phx_ver10,2022.2.5,Win32,59.61251863,,,,,,,,,,,,39,testing_3,zh2sh,e,zh2sh_e,zh2sh_1_ezhe.wav,zh2sh_8_eshe.wav,,FALSE,FALSE,,,,,,,,,,,,,,j,0.4679,space,0.9018,,,,,,,,0,141,141,38,1,,
5ef0a10e3867d33b6bb063bc,2023-06-16_10h25.06.017,phx_ver10,2022.2.5,Win32,59.61251863,,,,,,,,,,,,45,testing_3,zh2sh,i,zh2sh_i,zh2sh_1_izhi.wav,zh2sh_1_izhi.wav,,TRUE,FALSE,,,,,,,,,,,,,,f,0.018,space,0.5016,,,,,,,,0,142,142,44,1,,
5ef0a10e3867d33b6bb063bc,2023-06-16_10h25.06.017,phx_ver10,2022.2.5,Win32,59.61251863,,,,,,,,,,,,124,testing_3,sh2j,a,sh2j_a,sh2j_8_aja.wav,sh2j_1_asha.wav,,FALSE,FALSE,,,,,,,,,,,,,,j,0.1507,space,0.5676,,,,,,,,0,143,143,123,1,,
5ef0a10e3867d33b6bb063bc,2023-06-16_10h25.06.017,phx_ver10,2022.2.5,Win32,59.61251863,,,,,,,,,,,,,,,,,,,,,,,,,,,,,,,,,,,,,,,,,,,,,,,,,,,space,2.1862
