participant,date,expName,psychopyVersion,OS,frameRate,space_1.keys,space_1.rt,space_2.keys,space_2.rt,space_train.keys,space_train.rt,training.thisRepN,training.thisTrialN,training.thisN,training.thisIndex,training.ran,token_id,task,continuum,vowel,series,sound_1,sound_2,img,same,trained,FJ_attn.keys,FJ_attn.rt,space_attn.keys,space_attn.rt,if_attn_test.thisRepN,if_attn_test.thisTrialN,if_attn_test.thisN,if_attn_test.thisIndex,if_attn_test.ran,space_trans_1.keys,space_trans_1.rt,space_trans_11.keys,space_trans_11.rt,FJ_test.keys,FJ_test.rt,space_test.keys,space_test.rt,testing_pre.thisRepN,testing_pre.thisTrialN,testing_pre.thisN,testing_pre.thisIndex,testing_pre.ran,space_trans_2.keys,space_trans_2.rt,testing_all.thisRepN,testing_all.thisTrialN,testing_all.thisN,testing_all.thisIndex,testing_all.ran,space_ending.keys,space_ending.rt
5f61ba7cfdaccd165da6985b,2023-06-16_21h11.25.682,phx_ver10,2022.2.5,Win32,142.7347987,,,,,,,,,,,,,,,,,,,,,,,,,,,,,,,,,,,,,,,,,,,,,,,,,,,,
5f61ba7cfdaccd165da6985b,2023-06-16_21h11.25.682,phx_ver10,2022.2.5,Win32,142.7347987,space,2.2427,,,,,,,,,,,,,,,,,,,,,,,,,,,,,,,,,,,,,,,,,,,,,,,,,,
5f61ba7cfdaccd165da6985b,2023-06-16_21h11.25.682,phx_ver10,2022.2.5,Win32,142.7347987,,,space,165.2915,,,,,,,,,,,,,,,,,,,,,,,,,,,,,,,,,,,,,,,,,,,,,,,,
5f61ba7cfdaccd165da6985b,2023-06-16_21h11.25.682,phx_ver10,2022.2.5,Win32,142.7347987,,,,,space,2.3137,0,0,0,34,1,35,training,zh2x,i,zh2x_i,zh2x_2_izhi.wav,,izhi.jpg,,,,,,,,,,,,,,,,,,,,,,,,,,,,,,,,,
5f61ba7cfdaccd165da6985b,2023-06-16_21h11.25.682,phx_ver10,2022.2.5,Win32,142.7347987,,,,,space,1.1347,0,1,1,25,1,26,training,zh2x,e,zh2x_e,zh2x_6_exe.wav,,exe.jpg,,,,,,,,,,,,,,,,,,,,,,,,,,,,,,,,,
5f61ba7cfdaccd165da6985b,2023-06-16_21h11.25.682,phx_ver10,2022.2.5,Win32,142.7347987,,,,,space,0.5564,0,2,2,36,1,37,training,zh2x,i,zh2x_i,zh2x_2_izhi.wav,,izhi.jpg,,,,,,,,,,,,,,,,,,,,,,,,,,,,,,,,,
5f61ba7cfdaccd165da6985b,2023-06-16_21h11.25.682,phx_ver10,2022.2.5,Win32,142.7347987,,,,,space,0.7571,0,3,3,17,1,18,training,zh2x,e,zh2x_e,zh2x_2_ezhe.wav,,ezhe.jpg,,,,,,,,,,,,,,,,,,,,,,,,,,,,,,,,,
5f61ba7cfdaccd165da6985b,2023-06-16_21h11.25.682,phx_ver10,2022.2.5,Win32,142.7347987,,,,,space,0.516,0,4,4,42,1,43,training,zh2x,i,zh2x_i,zh2x_6_ixi.wav,,ixi.jpg,,,,,,,,,,,,,,,,,,,,,,,,,,,,,,,,,
5f61ba7cfdaccd165da6985b,2023-06-16_21h11.25.682,phx_ver10,2022.2.5,Win32,142.7347987,,,,,space,0.3159,0,5,5,16,1,17,training,zh2x,e,zh2x_e,zh2x_1_ezhe.wav,,ezhe.jpg,,,,,,,,,,,,,,,,,,,,,,,,,,,,,,,,,
5f61ba7cfdaccd165da6985b,2023-06-16_21h11.25.682,phx_ver10,2022.2.5,Win32,142.7347987,,,,,,,,,,,,,attn_test,,,,zh2x_8_ixi.wav,zh2x_1_ezhe.wav,ezhe.jpg,RIGHT,,j,0.26,space,1.2884,0,0,0,0,1,,,,,,,,,,,,,,,,,,,,,,
5f61ba7cfdaccd165da6985b,2023-06-16_21h11.25.682,phx_ver10,2022.2.5,Win32,142.7347987,,,,,space,0.6532,0,6,6,27,1,28,training,zh2x,e,zh2x_e,zh2x_7_exe.wav,,exe.jpg,,,,,,,,,,,,,,,,,,,,,,,,,,,,,,,,,
5f61ba7cfdaccd165da6985b,2023-06-16_21h11.25.682,phx_ver10,2022.2.5,Win32,142.7347987,,,,,space,0.5712,0,7,7,35,1,36,training,zh2x,i,zh2x_i,zh2x_2_izhi.wav,,izhi.jpg,,,,,,,,,,,,,,,,,,,,,,,,,,,,,,,,,
5f61ba7cfdaccd165da6985b,2023-06-16_21h11.25.682,phx_ver10,2022.2.5,Win32,142.7347987,,,,,space,0.3573,0,8,8,3,1,4,training,zh2x,a,zh2x_a,zh2x_2_azha.wav,,azha.jpg,,,,,,,,,,,,,,,,,,,,,,,,,,,,,,,,,
5f61ba7cfdaccd165da6985b,2023-06-16_21h11.25.682,phx_ver10,2022.2.5,Win32,142.7347987,,,,,space,0.1398,0,9,9,43,1,44,training,zh2x,i,zh2x_i,zh2x_7_ixi.wav,,ixi.jpg,,,,,,,,,,,,,,,,,,,,,,,,,,,,,,,,,
5f61ba7cfdaccd165da6985b,2023-06-16_21h11.25.682,phx_ver10,2022.2.5,Win32,142.7347987,,,,,space,0.5001,0,10,10,46,1,47,training,zh2x,i,zh2x_i,zh2x_7_ixi.wav,,ixi.jpg,,,,,,,,,,,,,,,,,,,,,,,,,,,,,,,,,
5f61ba7cfdaccd165da6985b,2023-06-16_21h11.25.682,phx_ver10,2022.2.5,Win32,142.7347987,,,,,space,0.2373,0,11,11,38,1,39,training,zh2x,i,zh2x_i,zh2x_3_izhi.wav,,izhi.jpg,,,,,,,,,,,,,,,,,,,,,,,,,,,,,,,,,
5f61ba7cfdaccd165da6985b,2023-06-16_21h11.25.682,phx_ver10,2022.2.5,Win32,142.7347987,,,,,,,,,,,,,attn_test,,,,zh2x_8_exe.wav,zh2x_1_azha.wav,exe.jpg,LEFT,,f,3.2575,space,3.6675,0,0,0,0,1,,,,,,,,,,,,,,,,,,,,,,
5f61ba7cfdaccd165da6985b,2023-06-16_21h11.25.682,phx_ver10,2022.2.5,Win32,142.7347987,,,,,space,0.5381,0,12,12,37,1,38,training,zh2x,i,zh2x_i,zh2x_3_izhi.wav,,izhi.jpg,,,,,,,,,,,,,,,,,,,,,,,,,,,,,,,,,
5f61ba7cfdaccd165da6985b,2023-06-16_21h11.25.682,phx_ver10,2022.2.5,Win32,142.7347987,,,,,space,0.4597,0,13,13,10,1,11,training,zh2x,a,zh2x_a,zh2x_6_axa.wav,,axa.jpg,,,,,,,,,,,,,,,,,,,,,,,,,,,,,,,,,
5f61ba7cfdaccd165da6985b,2023-06-16_21h11.25.682,phx_ver10,2022.2.5,Win32,142.7347987,,,,,space,0.1131,0,14,14,24,1,25,training,zh2x,e,zh2x_e,zh2x_5_exe.wav,,exe.jpg,,,,,,,,,,,,,,,,,,,,,,,,,,,,,,,,,
5f61ba7cfdaccd165da6985b,2023-06-16_21h11.25.682,phx_ver10,2022.2.5,Win32,142.7347987,,,,,space,0.0835,0,15,15,15,1,16,training,zh2x,a,zh2x_a,zh2x_8_axa.wav,,axa.jpg,,,,,,,,,,,,,,,,,,,,,,,,,,,,,,,,,
5f61ba7cfdaccd165da6985b,2023-06-16_21h11.25.682,phx_ver10,2022.2.5,Win32,142.7347987,,,,,space,0.3334,0,16,16,9,1,10,training,zh2x,a,zh2x_a,zh2x_6_axa.wav,,axa.jpg,,,,,,,,,,,,,,,,,,,,,,,,,,,,,,,,,
5f61ba7cfdaccd165da6985b,2023-06-16_21h11.25.682,phx_ver10,2022.2.5,Win32,142.7347987,,,,,space,0.2606,0,17,17,44,1,45,training,zh2x,i,zh2x_i,zh2x_7_ixi.wav,,ixi.jpg,,,,,,,,,,,,,,,,,,,,,,,,,,,,,,,,,
5f61ba7cfdaccd165da6985b,2023-06-16_21h11.25.682,phx_ver10,2022.2.5,Win32,142.7347987,,,,,,,,,,,,,attn_test,,,,zh2x_1_azha.wav,zh2x_8_axa.wav,axa.jpg,RIGHT,,f,4.5854,space,5.2438,0,0,0,0,1,,,,,,,,,,,,,,,,,,,,,,
5f61ba7cfdaccd165da6985b,2023-06-16_21h11.25.682,phx_ver10,2022.2.5,Win32,142.7347987,,,,,space,0.6526,0,18,18,11,1,12,training,zh2x,a,zh2x_a,zh2x_7_axa.wav,,axa.jpg,,,,,,,,,,,,,,,,,,,,,,,,,,,,,,,,,
5f61ba7cfdaccd165da6985b,2023-06-16_21h11.25.682,phx_ver10,2022.2.5,Win32,142.7347987,,,,,space,0.388,0,19,19,1,1,2,training,zh2x,a,zh2x_a,zh2x_2_azha.wav,,azha.jpg,,,,,,,,,,,,,,,,,,,,,,,,,,,,,,,,,
5f61ba7cfdaccd165da6985b,2023-06-16_21h11.25.682,phx_ver10,2022.2.5,Win32,142.7347987,,,,,space,0.3144,0,20,20,4,1,5,training,zh2x,a,zh2x_a,zh2x_2_azha.wav,,azha.jpg,,,,,,,,,,,,,,,,,,,,,,,,,,,,,,,,,
5f61ba7cfdaccd165da6985b,2023-06-16_21h11.25.682,phx_ver10,2022.2.5,Win32,142.7347987,,,,,space,0.2747,0,21,21,32,1,33,training,zh2x,i,zh2x_i,zh2x_1_izhi.wav,,izhi.jpg,,,,,,,,,,,,,,,,,,,,,,,,,,,,,,,,,
5f61ba7cfdaccd165da6985b,2023-06-16_21h11.25.682,phx_ver10,2022.2.5,Win32,142.7347987,,,,,space,0.2571,0,22,22,40,1,41,training,zh2x,i,zh2x_i,zh2x_5_ixi.wav,,ixi.jpg,,,,,,,,,,,,,,,,,,,,,,,,,,,,,,,,,
5f61ba7cfdaccd165da6985b,2023-06-16_21h11.25.682,phx_ver10,2022.2.5,Win32,142.7347987,,,,,space,0.1978,0,23,23,28,1,29,training,zh2x,e,zh2x_e,zh2x_7_exe.wav,,exe.jpg,,,,,,,,,,,,,,,,,,,,,,,,,,,,,,,,,
5f61ba7cfdaccd165da6985b,2023-06-16_21h11.25.682,phx_ver10,2022.2.5,Win32,142.7347987,,,,,,,,,,,,,attn_test,,,,zh2x_1_azha.wav,zh2x_8_axa.wav,axa.jpg,RIGHT,,f,1.6017,space,2.4964,0,0,0,0,1,,,,,,,,,,,,,,,,,,,,,,
5f61ba7cfdaccd165da6985b,2023-06-16_21h11.25.682,phx_ver10,2022.2.5,Win32,142.7347987,,,,,space,0.6571,0,24,24,20,1,21,training,zh2x,e,zh2x_e,zh2x_2_ezhe.wav,,ezhe.jpg,,,,,,,,,,,,,,,,,,,,,,,,,,,,,,,,,
5f61ba7cfdaccd165da6985b,2023-06-16_21h11.25.682,phx_ver10,2022.2.5,Win32,142.7347987,,,,,space,0.242,0,25,25,7,1,8,training,zh2x,a,zh2x_a,zh2x_4_azha.wav,,azha.jpg,,,,,,,,,,,,,,,,,,,,,,,,,,,,,,,,,
5f61ba7cfdaccd165da6985b,2023-06-16_21h11.25.682,phx_ver10,2022.2.5,Win32,142.7347987,,,,,space,0.0804,0,26,26,21,1,22,training,zh2x,e,zh2x_e,zh2x_3_ezhe.wav,,ezhe.jpg,,,,,,,,,,,,,,,,,,,,,,,,,,,,,,,,,
5f61ba7cfdaccd165da6985b,2023-06-16_21h11.25.682,phx_ver10,2022.2.5,Win32,142.7347987,,,,,space,0.0738,0,27,27,45,1,46,training,zh2x,i,zh2x_i,zh2x_7_ixi.wav,,ixi.jpg,,,,,,,,,,,,,,,,,,,,,,,,,,,,,,,,,
5f61ba7cfdaccd165da6985b,2023-06-16_21h11.25.682,phx_ver10,2022.2.5,Win32,142.7347987,,,,,space,0.1737,0,28,28,6,1,7,training,zh2x,a,zh2x_a,zh2x_3_azha.wav,,azha.jpg,,,,,,,,,,,,,,,,,,,,,,,,,,,,,,,,,
5f61ba7cfdaccd165da6985b,2023-06-16_21h11.25.682,phx_ver10,2022.2.5,Win32,142.7347987,,,,,space,0.4149,0,29,29,19,1,20,training,zh2x,e,zh2x_e,zh2x_2_ezhe.wav,,ezhe.jpg,,,,,,,,,,,,,,,,,,,,,,,,,,,,,,,,,
5f61ba7cfdaccd165da6985b,2023-06-16_21h11.25.682,phx_ver10,2022.2.5,Win32,142.7347987,,,,,,,,,,,,,attn_test,,,,zh2x_8_axa.wav,zh2x_1_ezhe.wav,ezhe.jpg,RIGHT,,j,0.4045,space,1.4484,0,0,0,0,1,,,,,,,,,,,,,,,,,,,,,,
5f61ba7cfdaccd165da6985b,2023-06-16_21h11.25.682,phx_ver10,2022.2.5,Win32,142.7347987,,,,,space,0.5864,0,30,30,41,1,42,training,zh2x,i,zh2x_i,zh2x_6_ixi.wav,,ixi.jpg,,,,,,,,,,,,,,,,,,,,,,,,,,,,,,,,,
5f61ba7cfdaccd165da6985b,2023-06-16_21h11.25.682,phx_ver10,2022.2.5,Win32,142.7347987,,,,,space,0.2157,0,31,31,29,1,30,training,zh2x,e,zh2x_e,zh2x_7_exe.wav,,exe.jpg,,,,,,,,,,,,,,,,,,,,,,,,,,,,,,,,,
5f61ba7cfdaccd165da6985b,2023-06-16_21h11.25.682,phx_ver10,2022.2.5,Win32,142.7347987,,,,,space,0.0975,0,32,32,31,1,32,training,zh2x,e,zh2x_e,zh2x_8_exe.wav,,exe.jpg,,,,,,,,,,,,,,,,,,,,,,,,,,,,,,,,,
5f61ba7cfdaccd165da6985b,2023-06-16_21h11.25.682,phx_ver10,2022.2.5,Win32,142.7347987,,,,,space,0.2738,0,33,33,8,1,9,training,zh2x,a,zh2x_a,zh2x_5_axa.wav,,axa.jpg,,,,,,,,,,,,,,,,,,,,,,,,,,,,,,,,,
5f61ba7cfdaccd165da6985b,2023-06-16_21h11.25.682,phx_ver10,2022.2.5,Win32,142.7347987,,,,,space,0.1676,0,34,34,26,1,27,training,zh2x,e,zh2x_e,zh2x_6_exe.wav,,exe.jpg,,,,,,,,,,,,,,,,,,,,,,,,,,,,,,,,,
5f61ba7cfdaccd165da6985b,2023-06-16_21h11.25.682,phx_ver10,2022.2.5,Win32,142.7347987,,,,,space,0.1535,0,35,35,12,1,13,training,zh2x,a,zh2x_a,zh2x_7_axa.wav,,axa.jpg,,,,,,,,,,,,,,,,,,,,,,,,,,,,,,,,,
5f61ba7cfdaccd165da6985b,2023-06-16_21h11.25.682,phx_ver10,2022.2.5,Win32,142.7347987,,,,,,,,,,,,,attn_test,,,,zh2x_8_exe.wav,zh2x_8_axa.wav,exe.jpg,LEFT,,f,0.401,space,1.2362,0,0,0,0,1,,,,,,,,,,,,,,,,,,,,,,
5f61ba7cfdaccd165da6985b,2023-06-16_21h11.25.682,phx_ver10,2022.2.5,Win32,142.7347987,,,,,space,0.3133,0,36,36,22,1,23,training,zh2x,e,zh2x_e,zh2x_3_ezhe.wav,,ezhe.jpg,,,,,,,,,,,,,,,,,,,,,,,,,,,,,,,,,
5f61ba7cfdaccd165da6985b,2023-06-16_21h11.25.682,phx_ver10,2022.2.5,Win32,142.7347987,,,,,space,0.2445,0,37,37,33,1,34,training,zh2x,i,zh2x_i,zh2x_2_izhi.wav,,izhi.jpg,,,,,,,,,,,,,,,,,,,,,,,,,,,,,,,,,
5f61ba7cfdaccd165da6985b,2023-06-16_21h11.25.682,phx_ver10,2022.2.5,Win32,142.7347987,,,,,space,0.2132,0,38,38,14,1,15,training,zh2x,a,zh2x_a,zh2x_7_axa.wav,,axa.jpg,,,,,,,,,,,,,,,,,,,,,,,,,,,,,,,,,
5f61ba7cfdaccd165da6985b,2023-06-16_21h11.25.682,phx_ver10,2022.2.5,Win32,142.7347987,,,,,space,0.1142,0,39,39,18,1,19,training,zh2x,e,zh2x_e,zh2x_2_ezhe.wav,,ezhe.jpg,,,,,,,,,,,,,,,,,,,,,,,,,,,,,,,,,
5f61ba7cfdaccd165da6985b,2023-06-16_21h11.25.682,phx_ver10,2022.2.5,Win32,142.7347987,,,,,space,0.0283,0,40,40,5,1,6,training,zh2x,a,zh2x_a,zh2x_3_azha.wav,,azha.jpg,,,,,,,,,,,,,,,,,,,,,,,,,,,,,,,,,
5f61ba7cfdaccd165da6985b,2023-06-16_21h11.25.682,phx_ver10,2022.2.5,Win32,142.7347987,,,,,space,0.0549,0,41,41,39,1,40,training,zh2x,i,zh2x_i,zh2x_4_izhi.wav,,izhi.jpg,,,,,,,,,,,,,,,,,,,,,,,,,,,,,,,,,
5f61ba7cfdaccd165da6985b,2023-06-16_21h11.25.682,phx_ver10,2022.2.5,Win32,142.7347987,,,,,,,,,,,,,attn_test,,,,zh2x_1_izhi.wav,zh2x_8_ixi.wav,izhi.jpg,LEFT,,f,0.2316,space,1.188,0,0,0,0,1,,,,,,,,,,,,,,,,,,,,,,
5f61ba7cfdaccd165da6985b,2023-06-16_21h11.25.682,phx_ver10,2022.2.5,Win32,142.7347987,,,,,space,0.8369,0,42,42,0,1,1,training,zh2x,a,zh2x_a,zh2x_1_azha.wav,,azha.jpg,,,,,,,,,,,,,,,,,,,,,,,,,,,,,,,,,
5f61ba7cfdaccd165da6985b,2023-06-16_21h11.25.682,phx_ver10,2022.2.5,Win32,142.7347987,,,,,space,0.292,0,43,43,2,1,3,training,zh2x,a,zh2x_a,zh2x_2_azha.wav,,azha.jpg,,,,,,,,,,,,,,,,,,,,,,,,,,,,,,,,,
5f61ba7cfdaccd165da6985b,2023-06-16_21h11.25.682,phx_ver10,2022.2.5,Win32,142.7347987,,,,,space,0.0511,0,44,44,13,1,14,training,zh2x,a,zh2x_a,zh2x_7_axa.wav,,axa.jpg,,,,,,,,,,,,,,,,,,,,,,,,,,,,,,,,,
5f61ba7cfdaccd165da6985b,2023-06-16_21h11.25.682,phx_ver10,2022.2.5,Win32,142.7347987,,,,,space,0.1062,0,45,45,30,1,31,training,zh2x,e,zh2x_e,zh2x_7_exe.wav,,exe.jpg,,,,,,,,,,,,,,,,,,,,,,,,,,,,,,,,,
5f61ba7cfdaccd165da6985b,2023-06-16_21h11.25.682,phx_ver10,2022.2.5,Win32,142.7347987,,,,,space,0.3301,0,46,46,47,1,48,training,zh2x,i,zh2x_i,zh2x_8_ixi.wav,,ixi.jpg,,,,,,,,,,,,,,,,,,,,,,,,,,,,,,,,,
5f61ba7cfdaccd165da6985b,2023-06-16_21h11.25.682,phx_ver10,2022.2.5,Win32,142.7347987,,,,,space,0.134,0,47,47,23,1,24,training,zh2x,e,zh2x_e,zh2x_4_ezhe.wav,,ezhe.jpg,,,,,,,,,,,,,,,,,,,,,,,,,,,,,,,,,
5f61ba7cfdaccd165da6985b,2023-06-16_21h11.25.682,phx_ver10,2022.2.5,Win32,142.7347987,,,,,,,,,,,,,attn_test,,,,zh2x_8_axa.wav,zh2x_1_azha.wav,axa.jpg,LEFT,,j,0.761,space,1.3083,,,,,,,,,,,,,,,,,,,,,,,,,,,
5f61ba7cfdaccd165da6985b,2023-06-16_21h11.25.682,phx_ver10,2022.2.5,Win32,142.7347987,,,,,,,,,,,,,,,,,,,,,,,,,,,,,,,space,72.9964,,,,,,,,,,,,,,,,,,,,
5f61ba7cfdaccd165da6985b,2023-06-16_21h11.25.682,phx_ver10,2022.2.5,Win32,142.7347987,,,,,,,,,,,,,,,,,,,,,,,,,,,,,,,,,space,3.4081,,,,,,,,,,,,,,,,,,
5f61ba7cfdaccd165da6985b,2023-06-16_21h11.25.682,phx_ver10,2022.2.5,Win32,142.7347987,,,,,,,,,,,,1,testing_pre,,,,ifi.wav,ifi.wav,,TRUE,,,,,,,,,,,,,,,j,1.1676,space,1.9541,0,0,0,0,1,,,,,,,,,
5f61ba7cfdaccd165da6985b,2023-06-16_21h11.25.682,phx_ver10,2022.2.5,Win32,142.7347987,,,,,,,,,,,,2,testing_pre,,,,auhau.wav,aufau.wav,,FALSE,,,,,,,,,,,,,,,j,0.3847,space,0.7081,0,1,1,1,1,,,,,,,,,
5f61ba7cfdaccd165da6985b,2023-06-16_21h11.25.682,phx_ver10,2022.2.5,Win32,142.7347987,,,,,,,,,,,,3,testing_pre,,,,afa.wav,aha.wav,,FALSE,,,,,,,,,,,,,,,j,0.8681,space,2.0199,0,2,2,2,1,,,,,,,,,
5f61ba7cfdaccd165da6985b,2023-06-16_21h11.25.682,phx_ver10,2022.2.5,Win32,142.7347987,,,,,,,,,,,,5,testing_pre,,,,ihi.wav,ifi.wav,,FALSE,,,,,,,,,,,,,,,j,2.2318,space,2.5842,0,3,3,4,1,,,,,,,,,
5f61ba7cfdaccd165da6985b,2023-06-16_21h11.25.682,phx_ver10,2022.2.5,Win32,142.7347987,,,,,,,,,,,,4,testing_pre,,,,eihei.wav,eihei.wav,,TRUE,,,,,,,,,,,,,,,f,0.3346,space,0.8755,0,4,4,3,1,,,,,,,,,
5f61ba7cfdaccd165da6985b,2023-06-16_21h11.25.682,phx_ver10,2022.2.5,Win32,142.7347987,,,,,,,,,,,,,,,,,,,,,,,,,,,,,,,,,,,,,,,,,,,,space,0.5247,,,,,,,
5f61ba7cfdaccd165da6985b,2023-06-16_21h11.25.682,phx_ver10,2022.2.5,Win32,142.7347987,,,,,,,,,,,,124,testing_3,sh2j,a,sh2j_a,sh2j_8_aja.wav,sh2j_1_asha.wav,,FALSE,FALSE,,,,,,,,,,,,,,j,2.503,space,2.8974,,,,,,,,0,0,0,123,1,,
5f61ba7cfdaccd165da6985b,2023-06-16_21h11.25.682,phx_ver10,2022.2.5,Win32,142.7347987,,,,,,,,,,,,49,testing_3,zh2j,a,zh2j_a,zh2j_1_azha.wav,zh2j_1_azha.wav,,TRUE,FALSE,,,,,,,,,,,,,,f,0.3358,space,0.6676,,,,,,,,0,1,1,48,1,,
5f61ba7cfdaccd165da6985b,2023-06-16_21h11.25.682,phx_ver10,2022.2.5,Win32,142.7347987,,,,,,,,,,,,50,testing_3,zh2j,a,zh2j_a,zh2j_8_aja.wav,zh2j_8_aja.wav,,TRUE,FALSE,,,,,,,,,,,,,,f,0.3269,space,0.8685,,,,,,,,0,2,2,49,1,,
5f61ba7cfdaccd165da6985b,2023-06-16_21h11.25.682,phx_ver10,2022.2.5,Win32,142.7347987,,,,,,,,,,,,73,testing_3,j2x,a,j2x_a,j2x_1_aja.wav,j2x_1_aja.wav,,TRUE,FALSE,,,,,,,,,,,,,,f,0.2284,space,0.5052,,,,,,,,0,3,3,72,1,,
5f61ba7cfdaccd165da6985b,2023-06-16_21h11.25.682,phx_ver10,2022.2.5,Win32,142.7347987,,,,,,,,,,,,83,testing_3,j2x,au,j2x_au,j2x_1_aujau.wav,j2x_8_auxau.wav,,FALSE,FALSE,,,,,,,,,,,,,,j,0.5945,space,0.8647,,,,,,,,0,4,4,82,1,,
5f61ba7cfdaccd165da6985b,2023-06-16_21h11.25.682,phx_ver10,2022.2.5,Win32,142.7347987,,,,,,,,,,,,127,testing_3,sh2j,ai,sh2j_ai,sh2j_1_aishai.wav,sh2j_8_aijai.wav,,FALSE,FALSE,,,,,,,,,,,,,,j,0.502,space,0.7245,,,,,,,,0,5,5,126,1,,
5f61ba7cfdaccd165da6985b,2023-06-16_21h11.25.682,phx_ver10,2022.2.5,Win32,142.7347987,,,,,,,,,,,,111,testing_3,sh2x,e,sh2x_e,sh2x_1_eshe.wav,sh2x_8_exe.wav,,FALSE,FALSE,,,,,,,,,,,,,,f,0.2922,space,0.6078,,,,,,,,0,6,6,110,1,,
5f61ba7cfdaccd165da6985b,2023-06-16_21h11.25.682,phx_ver10,2022.2.5,Win32,142.7347987,,,,,,,,,,,,47,testing_3,zh2sh,i,zh2sh_i,zh2sh_1_izhi.wav,zh2sh_8_ishi.wav,,FALSE,FALSE,,,,,,,,,,,,,,f,0.1013,space,0.818,,,,,,,,0,7,7,46,1,,
5f61ba7cfdaccd165da6985b,2023-06-16_21h11.25.682,phx_ver10,2022.2.5,Win32,142.7347987,,,,,,,,,,,,93,testing_3,j2x,i,j2x_i,j2x_1_iji.wav,j2x_1_iji.wav,,TRUE,FALSE,,,,,,,,,,,,,,f,0.4162,space,0.8174,,,,,,,,0,8,8,92,1,,
5f61ba7cfdaccd165da6985b,2023-06-16_21h11.25.682,phx_ver10,2022.2.5,Win32,142.7347987,,,,,,,,,,,,108,testing_3,sh2x,au,sh2x_au,sh2x_8_auxau.wav,sh2x_1_aushau.wav,,FALSE,FALSE,,,,,,,,,,,,,,j,0.3362,space,0.7222,,,,,,,,0,9,9,107,1,,
5f61ba7cfdaccd165da6985b,2023-06-16_21h11.25.682,phx_ver10,2022.2.5,Win32,142.7347987,,,,,,,,,,,,14,testing_2,zh2x,ai,zh2x_ai,zh2x_8_aixai.wav,zh2x_8_aixai.wav,,TRUE,FALSE,,,,,,,,,,,,,,f,0.2667,space,0.6531,,,,,,,,0,10,10,13,1,,
5f61ba7cfdaccd165da6985b,2023-06-16_21h11.25.682,phx_ver10,2022.2.5,Win32,142.7347987,,,,,,,,,,,,61,testing_3,zh2j,e,zh2j_e,zh2j_1_ezhe.wav,zh2j_1_ezhe.wav,,TRUE,FALSE,,,,,,,,,,,,,,f,0.2669,space,0.6669,,,,,,,,0,11,11,60,1,,
5f61ba7cfdaccd165da6985b,2023-06-16_21h11.25.682,phx_ver10,2022.2.5,Win32,142.7347987,,,,,,,,,,,,42,testing_3,zh2sh,ei,zh2sh_ei,zh2sh_8_eishei.wav,zh2sh_8_eishei.wav,,TRUE,FALSE,,,,,,,,,,,,,,f,0.1881,space,0.6671,,,,,,,,0,12,12,41,1,,
5f61ba7cfdaccd165da6985b,2023-06-16_21h11.25.682,phx_ver10,2022.2.5,Win32,142.7347987,,,,,,,,,,,,21,testing_2,zh2x,ei,zh2x_ei,zh2x_1_eizhei.wav,zh2x_1_eizhei.wav,,TRUE,FALSE,,,,,,,,,,,,,,f,0.004,space,0.3228,,,,,,,,0,13,13,20,1,,
5f61ba7cfdaccd165da6985b,2023-06-16_21h11.25.682,phx_ver10,2022.2.5,Win32,142.7347987,,,,,,,,,,,,45,testing_3,zh2sh,i,zh2sh_i,zh2sh_1_izhi.wav,zh2sh_1_izhi.wav,,TRUE,FALSE,,,,,,,,,,,,,,f,0.0898,space,0.3959,,,,,,,,0,14,14,44,1,,
5f61ba7cfdaccd165da6985b,2023-06-16_21h11.25.682,phx_ver10,2022.2.5,Win32,142.7347987,,,,,,,,,,,,65,testing_3,zh2j,ei,zh2j_ei,zh2j_1_eizhei.wav,zh2j_1_eizhei.wav,,TRUE,FALSE,,,,,,,,,,,,,,f,0.0907,space,0.4052,,,,,,,,0,15,15,64,1,,
5f61ba7cfdaccd165da6985b,2023-06-16_21h11.25.682,phx_ver10,2022.2.5,Win32,142.7347987,,,,,,,,,,,,53,testing_3,zh2j,ai,zh2j_ai,zh2j_1_aizhai.wav,zh2j_1_aizhai.wav,,TRUE,FALSE,,,,,,,,,,,,,,f,0.2303,space,0.5508,,,,,,,,0,16,16,52,1,,
5f61ba7cfdaccd165da6985b,2023-06-16_21h11.25.682,phx_ver10,2022.2.5,Win32,142.7347987,,,,,,,,,,,,33,testing_3,zh2sh,au,zh2sh_au,zh2sh_1_auzhau.wav,zh2sh_1_auzhau.wav,,TRUE,FALSE,,,,,,,,,,,,,,f,0.1741,space,0.5136,,,,,,,,0,17,17,32,1,,
5f61ba7cfdaccd165da6985b,2023-06-16_21h11.25.682,phx_ver10,2022.2.5,Win32,142.7347987,,,,,,,,,,,,138,testing_3,sh2j,ei,sh2j_ei,sh2j_8_eijei.wav,sh2j_8_eijei.wav,,TRUE,FALSE,,,,,,,,,,,,,,f,0.1537,space,0.4615,,,,,,,,0,18,18,137,1,,
5f61ba7cfdaccd165da6985b,2023-06-16_21h11.25.682,phx_ver10,2022.2.5,Win32,142.7347987,,,,,,,,,,,,89,testing_3,j2x,ei,j2x_ei,j2x_1_eijei.wav,j2x_1_eijei.wav,,TRUE,FALSE,,,,,,,,,,,,,,f,0.182,space,0.5487,,,,,,,,0,19,19,88,1,,
5f61ba7cfdaccd165da6985b,2023-06-16_21h11.25.682,phx_ver10,2022.2.5,Win32,142.7347987,,,,,,,,,,,,18,testing_2,zh2x,au,zh2x_au,zh2x_8_auxau.wav,zh2x_8_auxau.wav,,TRUE,FALSE,,,,,,,,,,,,,,f,0.3537,space,0.6666,,,,,,,,0,20,20,17,1,,
5f61ba7cfdaccd165da6985b,2023-06-16_21h11.25.682,phx_ver10,2022.2.5,Win32,142.7347987,,,,,,,,,,,,66,testing_3,zh2j,ei,zh2j_ei,zh2j_8_eijei.wav,zh2j_8_eijei.wav,,TRUE,FALSE,,,,,,,,,,,,,,f,0.1286,space,0.3975,,,,,,,,0,21,21,65,1,,
5f61ba7cfdaccd165da6985b,2023-06-16_21h11.25.682,phx_ver10,2022.2.5,Win32,142.7347987,,,,,,,,,,,,64,testing_3,zh2j,e,zh2j_e,zh2j_8_eje.wav,zh2j_1_ezhe.wav,,FALSE,FALSE,,,,,,,,,,,,,,f,0.2917,space,0.5989,,,,,,,,0,22,22,63,1,,
5f61ba7cfdaccd165da6985b,2023-06-16_21h11.25.682,phx_ver10,2022.2.5,Win32,142.7347987,,,,,,,,,,,,57,testing_3,zh2j,au,zh2j_au,zh2j_1_auzhau.wav,zh2j_1_auzhau.wav,,TRUE,FALSE,,,,,,,,,,,,,,f,0.046,space,0.3546,,,,,,,,0,23,23,56,1,,
5f61ba7cfdaccd165da6985b,2023-06-16_21h11.25.682,phx_ver10,2022.2.5,Win32,142.7347987,,,,,,,,,,,,140,testing_3,sh2j,ei,sh2j_ei,sh2j_8_eijei.wav,sh2j_1_eishei.wav,,FALSE,FALSE,,,,,,,,,,,,,,j,0.1989,space,0.4936,,,,,,,,0,24,24,139,1,,
5f61ba7cfdaccd165da6985b,2023-06-16_21h11.25.682,phx_ver10,2022.2.5,Win32,142.7347987,,,,,,,,,,,,129,testing_3,sh2j,au,sh2j_au,sh2j_1_aushau.wav,sh2j_1_aushau.wav,,TRUE,FALSE,,,,,,,,,,,,,,f,0.1957,space,0.4687,,,,,,,,0,25,25,128,1,,
5f61ba7cfdaccd165da6985b,2023-06-16_21h11.25.682,phx_ver10,2022.2.5,Win32,142.7347987,,,,,,,,,,,,95,testing_3,j2x,i,j2x_i,j2x_1_iji.wav,j2x_8_ixi.wav,,FALSE,FALSE,,,,,,,,,,,,,,j,0.3356,space,0.6002,,,,,,,,0,26,26,94,1,,
5f61ba7cfdaccd165da6985b,2023-06-16_21h11.25.682,phx_ver10,2022.2.5,Win32,142.7347987,,,,,,,,,,,,54,testing_3,zh2j,ai,zh2j_ai,zh2j_8_aijai.wav,zh2j_8_aijai.wav,,TRUE,FALSE,,,,,,,,,,,,,,f,0.0985,space,0.3717,,,,,,,,0,27,27,53,1,,
5f61ba7cfdaccd165da6985b,2023-06-16_21h11.25.682,phx_ver10,2022.2.5,Win32,142.7347987,,,,,,,,,,,,15,testing_2,zh2x,ai,zh2x_ai,zh2x_1_aizhai.wav,zh2x_8_aixai.wav,,FALSE,FALSE,,,,,,,,,,,,,,j,0.1531,space,0.4602,,,,,,,,0,28,28,14,1,,
5f61ba7cfdaccd165da6985b,2023-06-16_21h11.25.682,phx_ver10,2022.2.5,Win32,142.7347987,,,,,,,,,,,,26,testing_3,zh2sh,a,zh2sh_a,zh2sh_8_asha.wav,zh2sh_8_asha.wav,,TRUE,FALSE,,,,,,,,,,,,,,f,0.0711,space,0.3614,,,,,,,,0,29,29,25,1,,
5f61ba7cfdaccd165da6985b,2023-06-16_21h11.25.682,phx_ver10,2022.2.5,Win32,142.7347987,,,,,,,,,,,,98,testing_3,sh2x,a,sh2x_a,sh2x_8_axa.wav,sh2x_8_axa.wav,,TRUE,FALSE,,,,,,,,,,,,,,f,0.0917,space,0.3386,,,,,,,,0,30,30,97,1,,
5f61ba7cfdaccd165da6985b,2023-06-16_21h11.25.682,phx_ver10,2022.2.5,Win32,142.7347987,,,,,,,,,,,,46,testing_3,zh2sh,i,zh2sh_i,zh2sh_8_ishi.wav,zh2sh_8_ishi.wav,,TRUE,FALSE,,,,,,,,,,,,,,f,0.1697,space,0.4326,,,,,,,,0,31,31,45,1,,
5f61ba7cfdaccd165da6985b,2023-06-16_21h11.25.682,phx_ver10,2022.2.5,Win32,142.7347987,,,,,,,,,,,,59,testing_3,zh2j,au,zh2j_au,zh2j_1_auzhau.wav,zh2j_8_aujau.wav,,FALSE,FALSE,,,,,,,,,,,,,,f,0.8539,space,1.1249,,,,,,,,0,32,32,58,1,,
5f61ba7cfdaccd165da6985b,2023-06-16_21h11.25.682,phx_ver10,2022.2.5,Win32,142.7347987,,,,,,,,,,,,97,testing_3,sh2x,a,sh2x_a,sh2x_1_asha.wav,sh2x_1_asha.wav,,TRUE,FALSE,,,,,,,,,,,,,,f,0.1462,space,0.4931,,,,,,,,0,33,33,96,1,,
5f61ba7cfdaccd165da6985b,2023-06-16_21h11.25.682,phx_ver10,2022.2.5,Win32,142.7347987,,,,,,,,,,,,104,testing_3,sh2x,ai,sh2x_ai,sh2x_8_aixai.wav,sh2x_1_aishai.wav,,FALSE,FALSE,,,,,,,,,,,,,,j,0.0804,space,0.3692,,,,,,,,0,34,34,103,1,,
5f61ba7cfdaccd165da6985b,2023-06-16_21h11.25.682,phx_ver10,2022.2.5,Win32,142.7347987,,,,,,,,,,,,6,testing_1,zh2x,e,zh2x_e,zh2x_8_exe.wav,zh2x_8_exe_copy.wav,,TRUE,TRUE,,,,,,,,,,,,,,f,0.1636,space,0.4467,,,,,,,,0,35,35,5,1,,
5f61ba7cfdaccd165da6985b,2023-06-16_21h11.25.682,phx_ver10,2022.2.5,Win32,142.7347987,,,,,,,,,,,,8,testing_1,zh2x,e,zh2x_e,zh2x_8_exe.wav,zh2x_1_ezhe.wav,,FALSE,TRUE,,,,,,,,,,,,,,j,0.2024,space,0.434,,,,,,,,0,36,36,7,1,,
5f61ba7cfdaccd165da6985b,2023-06-16_21h11.25.682,phx_ver10,2022.2.5,Win32,142.7347987,,,,,,,,,,,,27,testing_3,zh2sh,a,zh2sh_a,zh2sh_1_azha.wav,zh2sh_8_asha.wav,,FALSE,FALSE,,,,,,,,,,,,,,f,0.5831,space,0.8074,,,,,,,,0,37,37,26,1,,
5f61ba7cfdaccd165da6985b,2023-06-16_21h11.25.682,phx_ver10,2022.2.5,Win32,142.7347987,,,,,,,,,,,,99,testing_3,sh2x,a,sh2x_a,sh2x_1_asha.wav,sh2x_8_axa.wav,,FALSE,FALSE,,,,,,,,,,,,,,j,0.0306,space,0.2595,,,,,,,,0,38,38,98,1,,
5f61ba7cfdaccd165da6985b,2023-06-16_21h11.25.682,phx_ver10,2022.2.5,Win32,142.7347987,,,,,,,,,,,,68,testing_3,zh2j,ei,zh2j_ei,zh2j_8_eijei.wav,zh2j_1_eizhei.wav,,FALSE,FALSE,,,,,,,,,,,,,,f,4.1664,space,4.4964,,,,,,,,0,39,39,67,1,,
5f61ba7cfdaccd165da6985b,2023-06-16_21h11.25.682,phx_ver10,2022.2.5,Win32,142.7347987,,,,,,,,,,,,51,testing_3,zh2j,a,zh2j_a,zh2j_1_azha.wav,zh2j_8_aja.wav,,FALSE,FALSE,,,,,,,,,,,,,,f,0.1692,space,0.9508,,,,,,,,0,40,40,50,1,,
5f61ba7cfdaccd165da6985b,2023-06-16_21h11.25.682,phx_ver10,2022.2.5,Win32,142.7347987,,,,,,,,,,,,74,testing_3,j2x,a,j2x_a,j2x_8_axa.wav,j2x_8_axa.wav,,TRUE,FALSE,,,,,,,,,,,,,,j,0.4867,space,0.7301,,,,,,,,0,41,41,73,1,,
5f61ba7cfdaccd165da6985b,2023-06-16_21h11.25.682,phx_ver10,2022.2.5,Win32,142.7347987,,,,,,,,,,,,101,testing_3,sh2x,ai,sh2x_ai,sh2x_1_aishai.wav,sh2x_1_aishai.wav,,TRUE,FALSE,,,,,,,,,,,,,,j,0.3479,space,0.5285,,,,,,,,0,42,42,100,1,,
5f61ba7cfdaccd165da6985b,2023-06-16_21h11.25.682,phx_ver10,2022.2.5,Win32,142.7347987,,,,,,,,,,,,139,testing_3,sh2j,ei,sh2j_ei,sh2j_1_eishei.wav,sh2j_8_eijei.wav,,FALSE,FALSE,,,,,,,,,,,,,,j,0.7194,space,1.0222,,,,,,,,0,43,43,138,1,,
5f61ba7cfdaccd165da6985b,2023-06-16_21h11.25.682,phx_ver10,2022.2.5,Win32,142.7347987,,,,,,,,,,,,70,testing_3,zh2j,i,zh2j_i,zh2j_8_iji.wav,zh2j_8_iji.wav,,TRUE,FALSE,,,,,,,,,,,,,,f,0.0552,space,0.2946,,,,,,,,0,44,44,69,1,,
5f61ba7cfdaccd165da6985b,2023-06-16_21h11.25.682,phx_ver10,2022.2.5,Win32,142.7347987,,,,,,,,,,,,11,testing_1,zh2x,i,zh2x_i,zh2x_1_izhi.wav,zh2x_8_ixi.wav,,FALSE,TRUE,,,,,,,,,,,,,,f,0.1586,space,0.38,,,,,,,,0,45,45,10,1,,
5f61ba7cfdaccd165da6985b,2023-06-16_21h11.25.682,phx_ver10,2022.2.5,Win32,142.7347987,,,,,,,,,,,,123,testing_3,sh2j,a,sh2j_a,sh2j_1_asha.wav,sh2j_8_aja.wav,,FALSE,FALSE,,,,,,,,,,,,,,j,0.4938,space,0.6966,,,,,,,,0,46,46,122,1,,
5f61ba7cfdaccd165da6985b,2023-06-16_21h11.25.682,phx_ver10,2022.2.5,Win32,142.7347987,,,,,,,,,,,,32,testing_3,zh2sh,ai,zh2sh_ai,zh2sh_8_aishai.wav,zh2sh_1_aizhai.wav,,FALSE,FALSE,,,,,,,,,,,,,,j,0.555,space,0.9083,,,,,,,,0,47,47,31,1,,
5f61ba7cfdaccd165da6985b,2023-06-16_21h11.25.682,phx_ver10,2022.2.5,Win32,142.7347987,,,,,,,,,,,,71,testing_3,zh2j,i,zh2j_i,zh2j_1_izhi.wav,zh2j_8_iji.wav,,FALSE,FALSE,,,,,,,,,,,,,,f,0.0003,space,0.2355,,,,,,,,0,48,48,70,1,,
5f61ba7cfdaccd165da6985b,2023-06-16_21h11.25.682,phx_ver10,2022.2.5,Win32,142.7347987,,,,,,,,,,,,90,testing_3,j2x,ei,j2x_ei,j2x_8_eixei.wav,j2x_8_eixei.wav,,TRUE,FALSE,,,,,,,,,,,,,,f,0.0629,space,0.2564,,,,,,,,0,49,49,89,1,,
5f61ba7cfdaccd165da6985b,2023-06-16_21h11.25.682,phx_ver10,2022.2.5,Win32,142.7347987,,,,,,,,,,,,133,testing_3,sh2j,e,sh2j_e,sh2j_1_eshe.wav,sh2j_1_eshe.wav,,TRUE,FALSE,,,,,,,,,,,,,,f,2.5919,space,2.7647,,,,,,,,0,50,50,132,1,,
5f61ba7cfdaccd165da6985b,2023-06-16_21h11.25.682,phx_ver10,2022.2.5,Win32,142.7347987,,,,,,,,,,,,76,testing_3,j2x,a,j2x_a,j2x_8_axa.wav,j2x_1_aja.wav,,FALSE,FALSE,,,,,,,,,,,,,,j,0.5163,space,0.7253,,,,,,,,0,51,51,75,1,,
5f61ba7cfdaccd165da6985b,2023-06-16_21h11.25.682,phx_ver10,2022.2.5,Win32,142.7347987,,,,,,,,,,,,63,testing_3,zh2j,e,zh2j_e,zh2j_1_ezhe.wav,zh2j_8_eje.wav,,FALSE,FALSE,,,,,,,,,,,,,,f,0.0179,space,0.2407,,,,,,,,0,52,52,62,1,,
5f61ba7cfdaccd165da6985b,2023-06-16_21h11.25.682,phx_ver10,2022.2.5,Win32,142.7347987,,,,,,,,,,,,56,testing_3,zh2j,ai,zh2j_ai,zh2j_8_aijai.wav,zh2j_1_aizhai.wav,,FALSE,FALSE,,,,,,,,,,,,,,f,1.1468,space,1.3902,,,,,,,,0,53,53,55,1,,
5f61ba7cfdaccd165da6985b,2023-06-16_21h11.25.682,phx_ver10,2022.2.5,Win32,142.7347987,,,,,,,,,,,,9,testing_1,zh2x,i,zh2x_i,zh2x_1_izhi.wav,zh2x_1_izhi_copy.wav,,TRUE,TRUE,,,,,,,,,,,,,,f,0.5433,space,0.757,,,,,,,,0,54,54,8,1,,
5f61ba7cfdaccd165da6985b,2023-06-16_21h11.25.682,phx_ver10,2022.2.5,Win32,142.7347987,,,,,,,,,,,,34,testing_3,zh2sh,au,zh2sh_au,zh2sh_8_aushau.wav,zh2sh_8_aushau.wav,,TRUE,FALSE,,,,,,,,,,,,,,f,0.4419,space,0.6287,,,,,,,,0,55,55,33,1,,
5f61ba7cfdaccd165da6985b,2023-06-16_21h11.25.682,phx_ver10,2022.2.5,Win32,142.7347987,,,,,,,,,,,,58,testing_3,zh2j,au,zh2j_au,zh2j_8_aujau.wav,zh2j_8_aujau.wav,,TRUE,FALSE,,,,,,,,,,,,,,f,0.5251,space,0.7126,,,,,,,,0,56,56,57,1,,
5f61ba7cfdaccd165da6985b,2023-06-16_21h11.25.682,phx_ver10,2022.2.5,Win32,142.7347987,,,,,,,,,,,,105,testing_3,sh2x,au,sh2x_au,sh2x_1_aushau.wav,sh2x_1_aushau.wav,,TRUE,FALSE,,,,,,,,,,,,,,f,0.0287,space,0.243,,,,,,,,0,57,57,104,1,,
5f61ba7cfdaccd165da6985b,2023-06-16_21h11.25.682,phx_ver10,2022.2.5,Win32,142.7347987,,,,,,,,,,,,113,testing_3,sh2x,ei,sh2x_ei,sh2x_1_eishei.wav,sh2x_1_eishei.wav,,TRUE,FALSE,,,,,,,,,,,,,,f,0.2151,space,0.4367,,,,,,,,0,58,58,112,1,,
5f61ba7cfdaccd165da6985b,2023-06-16_21h11.25.682,phx_ver10,2022.2.5,Win32,142.7347987,,,,,,,,,,,,110,testing_3,sh2x,e,sh2x_e,sh2x_8_exe.wav,sh2x_8_exe.wav,,TRUE,FALSE,,,,,,,,,,,,,,f,0.1132,space,0.3417,,,,,,,,0,59,59,109,1,,
5f61ba7cfdaccd165da6985b,2023-06-16_21h11.25.682,phx_ver10,2022.2.5,Win32,142.7347987,,,,,,,,,,,,44,testing_3,zh2sh,ei,zh2sh_ei,zh2sh_8_eishei.wav,zh2sh_1_eizhei.wav,,FALSE,FALSE,,,,,,,,,,,,,,j,0.0552,space,0.2672,,,,,,,,0,60,60,43,1,,
5f61ba7cfdaccd165da6985b,2023-06-16_21h11.25.682,phx_ver10,2022.2.5,Win32,142.7347987,,,,,,,,,,,,131,testing_3,sh2j,au,sh2j_au,sh2j_1_aushau.wav,sh2j_8_aujau.wav,,FALSE,FALSE,,,,,,,,,,,,,,j,0.4836,space,0.6476,,,,,,,,0,61,61,130,1,,
5f61ba7cfdaccd165da6985b,2023-06-16_21h11.25.682,phx_ver10,2022.2.5,Win32,142.7347987,,,,,,,,,,,,55,testing_3,zh2j,ai,zh2j_ai,zh2j_1_aizhai.wav,zh2j_8_aijai.wav,,FALSE,FALSE,,,,,,,,,,,,,,f,0.611,space,0.8095,,,,,,,,0,62,62,54,1,,
5f61ba7cfdaccd165da6985b,2023-06-16_21h11.25.682,phx_ver10,2022.2.5,Win32,142.7347987,,,,,,,,,,,,69,testing_3,zh2j,i,zh2j_i,zh2j_1_izhi.wav,zh2j_1_izhi.wav,,TRUE,FALSE,,,,,,,,,,,,,,f,0.3258,space,0.546,,,,,,,,0,63,63,68,1,,
5f61ba7cfdaccd165da6985b,2023-06-16_21h11.25.682,phx_ver10,2022.2.5,Win32,142.7347987,,,,,,,,,,,,80,testing_3,j2x,ai,j2x_ai,j2x_8_aixai.wav,j2x_1_aijai.wav,,FALSE,FALSE,,,,,,,,,,,,,,j,0.1664,space,0.37,,,,,,,,0,64,64,79,1,,
5f61ba7cfdaccd165da6985b,2023-06-16_21h11.25.682,phx_ver10,2022.2.5,Win32,142.7347987,,,,,,,,,,,,78,testing_3,j2x,ai,j2x_ai,j2x_8_aixai.wav,j2x_8_aixai.wav,,TRUE,FALSE,,,,,,,,,,,,,,f,0.5143,space,0.6886,,,,,,,,0,65,65,77,1,,
5f61ba7cfdaccd165da6985b,2023-06-16_21h11.25.682,phx_ver10,2022.2.5,Win32,142.7347987,,,,,,,,,,,,7,testing_1,zh2x,e,zh2x_e,zh2x_1_ezhe.wav,zh2x_8_exe.wav,,FALSE,TRUE,,,,,,,,,,,,,,j,0.1418,space,0.4172,,,,,,,,0,66,66,6,1,,
5f61ba7cfdaccd165da6985b,2023-06-16_21h11.25.682,phx_ver10,2022.2.5,Win32,142.7347987,,,,,,,,,,,,19,testing_2,zh2x,au,zh2x_au,zh2x_1_auzhau.wav,zh2x_8_auxau.wav,,FALSE,FALSE,,,,,,,,,,,,,,j,0.4828,space,0.8283,,,,,,,,0,67,67,18,1,,
5f61ba7cfdaccd165da6985b,2023-06-16_21h11.25.682,phx_ver10,2022.2.5,Win32,142.7347987,,,,,,,,,,,,17,testing_2,zh2x,au,zh2x_au,zh2x_1_auzhau.wav,zh2x_1_auzhau.wav,,TRUE,FALSE,,,,,,,,,,,,,,f,0.6865,space,0.9008,,,,,,,,0,68,68,16,1,,
5f61ba7cfdaccd165da6985b,2023-06-16_21h11.25.682,phx_ver10,2022.2.5,Win32,142.7347987,,,,,,,,,,,,79,testing_3,j2x,ai,j2x_ai,j2x_1_aijai.wav,j2x_8_aixai.wav,,FALSE,FALSE,,,,,,,,,,,,,,j,0.3405,space,0.5236,,,,,,,,0,69,69,78,1,,
5f61ba7cfdaccd165da6985b,2023-06-16_21h11.25.682,phx_ver10,2022.2.5,Win32,142.7347987,,,,,,,,,,,,94,testing_3,j2x,i,j2x_i,j2x_8_ixi.wav,j2x_8_ixi.wav,,TRUE,FALSE,,,,,,,,,,,,,,f,0.4099,space,0.6192,,,,,,,,0,70,70,93,1,,
5f61ba7cfdaccd165da6985b,2023-06-16_21h11.25.682,phx_ver10,2022.2.5,Win32,142.7347987,,,,,,,,,,,,20,testing_2,zh2x,au,zh2x_au,zh2x_8_auxau.wav,zh2x_1_auzhau.wav,,FALSE,FALSE,,,,,,,,,,,,,,f,0.0502,space,0.3497,,,,,,,,0,71,71,19,1,,
5f61ba7cfdaccd165da6985b,2023-06-16_21h11.25.682,phx_ver10,2022.2.5,Win32,142.7347987,,,,,,,,,,,,23,testing_2,zh2x,ei,zh2x_ei,zh2x_1_eizhei.wav,zh2x_8_eixei.wav,,FALSE,FALSE,,,,,,,,,,,,,,j,0.0911,space,0.4129,,,,,,,,0,72,72,22,1,,
5f61ba7cfdaccd165da6985b,2023-06-16_21h11.25.682,phx_ver10,2022.2.5,Win32,142.7347987,,,,,,,,,,,,24,testing_2,zh2x,ei,zh2x_ei,zh2x_8_eixei.wav,zh2x_1_eizhei.wav,,FALSE,FALSE,,,,,,,,,,,,,,j,0.2711,space,0.511,,,,,,,,0,73,73,23,1,,
5f61ba7cfdaccd165da6985b,2023-06-16_21h11.25.682,phx_ver10,2022.2.5,Win32,142.7347987,,,,,,,,,,,,121,testing_3,sh2j,a,sh2j_a,sh2j_1_asha.wav,sh2j_1_asha.wav,,TRUE,FALSE,,,,,,,,,,,,,,f,1.2719,space,1.5149,,,,,,,,0,74,74,120,1,,
5f61ba7cfdaccd165da6985b,2023-06-16_21h11.25.682,phx_ver10,2022.2.5,Win32,142.7347987,,,,,,,,,,,,30,testing_3,zh2sh,ai,zh2sh_ai,zh2sh_8_aishai.wav,zh2sh_8_aishai.wav,,TRUE,FALSE,,,,,,,,,,,,,,f,0.1319,space,0.4031,,,,,,,,0,75,75,29,1,,
5f61ba7cfdaccd165da6985b,2023-06-16_21h11.25.682,phx_ver10,2022.2.5,Win32,142.7347987,,,,,,,,,,,,112,testing_3,sh2x,e,sh2x_e,sh2x_8_exe.wav,sh2x_1_eshe.wav,,FALSE,FALSE,,,,,,,,,,,,,,j,0.2411,space,0.4853,,,,,,,,0,76,76,111,1,,
5f61ba7cfdaccd165da6985b,2023-06-16_21h11.25.682,phx_ver10,2022.2.5,Win32,142.7347987,,,,,,,,,,,,87,testing_3,j2x,e,j2x_e,j2x_1_eje.wav,j2x_8_exe.wav,,FALSE,FALSE,,,,,,,,,,,,,,j,0.3718,space,0.6331,,,,,,,,0,77,77,86,1,,
5f61ba7cfdaccd165da6985b,2023-06-16_21h11.25.682,phx_ver10,2022.2.5,Win32,142.7347987,,,,,,,,,,,,100,testing_3,sh2x,a,sh2x_a,sh2x_8_axa.wav,sh2x_1_asha.wav,,FALSE,FALSE,,,,,,,,,,,,,,j,0.5702,space,0.793,,,,,,,,0,78,78,99,1,,
5f61ba7cfdaccd165da6985b,2023-06-16_21h11.25.682,phx_ver10,2022.2.5,Win32,142.7347987,,,,,,,,,,,,114,testing_3,sh2x,ei,sh2x_ei,sh2x_8_eixei.wav,sh2x_8_eixei.wav,,TRUE,FALSE,,,,,,,,,,,,,,f,0.3275,space,0.6329,,,,,,,,0,79,79,113,1,,
5f61ba7cfdaccd165da6985b,2023-06-16_21h11.25.682,phx_ver10,2022.2.5,Win32,142.7347987,,,,,,,,,,,,84,testing_3,j2x,au,j2x_au,j2x_8_auxau.wav,j2x_1_aujau.wav,,FALSE,FALSE,,,,,,,,,,,,,,f,0.2437,space,0.4766,,,,,,,,0,80,80,83,1,,
5f61ba7cfdaccd165da6985b,2023-06-16_21h11.25.682,phx_ver10,2022.2.5,Win32,142.7347987,,,,,,,,,,,,102,testing_3,sh2x,ai,sh2x_ai,sh2x_8_aixai.wav,sh2x_8_aixai.wav,,TRUE,FALSE,,,,,,,,,,,,,,f,0.0765,space,0.3474,,,,,,,,0,81,81,101,1,,
5f61ba7cfdaccd165da6985b,2023-06-16_21h11.25.682,phx_ver10,2022.2.5,Win32,142.7347987,,,,,,,,,,,,119,testing_3,sh2x,i,sh2x_i,sh2x_1_ishi.wav,sh2x_8_ixi.wav,,FALSE,FALSE,,,,,,,,,,,,,,j,0.0935,space,0.3751,,,,,,,,0,82,82,118,1,,
5f61ba7cfdaccd165da6985b,2023-06-16_21h11.25.682,phx_ver10,2022.2.5,Win32,142.7347987,,,,,,,,,,,,117,testing_3,sh2x,i,sh2x_i,sh2x_1_ishi.wav,sh2x_1_ishi.wav,,TRUE,FALSE,,,,,,,,,,,,,,j,0.1649,space,0.4468,,,,,,,,0,83,83,116,1,,
5f61ba7cfdaccd165da6985b,2023-06-16_21h11.25.682,phx_ver10,2022.2.5,Win32,142.7347987,,,,,,,,,,,,36,testing_3,zh2sh,au,zh2sh_au,zh2sh_8_aushau.wav,zh2sh_1_auzhau.wav,,FALSE,FALSE,,,,,,,,,,,,,,j,0.1742,space,0.4303,,,,,,,,0,84,84,35,1,,
5f61ba7cfdaccd165da6985b,2023-06-16_21h11.25.682,phx_ver10,2022.2.5,Win32,142.7347987,,,,,,,,,,,,107,testing_3,sh2x,au,sh2x_au,sh2x_1_aushau.wav,sh2x_8_auxau.wav,,FALSE,FALSE,,,,,,,,,,,,,,j,0.5598,space,0.7473,,,,,,,,0,85,85,106,1,,
5f61ba7cfdaccd165da6985b,2023-06-16_21h11.25.682,phx_ver10,2022.2.5,Win32,142.7347987,,,,,,,,,,,,88,testing_3,j2x,e,j2x_e,j2x_8_exe.wav,j2x_1_eje.wav,,FALSE,FALSE,,,,,,,,,,,,,,j,0.3623,space,0.6009,,,,,,,,0,86,86,87,1,,
5f61ba7cfdaccd165da6985b,2023-06-16_21h11.25.682,phx_ver10,2022.2.5,Win32,142.7347987,,,,,,,,,,,,2,testing_1,zh2x,a,zh2x_a,zh2x_8_axa.wav,zh2x_8_axa_copy.wav,,TRUE,TRUE,,,,,,,,,,,,,,f,0.1512,space,0.4356,,,,,,,,0,87,87,1,1,,
5f61ba7cfdaccd165da6985b,2023-06-16_21h11.25.682,phx_ver10,2022.2.5,Win32,142.7347987,,,,,,,,,,,,60,testing_3,zh2j,au,zh2j_au,zh2j_8_aujau.wav,zh2j_1_auzhau.wav,,FALSE,FALSE,,,,,,,,,,,,,,f,0.3977,space,0.6424,,,,,,,,0,88,88,59,1,,
5f61ba7cfdaccd165da6985b,2023-06-16_21h11.25.682,phx_ver10,2022.2.5,Win32,142.7347987,,,,,,,,,,,,52,testing_3,zh2j,a,zh2j_a,zh2j_8_aja.wav,zh2j_1_azha.wav,,FALSE,FALSE,,,,,,,,,,,,,,f,0.1611,space,0.4594,,,,,,,,0,89,89,51,1,,
5f61ba7cfdaccd165da6985b,2023-06-16_21h11.25.682,phx_ver10,2022.2.5,Win32,142.7347987,,,,,,,,,,,,128,testing_3,sh2j,ai,sh2j_ai,sh2j_8_aijai.wav,sh2j_1_aishai.wav,,FALSE,FALSE,,,,,,,,,,,,,,j,0.0364,space,0.3127,,,,,,,,0,90,90,127,1,,
5f61ba7cfdaccd165da6985b,2023-06-16_21h11.25.682,phx_ver10,2022.2.5,Win32,142.7347987,,,,,,,,,,,,118,testing_3,sh2x,i,sh2x_i,sh2x_8_ixi.wav,sh2x_8_ixi.wav,,TRUE,FALSE,,,,,,,,,,,,,,f,0.0143,space,0.2994,,,,,,,,0,91,91,117,1,,
5f61ba7cfdaccd165da6985b,2023-06-16_21h11.25.682,phx_ver10,2022.2.5,Win32,142.7347987,,,,,,,,,,,,122,testing_3,sh2j,a,sh2j_a,sh2j_8_aja.wav,sh2j_8_aja.wav,,TRUE,FALSE,,,,,,,,,,,,,,f,0.514,space,4.7923,,,,,,,,0,92,92,121,1,,
5f61ba7cfdaccd165da6985b,2023-06-16_21h11.25.682,phx_ver10,2022.2.5,Win32,142.7347987,,,,,,,,,,,,106,testing_3,sh2x,au,sh2x_au,sh2x_8_auxau.wav,sh2x_8_auxau.wav,,TRUE,FALSE,,,,,,,,,,,,,,f,68.7972,space,69.1669,,,,,,,,0,93,93,105,1,,
5f61ba7cfdaccd165da6985b,2023-06-16_21h11.25.682,phx_ver10,2022.2.5,Win32,142.7347987,,,,,,,,,,,,96,testing_3,j2x,i,j2x_i,j2x_8_ixi.wav,j2x_1_iji.wav,,FALSE,FALSE,,,,,,,,,,,,,,j,2.2305,space,2.5124,,,,,,,,0,94,94,95,1,,
5f61ba7cfdaccd165da6985b,2023-06-16_21h11.25.682,phx_ver10,2022.2.5,Win32,142.7347987,,,,,,,,,,,,130,testing_3,sh2j,au,sh2j_au,sh2j_8_aujau.wav,sh2j_8_aujau.wav,,TRUE,FALSE,,,,,,,,,,,,,,f,0.1945,space,0.5504,,,,,,,,0,95,95,129,1,,
5f61ba7cfdaccd165da6985b,2023-06-16_21h11.25.682,phx_ver10,2022.2.5,Win32,142.7347987,,,,,,,,,,,,125,testing_3,sh2j,ai,sh2j_ai,sh2j_1_aishai.wav,sh2j_1_aishai.wav,,TRUE,FALSE,,,,,,,,,,,,,,f,0.3442,space,52.6015,,,,,,,,0,96,96,124,1,,
5f61ba7cfdaccd165da6985b,2023-06-16_21h11.25.682,phx_ver10,2022.2.5,Win32,142.7347987,,,,,,,,,,,,141,testing_3,sh2j,i,sh2j_i,sh2j_1_ishi.wav,sh2j_1_ishi.wav,,TRUE,FALSE,,,,,,,,,,,,,,j,2.506,space,2.8297,,,,,,,,0,97,97,140,1,,
5f61ba7cfdaccd165da6985b,2023-06-16_21h11.25.682,phx_ver10,2022.2.5,Win32,142.7347987,,,,,,,,,,,,115,testing_3,sh2x,ei,sh2x_ei,sh2x_1_eishei.wav,sh2x_8_eixei.wav,,FALSE,FALSE,,,,,,,,,,,,,,j,0.212,space,0.5556,,,,,,,,0,98,98,114,1,,
5f61ba7cfdaccd165da6985b,2023-06-16_21h11.25.682,phx_ver10,2022.2.5,Win32,142.7347987,,,,,,,,,,,,142,testing_3,sh2j,i,sh2j_i,sh2j_8_iji.wav,sh2j_8_iji.wav,,TRUE,FALSE,,,,,,,,,,,,,,f,0.2217,space,0.5246,,,,,,,,0,99,99,141,1,,
5f61ba7cfdaccd165da6985b,2023-06-16_21h11.25.682,phx_ver10,2022.2.5,Win32,142.7347987,,,,,,,,,,,,67,testing_3,zh2j,ei,zh2j_ei,zh2j_1_eizhei.wav,zh2j_8_eijei.wav,,FALSE,FALSE,,,,,,,,,,,,,,f,0.7093,space,0.9743,,,,,,,,0,100,100,66,1,,
5f61ba7cfdaccd165da6985b,2023-06-16_21h11.25.682,phx_ver10,2022.2.5,Win32,142.7347987,,,,,,,,,,,,126,testing_3,sh2j,ai,sh2j_ai,sh2j_8_aijai.wav,sh2j_8_aijai.wav,,TRUE,FALSE,,,,,,,,,,,,,,f,0.1772,space,0.3541,,,,,,,,0,101,101,125,1,,
5f61ba7cfdaccd165da6985b,2023-06-16_21h11.25.682,phx_ver10,2022.2.5,Win32,142.7347987,,,,,,,,,,,,4,testing_1,zh2x,a,zh2x_a,zh2x_8_axa.wav,zh2x_1_azha.wav,,FALSE,TRUE,,,,,,,,,,,,,,j,0.2785,space,0.5003,,,,,,,,0,102,102,3,1,,
5f61ba7cfdaccd165da6985b,2023-06-16_21h11.25.682,phx_ver10,2022.2.5,Win32,142.7347987,,,,,,,,,,,,134,testing_3,sh2j,e,sh2j_e,sh2j_8_eje.wav,sh2j_8_eje.wav,,TRUE,FALSE,,,,,,,,,,,,,,f,0.0998,space,0.3216,,,,,,,,0,103,103,133,1,,
5f61ba7cfdaccd165da6985b,2023-06-16_21h11.25.682,phx_ver10,2022.2.5,Win32,142.7347987,,,,,,,,,,,,37,testing_3,zh2sh,e,zh2sh_e,zh2sh_1_ezhe.wav,zh2sh_1_ezhe.wav,,TRUE,FALSE,,,,,,,,,,,,,,f,0.4796,space,0.6682,,,,,,,,0,104,104,36,1,,
5f61ba7cfdaccd165da6985b,2023-06-16_21h11.25.682,phx_ver10,2022.2.5,Win32,142.7347987,,,,,,,,,,,,25,testing_3,zh2sh,a,zh2sh_a,zh2sh_1_azha.wav,zh2sh_1_azha.wav,,TRUE,FALSE,,,,,,,,,,,,,,f,0.4413,space,0.632,,,,,,,,0,105,105,24,1,,
5f61ba7cfdaccd165da6985b,2023-06-16_21h11.25.682,phx_ver10,2022.2.5,Win32,142.7347987,,,,,,,,,,,,28,testing_3,zh2sh,a,zh2sh_a,zh2sh_8_asha.wav,zh2sh_1_azha.wav,,FALSE,FALSE,,,,,,,,,,,,,,j,0.2784,space,0.5178,,,,,,,,0,106,106,27,1,,
5f61ba7cfdaccd165da6985b,2023-06-16_21h11.25.682,phx_ver10,2022.2.5,Win32,142.7347987,,,,,,,,,,,,5,testing_1,zh2x,e,zh2x_e,zh2x_1_ezhe.wav,zh2x_1_ezhe_copy.wav,,TRUE,TRUE,,,,,,,,,,,,,,f,0.5358,space,0.7942,,,,,,,,0,107,107,4,1,,
5f61ba7cfdaccd165da6985b,2023-06-16_21h11.25.682,phx_ver10,2022.2.5,Win32,142.7347987,,,,,,,,,,,,38,testing_3,zh2sh,e,zh2sh_e,zh2sh_8_eshe.wav,zh2sh_8_eshe.wav,,TRUE,FALSE,,,,,,,,,,,,,,f,0.0705,space,0.362,,,,,,,,0,108,108,37,1,,
5f61ba7cfdaccd165da6985b,2023-06-16_21h11.25.682,phx_ver10,2022.2.5,Win32,142.7347987,,,,,,,,,,,,116,testing_3,sh2x,ei,sh2x_ei,sh2x_8_eixei.wav,sh2x_1_eishei.wav,,FALSE,FALSE,,,,,,,,,,,,,,j,0.1627,space,0.3853,,,,,,,,0,109,109,115,1,,
5f61ba7cfdaccd165da6985b,2023-06-16_21h11.25.682,phx_ver10,2022.2.5,Win32,142.7347987,,,,,,,,,,,,86,testing_3,j2x,e,j2x_e,j2x_8_exe.wav,j2x_8_exe.wav,,TRUE,FALSE,,,,,,,,,,,,,,f,0.3337,space,0.556,,,,,,,,0,110,110,85,1,,
5f61ba7cfdaccd165da6985b,2023-06-16_21h11.25.682,phx_ver10,2022.2.5,Win32,142.7347987,,,,,,,,,,,,144,testing_3,sh2j,i,sh2j_i,sh2j_8_iji.wav,sh2j_1_ishi.wav,,FALSE,FALSE,,,,,,,,,,,,,,j,0.5694,space,0.8227,,,,,,,,0,111,111,143,1,,
5f61ba7cfdaccd165da6985b,2023-06-16_21h11.25.682,phx_ver10,2022.2.5,Win32,142.7347987,,,,,,,,,,,,85,testing_3,j2x,e,j2x_e,j2x_1_eje.wav,j2x_1_eje.wav,,TRUE,FALSE,,,,,,,,,,,,,,f,0.0837,space,0.3152,,,,,,,,0,112,112,84,1,,
5f61ba7cfdaccd165da6985b,2023-06-16_21h11.25.682,phx_ver10,2022.2.5,Win32,142.7347987,,,,,,,,,,,,12,testing_1,zh2x,i,zh2x_i,zh2x_8_ixi.wav,zh2x_1_izhi.wav,,FALSE,TRUE,,,,,,,,,,,,,,j,0.3343,space,0.4721,,,,,,,,0,113,113,11,1,,
5f61ba7cfdaccd165da6985b,2023-06-16_21h11.25.682,phx_ver10,2022.2.5,Win32,142.7347987,,,,,,,,,,,,10,testing_1,zh2x,i,zh2x_i,zh2x_8_ixi.wav,zh2x_8_ixi_copy.wav,,TRUE,TRUE,,,,,,,,,,,,,,f,0.5281,space,0.7566,,,,,,,,0,114,114,9,1,,
5f61ba7cfdaccd165da6985b,2023-06-16_21h11.25.682,phx_ver10,2022.2.5,Win32,142.7347987,,,,,,,,,,,,91,testing_3,j2x,ei,j2x_ei,j2x_1_eijei.wav,j2x_8_eixei.wav,,FALSE,FALSE,,,,,,,,,,,,,,f,4.1179,space,4.3328,,,,,,,,0,115,115,90,1,,
5f61ba7cfdaccd165da6985b,2023-06-16_21h11.25.682,phx_ver10,2022.2.5,Win32,142.7347987,,,,,,,,,,,,132,testing_3,sh2j,au,sh2j_au,sh2j_8_aujau.wav,sh2j_1_aushau.wav,,FALSE,FALSE,,,,,,,,,,,,,,f,0.1401,space,0.3559,,,,,,,,0,116,116,131,1,,
5f61ba7cfdaccd165da6985b,2023-06-16_21h11.25.682,phx_ver10,2022.2.5,Win32,142.7347987,,,,,,,,,,,,48,testing_3,zh2sh,i,zh2sh_i,zh2sh_8_ishi.wav,zh2sh_1_izhi.wav,,FALSE,FALSE,,,,,,,,,,,,,,j,0.2721,space,0.4449,,,,,,,,0,117,117,47,1,,
5f61ba7cfdaccd165da6985b,2023-06-16_21h11.25.682,phx_ver10,2022.2.5,Win32,142.7347987,,,,,,,,,,,,16,testing_2,zh2x,ai,zh2x_ai,zh2x_8_aixai.wav,zh2x_1_aizhai.wav,,FALSE,FALSE,,,,,,,,,,,,,,j,0.0634,space,0.2099,,,,,,,,0,118,118,15,1,,
5f61ba7cfdaccd165da6985b,2023-06-16_21h11.25.682,phx_ver10,2022.2.5,Win32,142.7347987,,,,,,,,,,,,77,testing_3,j2x,ai,j2x_ai,j2x_1_aijai.wav,j2x_1_aijai.wav,,TRUE,FALSE,,,,,,,,,,,,,,f,0.2669,space,0.7164,,,,,,,,0,119,119,76,1,,
5f61ba7cfdaccd165da6985b,2023-06-16_21h11.25.682,phx_ver10,2022.2.5,Win32,142.7347987,,,,,,,,,,,,22,testing_2,zh2x,ei,zh2x_ei,zh2x_8_eixei.wav,zh2x_8_eixei.wav,,TRUE,FALSE,,,,,,,,,,,,,,f,0.3887,space,0.7661,,,,,,,,0,120,120,21,1,,
5f61ba7cfdaccd165da6985b,2023-06-16_21h11.25.682,phx_ver10,2022.2.5,Win32,142.7347987,,,,,,,,,,,,136,testing_3,sh2j,e,sh2j_e,sh2j_8_eje.wav,sh2j_1_eshe.wav,,FALSE,FALSE,,,,,,,,,,,,,,j,0.2511,space,276.3178,,,,,,,,0,121,121,135,1,,
5f61ba7cfdaccd165da6985b,2023-06-16_21h11.25.682,phx_ver10,2022.2.5,Win32,142.7347987,,,,,,,,,,,,75,testing_3,j2x,a,j2x_a,j2x_1_aja.wav,j2x_8_axa.wav,,FALSE,FALSE,,,,,,,,,,,,,,j,1.4982,space,1.8295,,,,,,,,0,122,122,74,1,,
5f61ba7cfdaccd165da6985b,2023-06-16_21h11.25.682,phx_ver10,2022.2.5,Win32,142.7347987,,,,,,,,,,,,135,testing_3,sh2j,e,sh2j_e,sh2j_1_eshe.wav,sh2j_8_eje.wav,,FALSE,FALSE,,,,,,,,,,,,,,j,0.0494,space,0.2938,,,,,,,,0,123,123,134,1,,
5f61ba7cfdaccd165da6985b,2023-06-16_21h11.25.682,phx_ver10,2022.2.5,Win32,142.7347987,,,,,,,,,,,,81,testing_3,j2x,au,j2x_au,j2x_1_aujau.wav,j2x_1_aujau.wav,,TRUE,FALSE,,,,,,,,,,,,,,f,0.2102,space,0.4057,,,,,,,,0,124,124,80,1,,
5f61ba7cfdaccd165da6985b,2023-06-16_21h11.25.682,phx_ver10,2022.2.5,Win32,142.7347987,,,,,,,,,,,,39,testing_3,zh2sh,e,zh2sh_e,zh2sh_1_ezhe.wav,zh2sh_8_eshe.wav,,FALSE,FALSE,,,,,,,,,,,,,,j,0.4812,space,0.7257,,,,,,,,0,125,125,38,1,,
5f61ba7cfdaccd165da6985b,2023-06-16_21h11.25.682,phx_ver10,2022.2.5,Win32,142.7347987,,,,,,,,,,,,103,testing_3,sh2x,ai,sh2x_ai,sh2x_1_aishai.wav,sh2x_8_aixai.wav,,FALSE,FALSE,,,,,,,,,,,,,,f,0.592,space,0.7752,,,,,,,,0,126,126,102,1,,
5f61ba7cfdaccd165da6985b,2023-06-16_21h11.25.682,phx_ver10,2022.2.5,Win32,142.7347987,,,,,,,,,,,,31,testing_3,zh2sh,ai,zh2sh_ai,zh2sh_1_aizhai.wav,zh2sh_8_aishai.wav,,FALSE,FALSE,,,,,,,,,,,,,,j,0.0454,space,0.2358,,,,,,,,0,127,127,30,1,,
5f61ba7cfdaccd165da6985b,2023-06-16_21h11.25.682,phx_ver10,2022.2.5,Win32,142.7347987,,,,,,,,,,,,109,testing_3,sh2x,e,sh2x_e,sh2x_1_eshe.wav,sh2x_1_eshe.wav,,TRUE,FALSE,,,,,,,,,,,,,,f,0.1253,space,0.3479,,,,,,,,0,128,128,108,1,,
5f61ba7cfdaccd165da6985b,2023-06-16_21h11.25.682,phx_ver10,2022.2.5,Win32,142.7347987,,,,,,,,,,,,29,testing_3,zh2sh,ai,zh2sh_ai,zh2sh_1_aizhai.wav,zh2sh_1_aizhai.wav,,TRUE,FALSE,,,,,,,,,,,,,,f,0.8431,space,1.0563,,,,,,,,0,129,129,28,1,,
5f61ba7cfdaccd165da6985b,2023-06-16_21h11.25.682,phx_ver10,2022.2.5,Win32,142.7347987,,,,,,,,,,,,3,testing_1,zh2x,a,zh2x_a,zh2x_1_azha.wav,zh2x_8_axa.wav,,FALSE,TRUE,,,,,,,,,,,,,,j,0.7177,space,0.861,,,,,,,,0,130,130,2,1,,
5f61ba7cfdaccd165da6985b,2023-06-16_21h11.25.682,phx_ver10,2022.2.5,Win32,142.7347987,,,,,,,,,,,,43,testing_3,zh2sh,ei,zh2sh_ei,zh2sh_1_eizhei.wav,zh2sh_8_eishei.wav,,FALSE,FALSE,,,,,,,,,,,,,,j,0.9379,space,1.3125,,,,,,,,0,131,131,42,1,,
5f61ba7cfdaccd165da6985b,2023-06-16_21h11.25.682,phx_ver10,2022.2.5,Win32,142.7347987,,,,,,,,,,,,72,testing_3,zh2j,i,zh2j_i,zh2j_8_iji.wav,zh2j_1_izhi.wav,,FALSE,FALSE,,,,,,,,,,,,,,f,0.675,space,0.9788,,,,,,,,0,132,132,71,1,,
5f61ba7cfdaccd165da6985b,2023-06-16_21h11.25.682,phx_ver10,2022.2.5,Win32,142.7347987,,,,,,,,,,,,40,testing_3,zh2sh,e,zh2sh_e,zh2sh_8_eshe.wav,zh2sh_1_ezhe.wav,,FALSE,FALSE,,,,,,,,,,,,,,j,0.5923,space,1.0353,,,,,,,,0,133,133,39,1,,
5f61ba7cfdaccd165da6985b,2023-06-16_21h11.25.682,phx_ver10,2022.2.5,Win32,142.7347987,,,,,,,,,,,,143,testing_3,sh2j,i,sh2j_i,sh2j_1_ishi.wav,sh2j_8_iji.wav,,FALSE,FALSE,,,,,,,,,,,,,,j,1.5434,space,1.9268,,,,,,,,0,134,134,142,1,,
5f61ba7cfdaccd165da6985b,2023-06-16_21h11.25.682,phx_ver10,2022.2.5,Win32,142.7347987,,,,,,,,,,,,120,testing_3,sh2x,i,sh2x_i,sh2x_8_ixi.wav,sh2x_1_ishi.wav,,FALSE,FALSE,,,,,,,,,,,,,,j,0.6638,space,0.9238,,,,,,,,0,135,135,119,1,,
5f61ba7cfdaccd165da6985b,2023-06-16_21h11.25.682,phx_ver10,2022.2.5,Win32,142.7347987,,,,,,,,,,,,82,testing_3,j2x,au,j2x_au,j2x_8_auxau.wav,j2x_8_auxau.wav,,TRUE,FALSE,,,,,,,,,,,,,,f,0.4526,space,0.726,,,,,,,,0,136,136,81,1,,
5f61ba7cfdaccd165da6985b,2023-06-16_21h11.25.682,phx_ver10,2022.2.5,Win32,142.7347987,,,,,,,,,,,,1,testing_1,zh2x,a,zh2x_a,zh2x_1_azha.wav,zh2x_1_azha_copy.wav,,TRUE,TRUE,,,,,,,,,,,,,,f,0.6671,space,0.9889,,,,,,,,0,137,137,0,1,,
5f61ba7cfdaccd165da6985b,2023-06-16_21h11.25.682,phx_ver10,2022.2.5,Win32,142.7347987,,,,,,,,,,,,62,testing_3,zh2j,e,zh2j_e,zh2j_8_eje.wav,zh2j_8_eje.wav,,TRUE,FALSE,,,,,,,,,,,,,,f,0.7577,space,0.9862,,,,,,,,0,138,138,61,1,,
5f61ba7cfdaccd165da6985b,2023-06-16_21h11.25.682,phx_ver10,2022.2.5,Win32,142.7347987,,,,,,,,,,,,92,testing_3,j2x,ei,j2x_ei,j2x_8_eixei.wav,j2x_1_eijei.wav,,FALSE,FALSE,,,,,,,,,,,,,,j,0.2442,space,0.6391,,,,,,,,0,139,139,91,1,,
5f61ba7cfdaccd165da6985b,2023-06-16_21h11.25.682,phx_ver10,2022.2.5,Win32,142.7347987,,,,,,,,,,,,137,testing_3,sh2j,ei,sh2j_ei,sh2j_1_eishei.wav,sh2j_1_eishei.wav,,TRUE,FALSE,,,,,,,,,,,,,,f,0.2999,space,0.7251,,,,,,,,0,140,140,136,1,,
5f61ba7cfdaccd165da6985b,2023-06-16_21h11.25.682,phx_ver10,2022.2.5,Win32,142.7347987,,,,,,,,,,,,13,testing_2,zh2x,ai,zh2x_ai,zh2x_1_aizhai.wav,zh2x_1_aizhai.wav,,TRUE,FALSE,,,,,,,,,,,,,,f,0.0495,space,0.3074,,,,,,,,0,141,141,12,1,,
5f61ba7cfdaccd165da6985b,2023-06-16_21h11.25.682,phx_ver10,2022.2.5,Win32,142.7347987,,,,,,,,,,,,41,testing_3,zh2sh,ei,zh2sh_ei,zh2sh_1_eizhei.wav,zh2sh_1_eizhei.wav,,TRUE,FALSE,,,,,,,,,,,,,,f,0.5633,space,0.8214,,,,,,,,0,142,142,40,1,,
5f61ba7cfdaccd165da6985b,2023-06-16_21h11.25.682,phx_ver10,2022.2.5,Win32,142.7347987,,,,,,,,,,,,35,testing_3,zh2sh,au,zh2sh_au,zh2sh_1_auzhau.wav,zh2sh_8_aushau.wav,,FALSE,FALSE,,,,,,,,,,,,,,j,0.3009,space,0.4727,,,,,,,,0,143,143,34,1,,
5f61ba7cfdaccd165da6985b,2023-06-16_21h11.25.682,phx_ver10,2022.2.5,Win32,142.7347987,,,,,,,,,,,,,,,,,,,,,,,,,,,,,,,,,,,,,,,,,,,,,,,,,,,space,1.8405
