participant,date,expName,psychopyVersion,OS,frameRate,space_1.keys,space_1.rt,space_2.keys,space_2.rt,space_train.keys,space_train.rt,training.thisRepN,training.thisTrialN,training.thisN,training.thisIndex,training.ran,token_id,task,continuum,vowel,series,sound_1,sound_2,img,same,trained,FJ_attn.keys,FJ_attn.rt,space_attn.keys,space_attn.rt,if_attn_test.thisRepN,if_attn_test.thisTrialN,if_attn_test.thisN,if_attn_test.thisIndex,if_attn_test.ran,space_trans_1.keys,space_trans_1.rt,space_trans_11.keys,space_trans_11.rt,FJ_test.keys,FJ_test.rt,space_test.keys,space_test.rt,testing_pre.thisRepN,testing_pre.thisTrialN,testing_pre.thisN,testing_pre.thisIndex,testing_pre.ran,space_trans_2.keys,space_trans_2.rt,testing_all.thisRepN,testing_all.thisTrialN,testing_all.thisN,testing_all.thisIndex,testing_all.ran,space_ending.keys,space_ending.rt
601f15c863401440ef711b68,2023-06-16_09h33.33.357,phx_ver10,2022.2.5,Win32,59.96641881,,,,,,,,,,,,,,,,,,,,,,,,,,,,,,,,,,,,,,,,,,,,,,,,,,,,
601f15c863401440ef711b68,2023-06-16_09h33.33.357,phx_ver10,2022.2.5,Win32,59.96641881,space,4.4651,,,,,,,,,,,,,,,,,,,,,,,,,,,,,,,,,,,,,,,,,,,,,,,,,,
601f15c863401440ef711b68,2023-06-16_09h33.33.357,phx_ver10,2022.2.5,Win32,59.96641881,,,space,47.9503,,,,,,,,,,,,,,,,,,,,,,,,,,,,,,,,,,,,,,,,,,,,,,,,
601f15c863401440ef711b68,2023-06-16_09h33.33.357,phx_ver10,2022.2.5,Win32,59.96641881,,,,,space,2.3402,0,0,0,12,1,13,training,zh2x,a,zh2x_a,zh2x_7_axa.wav,,axa.jpg,,,,,,,,,,,,,,,,,,,,,,,,,,,,,,,,,
601f15c863401440ef711b68,2023-06-16_09h33.33.357,phx_ver10,2022.2.5,Win32,59.96641881,,,,,space,14.881,0,1,1,35,1,36,training,zh2x,i,zh2x_i,zh2x_2_izhi.wav,,izhi.jpg,,,,,,,,,,,,,,,,,,,,,,,,,,,,,,,,,
601f15c863401440ef711b68,2023-06-16_09h33.33.357,phx_ver10,2022.2.5,Win32,59.96641881,,,,,space,10.854,0,2,2,0,1,1,training,zh2x,a,zh2x_a,zh2x_1_azha.wav,,azha.jpg,,,,,,,,,,,,,,,,,,,,,,,,,,,,,,,,,
601f15c863401440ef711b68,2023-06-16_09h33.33.357,phx_ver10,2022.2.5,Win32,59.96641881,,,,,space,0.7168,0,3,3,1,1,2,training,zh2x,a,zh2x_a,zh2x_2_azha.wav,,azha.jpg,,,,,,,,,,,,,,,,,,,,,,,,,,,,,,,,,
601f15c863401440ef711b68,2023-06-16_09h33.33.357,phx_ver10,2022.2.5,Win32,59.96641881,,,,,space,0.4516,0,4,4,2,1,3,training,zh2x,a,zh2x_a,zh2x_2_azha.wav,,azha.jpg,,,,,,,,,,,,,,,,,,,,,,,,,,,,,,,,,
601f15c863401440ef711b68,2023-06-16_09h33.33.357,phx_ver10,2022.2.5,Win32,59.96641881,,,,,space,14.0561,0,5,5,8,1,9,training,zh2x,a,zh2x_a,zh2x_5_axa.wav,,axa.jpg,,,,,,,,,,,,,,,,,,,,,,,,,,,,,,,,,
601f15c863401440ef711b68,2023-06-16_09h33.33.357,phx_ver10,2022.2.5,Win32,59.96641881,,,,,,,,,,,,,attn_test,,,,zh2x_1_azha.wav,zh2x_8_exe.wav,azha.jpg,LEFT,,f,3.4926,space,6.1955,0,0,0,0,1,,,,,,,,,,,,,,,,,,,,,,
601f15c863401440ef711b68,2023-06-16_09h33.33.357,phx_ver10,2022.2.5,Win32,59.96641881,,,,,space,11.5028,0,6,6,40,1,41,training,zh2x,i,zh2x_i,zh2x_5_ixi.wav,,ixi.jpg,,,,,,,,,,,,,,,,,,,,,,,,,,,,,,,,,
601f15c863401440ef711b68,2023-06-16_09h33.33.357,phx_ver10,2022.2.5,Win32,59.96641881,,,,,space,5.1662,0,7,7,27,1,28,training,zh2x,e,zh2x_e,zh2x_7_exe.wav,,exe.jpg,,,,,,,,,,,,,,,,,,,,,,,,,,,,,,,,,
601f15c863401440ef711b68,2023-06-16_09h33.33.357,phx_ver10,2022.2.5,Win32,59.96641881,,,,,space,0.4055,0,8,8,13,1,14,training,zh2x,a,zh2x_a,zh2x_7_axa.wav,,axa.jpg,,,,,,,,,,,,,,,,,,,,,,,,,,,,,,,,,
601f15c863401440ef711b68,2023-06-16_09h33.33.357,phx_ver10,2022.2.5,Win32,59.96641881,,,,,space,0.0851,0,9,9,33,1,34,training,zh2x,i,zh2x_i,zh2x_2_izhi.wav,,izhi.jpg,,,,,,,,,,,,,,,,,,,,,,,,,,,,,,,,,
601f15c863401440ef711b68,2023-06-16_09h33.33.357,phx_ver10,2022.2.5,Win32,59.96641881,,,,,space,0.1536,0,10,10,47,1,48,training,zh2x,i,zh2x_i,zh2x_8_ixi.wav,,ixi.jpg,,,,,,,,,,,,,,,,,,,,,,,,,,,,,,,,,
601f15c863401440ef711b68,2023-06-16_09h33.33.357,phx_ver10,2022.2.5,Win32,59.96641881,,,,,space,0.2713,0,11,11,19,1,20,training,zh2x,e,zh2x_e,zh2x_2_ezhe.wav,,ezhe.jpg,,,,,,,,,,,,,,,,,,,,,,,,,,,,,,,,,
601f15c863401440ef711b68,2023-06-16_09h33.33.357,phx_ver10,2022.2.5,Win32,59.96641881,,,,,,,,,,,,,attn_test,,,,zh2x_8_ixi.wav,zh2x_1_izhi.wav,ixi.jpg,LEFT,,f,0.9871,space,2.4391,0,0,0,0,1,,,,,,,,,,,,,,,,,,,,,,
601f15c863401440ef711b68,2023-06-16_09h33.33.357,phx_ver10,2022.2.5,Win32,59.96641881,,,,,space,0.7377,0,12,12,37,1,38,training,zh2x,i,zh2x_i,zh2x_3_izhi.wav,,izhi.jpg,,,,,,,,,,,,,,,,,,,,,,,,,,,,,,,,,
601f15c863401440ef711b68,2023-06-16_09h33.33.357,phx_ver10,2022.2.5,Win32,59.96641881,,,,,space,0.0215,0,13,13,3,1,4,training,zh2x,a,zh2x_a,zh2x_2_azha.wav,,azha.jpg,,,,,,,,,,,,,,,,,,,,,,,,,,,,,,,,,
601f15c863401440ef711b68,2023-06-16_09h33.33.357,phx_ver10,2022.2.5,Win32,59.96641881,,,,,space,0.201,0,14,14,9,1,10,training,zh2x,a,zh2x_a,zh2x_6_axa.wav,,axa.jpg,,,,,,,,,,,,,,,,,,,,,,,,,,,,,,,,,
601f15c863401440ef711b68,2023-06-16_09h33.33.357,phx_ver10,2022.2.5,Win32,59.96641881,,,,,space,0.4448,0,15,15,7,1,8,training,zh2x,a,zh2x_a,zh2x_4_azha.wav,,azha.jpg,,,,,,,,,,,,,,,,,,,,,,,,,,,,,,,,,
601f15c863401440ef711b68,2023-06-16_09h33.33.357,phx_ver10,2022.2.5,Win32,59.96641881,,,,,space,0.9538,0,16,16,46,1,47,training,zh2x,i,zh2x_i,zh2x_7_ixi.wav,,ixi.jpg,,,,,,,,,,,,,,,,,,,,,,,,,,,,,,,,,
601f15c863401440ef711b68,2023-06-16_09h33.33.357,phx_ver10,2022.2.5,Win32,59.96641881,,,,,space,0.4557,0,17,17,26,1,27,training,zh2x,e,zh2x_e,zh2x_6_exe.wav,,exe.jpg,,,,,,,,,,,,,,,,,,,,,,,,,,,,,,,,,
601f15c863401440ef711b68,2023-06-16_09h33.33.357,phx_ver10,2022.2.5,Win32,59.96641881,,,,,,,,,,,,,attn_test,,,,zh2x_8_exe.wav,zh2x_1_azha.wav,azha.jpg,RIGHT,,j,0.5696,space,1.4851,0,0,0,0,1,,,,,,,,,,,,,,,,,,,,,,
601f15c863401440ef711b68,2023-06-16_09h33.33.357,phx_ver10,2022.2.5,Win32,59.96641881,,,,,space,1.8921,0,18,18,45,1,46,training,zh2x,i,zh2x_i,zh2x_7_ixi.wav,,ixi.jpg,,,,,,,,,,,,,,,,,,,,,,,,,,,,,,,,,
601f15c863401440ef711b68,2023-06-16_09h33.33.357,phx_ver10,2022.2.5,Win32,59.96641881,,,,,space,0.5178,0,19,19,32,1,33,training,zh2x,i,zh2x_i,zh2x_1_izhi.wav,,izhi.jpg,,,,,,,,,,,,,,,,,,,,,,,,,,,,,,,,,
601f15c863401440ef711b68,2023-06-16_09h33.33.357,phx_ver10,2022.2.5,Win32,59.96641881,,,,,space,0.3368,0,20,20,23,1,24,training,zh2x,e,zh2x_e,zh2x_4_ezhe.wav,,ezhe.jpg,,,,,,,,,,,,,,,,,,,,,,,,,,,,,,,,,
601f15c863401440ef711b68,2023-06-16_09h33.33.357,phx_ver10,2022.2.5,Win32,59.96641881,,,,,space,0.018,0,21,21,24,1,25,training,zh2x,e,zh2x_e,zh2x_5_exe.wav,,exe.jpg,,,,,,,,,,,,,,,,,,,,,,,,,,,,,,,,,
601f15c863401440ef711b68,2023-06-16_09h33.33.357,phx_ver10,2022.2.5,Win32,59.96641881,,,,,space,0.8686,0,22,22,18,1,19,training,zh2x,e,zh2x_e,zh2x_2_ezhe.wav,,ezhe.jpg,,,,,,,,,,,,,,,,,,,,,,,,,,,,,,,,,
601f15c863401440ef711b68,2023-06-16_09h33.33.357,phx_ver10,2022.2.5,Win32,59.96641881,,,,,space,0.1172,0,23,23,43,1,44,training,zh2x,i,zh2x_i,zh2x_7_ixi.wav,,ixi.jpg,,,,,,,,,,,,,,,,,,,,,,,,,,,,,,,,,
601f15c863401440ef711b68,2023-06-16_09h33.33.357,phx_ver10,2022.2.5,Win32,59.96641881,,,,,,,,,,,,,attn_test,,,,zh2x_1_izhi.wav,zh2x_8_exe.wav,exe.jpg,RIGHT,,j,0.2675,space,1.1513,0,0,0,0,1,,,,,,,,,,,,,,,,,,,,,,
601f15c863401440ef711b68,2023-06-16_09h33.33.357,phx_ver10,2022.2.5,Win32,59.96641881,,,,,space,0.6061,0,24,24,42,1,43,training,zh2x,i,zh2x_i,zh2x_6_ixi.wav,,ixi.jpg,,,,,,,,,,,,,,,,,,,,,,,,,,,,,,,,,
601f15c863401440ef711b68,2023-06-16_09h33.33.357,phx_ver10,2022.2.5,Win32,59.96641881,,,,,space,0.5789,0,25,25,31,1,32,training,zh2x,e,zh2x_e,zh2x_8_exe.wav,,exe.jpg,,,,,,,,,,,,,,,,,,,,,,,,,,,,,,,,,
601f15c863401440ef711b68,2023-06-16_09h33.33.357,phx_ver10,2022.2.5,Win32,59.96641881,,,,,space,0.3109,0,26,26,28,1,29,training,zh2x,e,zh2x_e,zh2x_7_exe.wav,,exe.jpg,,,,,,,,,,,,,,,,,,,,,,,,,,,,,,,,,
601f15c863401440ef711b68,2023-06-16_09h33.33.357,phx_ver10,2022.2.5,Win32,59.96641881,,,,,space,0.6177,0,27,27,5,1,6,training,zh2x,a,zh2x_a,zh2x_3_azha.wav,,azha.jpg,,,,,,,,,,,,,,,,,,,,,,,,,,,,,,,,,
601f15c863401440ef711b68,2023-06-16_09h33.33.357,phx_ver10,2022.2.5,Win32,59.96641881,,,,,space,0.4544,0,28,28,21,1,22,training,zh2x,e,zh2x_e,zh2x_3_ezhe.wav,,ezhe.jpg,,,,,,,,,,,,,,,,,,,,,,,,,,,,,,,,,
601f15c863401440ef711b68,2023-06-16_09h33.33.357,phx_ver10,2022.2.5,Win32,59.96641881,,,,,space,0.0392,0,29,29,36,1,37,training,zh2x,i,zh2x_i,zh2x_2_izhi.wav,,izhi.jpg,,,,,,,,,,,,,,,,,,,,,,,,,,,,,,,,,
601f15c863401440ef711b68,2023-06-16_09h33.33.357,phx_ver10,2022.2.5,Win32,59.96641881,,,,,,,,,,,,,attn_test,,,,zh2x_1_izhi.wav,zh2x_8_ixi.wav,izhi.jpg,LEFT,,f,4.1894,space,4.5681,0,0,0,0,1,,,,,,,,,,,,,,,,,,,,,,
601f15c863401440ef711b68,2023-06-16_09h33.33.357,phx_ver10,2022.2.5,Win32,59.96641881,,,,,space,0.4716,0,30,30,6,1,7,training,zh2x,a,zh2x_a,zh2x_3_azha.wav,,azha.jpg,,,,,,,,,,,,,,,,,,,,,,,,,,,,,,,,,
601f15c863401440ef711b68,2023-06-16_09h33.33.357,phx_ver10,2022.2.5,Win32,59.96641881,,,,,space,0.7519,0,31,31,11,1,12,training,zh2x,a,zh2x_a,zh2x_7_axa.wav,,axa.jpg,,,,,,,,,,,,,,,,,,,,,,,,,,,,,,,,,
601f15c863401440ef711b68,2023-06-16_09h33.33.357,phx_ver10,2022.2.5,Win32,59.96641881,,,,,space,0.1193,0,32,32,14,1,15,training,zh2x,a,zh2x_a,zh2x_7_axa.wav,,axa.jpg,,,,,,,,,,,,,,,,,,,,,,,,,,,,,,,,,
601f15c863401440ef711b68,2023-06-16_09h33.33.357,phx_ver10,2022.2.5,Win32,59.96641881,,,,,space,0.4527,0,33,33,4,1,5,training,zh2x,a,zh2x_a,zh2x_2_azha.wav,,azha.jpg,,,,,,,,,,,,,,,,,,,,,,,,,,,,,,,,,
601f15c863401440ef711b68,2023-06-16_09h33.33.357,phx_ver10,2022.2.5,Win32,59.96641881,,,,,space,0.4531,0,34,34,34,1,35,training,zh2x,i,zh2x_i,zh2x_2_izhi.wav,,izhi.jpg,,,,,,,,,,,,,,,,,,,,,,,,,,,,,,,,,
601f15c863401440ef711b68,2023-06-16_09h33.33.357,phx_ver10,2022.2.5,Win32,59.96641881,,,,,space,0.0512,0,35,35,44,1,45,training,zh2x,i,zh2x_i,zh2x_7_ixi.wav,,ixi.jpg,,,,,,,,,,,,,,,,,,,,,,,,,,,,,,,,,
601f15c863401440ef711b68,2023-06-16_09h33.33.357,phx_ver10,2022.2.5,Win32,59.96641881,,,,,,,,,,,,,attn_test,,,,zh2x_8_axa.wav,zh2x_1_izhi.wav,axa.jpg,LEFT,,f,1.2853,space,1.653,0,0,0,0,1,,,,,,,,,,,,,,,,,,,,,,
601f15c863401440ef711b68,2023-06-16_09h33.33.357,phx_ver10,2022.2.5,Win32,59.96641881,,,,,space,0.2665,0,36,36,30,1,31,training,zh2x,e,zh2x_e,zh2x_7_exe.wav,,exe.jpg,,,,,,,,,,,,,,,,,,,,,,,,,,,,,,,,,
601f15c863401440ef711b68,2023-06-16_09h33.33.357,phx_ver10,2022.2.5,Win32,59.96641881,,,,,space,0.0627,0,37,37,16,1,17,training,zh2x,e,zh2x_e,zh2x_1_ezhe.wav,,ezhe.jpg,,,,,,,,,,,,,,,,,,,,,,,,,,,,,,,,,
601f15c863401440ef711b68,2023-06-16_09h33.33.357,phx_ver10,2022.2.5,Win32,59.96641881,,,,,space,0.2058,0,38,38,29,1,30,training,zh2x,e,zh2x_e,zh2x_7_exe.wav,,exe.jpg,,,,,,,,,,,,,,,,,,,,,,,,,,,,,,,,,
601f15c863401440ef711b68,2023-06-16_09h33.33.357,phx_ver10,2022.2.5,Win32,59.96641881,,,,,space,0.1536,0,39,39,22,1,23,training,zh2x,e,zh2x_e,zh2x_3_ezhe.wav,,ezhe.jpg,,,,,,,,,,,,,,,,,,,,,,,,,,,,,,,,,
601f15c863401440ef711b68,2023-06-16_09h33.33.357,phx_ver10,2022.2.5,Win32,59.96641881,,,,,space,0.5479,0,40,40,15,1,16,training,zh2x,a,zh2x_a,zh2x_8_axa.wav,,axa.jpg,,,,,,,,,,,,,,,,,,,,,,,,,,,,,,,,,
601f15c863401440ef711b68,2023-06-16_09h33.33.357,phx_ver10,2022.2.5,Win32,59.96641881,,,,,space,0.1842,0,41,41,41,1,42,training,zh2x,i,zh2x_i,zh2x_6_ixi.wav,,ixi.jpg,,,,,,,,,,,,,,,,,,,,,,,,,,,,,,,,,
601f15c863401440ef711b68,2023-06-16_09h33.33.357,phx_ver10,2022.2.5,Win32,59.96641881,,,,,,,,,,,,,attn_test,,,,zh2x_8_exe.wav,zh2x_8_axa.wav,axa.jpg,RIGHT,,j,1.7511,space,2.1395,0,0,0,0,1,,,,,,,,,,,,,,,,,,,,,,
601f15c863401440ef711b68,2023-06-16_09h33.33.357,phx_ver10,2022.2.5,Win32,59.96641881,,,,,space,0.1328,0,42,42,38,1,39,training,zh2x,i,zh2x_i,zh2x_3_izhi.wav,,izhi.jpg,,,,,,,,,,,,,,,,,,,,,,,,,,,,,,,,,
601f15c863401440ef711b68,2023-06-16_09h33.33.357,phx_ver10,2022.2.5,Win32,59.96641881,,,,,space,0.0842,0,43,43,10,1,11,training,zh2x,a,zh2x_a,zh2x_6_axa.wav,,axa.jpg,,,,,,,,,,,,,,,,,,,,,,,,,,,,,,,,,
601f15c863401440ef711b68,2023-06-16_09h33.33.357,phx_ver10,2022.2.5,Win32,59.96641881,,,,,space,0.1846,0,44,44,39,1,40,training,zh2x,i,zh2x_i,zh2x_4_izhi.wav,,izhi.jpg,,,,,,,,,,,,,,,,,,,,,,,,,,,,,,,,,
601f15c863401440ef711b68,2023-06-16_09h33.33.357,phx_ver10,2022.2.5,Win32,59.96641881,,,,,space,0.1446,0,45,45,20,1,21,training,zh2x,e,zh2x_e,zh2x_2_ezhe.wav,,ezhe.jpg,,,,,,,,,,,,,,,,,,,,,,,,,,,,,,,,,
601f15c863401440ef711b68,2023-06-16_09h33.33.357,phx_ver10,2022.2.5,Win32,59.96641881,,,,,space,3.2354,0,46,46,17,1,18,training,zh2x,e,zh2x_e,zh2x_2_ezhe.wav,,ezhe.jpg,,,,,,,,,,,,,,,,,,,,,,,,,,,,,,,,,
601f15c863401440ef711b68,2023-06-16_09h33.33.357,phx_ver10,2022.2.5,Win32,59.96641881,,,,,space,1.303,0,47,47,25,1,26,training,zh2x,e,zh2x_e,zh2x_6_exe.wav,,exe.jpg,,,,,,,,,,,,,,,,,,,,,,,,,,,,,,,,,
601f15c863401440ef711b68,2023-06-16_09h33.33.357,phx_ver10,2022.2.5,Win32,59.96641881,,,,,,,,,,,,,attn_test,,,,zh2x_1_izhi.wav,zh2x_8_axa.wav,izhi.jpg,LEFT,,j,6.3017,space,6.6691,,,,,,,,,,,,,,,,,,,,,,,,,,,
601f15c863401440ef711b68,2023-06-16_09h33.33.357,phx_ver10,2022.2.5,Win32,59.96641881,,,,,,,,,,,,,,,,,,,,,,,,,,,,,,,space,2.6486,,,,,,,,,,,,,,,,,,,,
601f15c863401440ef711b68,2023-06-16_09h33.33.357,phx_ver10,2022.2.5,Win32,59.96641881,,,,,,,,,,,,,,,,,,,,,,,,,,,,,,,,,space,4.7118,,,,,,,,,,,,,,,,,,
601f15c863401440ef711b68,2023-06-16_09h33.33.357,phx_ver10,2022.2.5,Win32,59.96641881,,,,,,,,,,,,4,testing_pre,,,,eihei.wav,eihei.wav,,TRUE,,,,,,,,,,,,,,,f,2.3356,space,3.1925,0,0,0,3,1,,,,,,,,,
601f15c863401440ef711b68,2023-06-16_09h33.33.357,phx_ver10,2022.2.5,Win32,59.96641881,,,,,,,,,,,,3,testing_pre,,,,afa.wav,aha.wav,,FALSE,,,,,,,,,,,,,,,j,0.3691,space,0.7679,0,1,1,2,1,,,,,,,,,
601f15c863401440ef711b68,2023-06-16_09h33.33.357,phx_ver10,2022.2.5,Win32,59.96641881,,,,,,,,,,,,2,testing_pre,,,,auhau.wav,aufau.wav,,FALSE,,,,,,,,,,,,,,,j,0.3176,space,0.522,0,2,2,1,1,,,,,,,,,
601f15c863401440ef711b68,2023-06-16_09h33.33.357,phx_ver10,2022.2.5,Win32,59.96641881,,,,,,,,,,,,1,testing_pre,,,,ifi.wav,ifi.wav,,TRUE,,,,,,,,,,,,,,,f,0.008,space,0.3325,0,3,3,0,1,,,,,,,,,
601f15c863401440ef711b68,2023-06-16_09h33.33.357,phx_ver10,2022.2.5,Win32,59.96641881,,,,,,,,,,,,5,testing_pre,,,,ihi.wav,ifi.wav,,FALSE,,,,,,,,,,,,,,,j,0.0743,space,0.2707,0,4,4,4,1,,,,,,,,,
601f15c863401440ef711b68,2023-06-16_09h33.33.357,phx_ver10,2022.2.5,Win32,59.96641881,,,,,,,,,,,,,,,,,,,,,,,,,,,,,,,,,,,,,,,,,,,,space,0.9022,,,,,,,
601f15c863401440ef711b68,2023-06-16_09h33.33.357,phx_ver10,2022.2.5,Win32,59.96641881,,,,,,,,,,,,36,testing_3,zh2sh,au,zh2sh_au,zh2sh_8_aushau.wav,zh2sh_1_auzhau.wav,,FALSE,FALSE,,,,,,,,,,,,,,j,0.3602,space,0.6526,,,,,,,,0,0,0,35,1,,
601f15c863401440ef711b68,2023-06-16_09h33.33.357,phx_ver10,2022.2.5,Win32,59.96641881,,,,,,,,,,,,86,testing_3,j2x,e,j2x_e,j2x_8_exe.wav,j2x_8_exe.wav,,TRUE,FALSE,,,,,,,,,,,,,,f,0.1509,space,0.4534,,,,,,,,0,1,1,85,1,,
601f15c863401440ef711b68,2023-06-16_09h33.33.357,phx_ver10,2022.2.5,Win32,59.96641881,,,,,,,,,,,,134,testing_3,sh2j,e,sh2j_e,sh2j_8_eje.wav,sh2j_8_eje.wav,,TRUE,FALSE,,,,,,,,,,,,,,f,0.8404,space,1.0872,,,,,,,,0,2,2,133,1,,
601f15c863401440ef711b68,2023-06-16_09h33.33.357,phx_ver10,2022.2.5,Win32,59.96641881,,,,,,,,,,,,35,testing_3,zh2sh,au,zh2sh_au,zh2sh_1_auzhau.wav,zh2sh_8_aushau.wav,,FALSE,FALSE,,,,,,,,,,,,,,j,1.0347,space,1.3679,,,,,,,,0,3,3,34,1,,
601f15c863401440ef711b68,2023-06-16_09h33.33.357,phx_ver10,2022.2.5,Win32,59.96641881,,,,,,,,,,,,58,testing_3,zh2j,au,zh2j_au,zh2j_8_aujau.wav,zh2j_8_aujau.wav,,TRUE,FALSE,,,,,,,,,,,,,,f,0.1007,space,0.4345,,,,,,,,0,4,4,57,1,,
601f15c863401440ef711b68,2023-06-16_09h33.33.357,phx_ver10,2022.2.5,Win32,59.96641881,,,,,,,,,,,,38,testing_3,zh2sh,e,zh2sh_e,zh2sh_8_eshe.wav,zh2sh_8_eshe.wav,,TRUE,FALSE,,,,,,,,,,,,,,f,0.0006,space,0.3249,,,,,,,,0,5,5,37,1,,
601f15c863401440ef711b68,2023-06-16_09h33.33.357,phx_ver10,2022.2.5,Win32,59.96641881,,,,,,,,,,,,126,testing_3,sh2j,ai,sh2j_ai,sh2j_8_aijai.wav,sh2j_8_aijai.wav,,TRUE,FALSE,,,,,,,,,,,,,,f,0.1238,space,0.4407,,,,,,,,0,6,6,125,1,,
601f15c863401440ef711b68,2023-06-16_09h33.33.357,phx_ver10,2022.2.5,Win32,59.96641881,,,,,,,,,,,,29,testing_3,zh2sh,ai,zh2sh_ai,zh2sh_1_aizhai.wav,zh2sh_1_aizhai.wav,,TRUE,FALSE,,,,,,,,,,,,,,f,0.0588,space,0.3913,,,,,,,,0,7,7,28,1,,
601f15c863401440ef711b68,2023-06-16_09h33.33.357,phx_ver10,2022.2.5,Win32,59.96641881,,,,,,,,,,,,123,testing_3,sh2j,a,sh2j_a,sh2j_1_asha.wav,sh2j_8_aja.wav,,FALSE,FALSE,,,,,,,,,,,,,,j,0.0511,space,0.2514,,,,,,,,0,8,8,122,1,,
601f15c863401440ef711b68,2023-06-16_09h33.33.357,phx_ver10,2022.2.5,Win32,59.96641881,,,,,,,,,,,,111,testing_3,sh2x,e,sh2x_e,sh2x_1_eshe.wav,sh2x_8_exe.wav,,FALSE,FALSE,,,,,,,,,,,,,,j,0.0375,space,0.3246,,,,,,,,0,9,9,110,1,,
601f15c863401440ef711b68,2023-06-16_09h33.33.357,phx_ver10,2022.2.5,Win32,59.96641881,,,,,,,,,,,,144,testing_3,sh2j,i,sh2j_i,sh2j_8_iji.wav,sh2j_1_ishi.wav,,FALSE,FALSE,,,,,,,,,,,,,,j,0.6532,space,0.9702,,,,,,,,0,10,10,143,1,,
601f15c863401440ef711b68,2023-06-16_09h33.33.357,phx_ver10,2022.2.5,Win32,59.96641881,,,,,,,,,,,,22,testing_2,zh2x,ei,zh2x_ei,zh2x_8_eixei.wav,zh2x_8_eixei.wav,,TRUE,FALSE,,,,,,,,,,,,,,f,2.8526,space,3.219,,,,,,,,0,11,11,21,1,,
601f15c863401440ef711b68,2023-06-16_09h33.33.357,phx_ver10,2022.2.5,Win32,59.96641881,,,,,,,,,,,,13,testing_2,zh2x,ai,zh2x_ai,zh2x_1_aizhai.wav,zh2x_1_aizhai.wav,,TRUE,FALSE,,,,,,,,,,,,,,f,0.0394,space,0.4672,,,,,,,,0,12,12,12,1,,
601f15c863401440ef711b68,2023-06-16_09h33.33.357,phx_ver10,2022.2.5,Win32,59.96641881,,,,,,,,,,,,37,testing_3,zh2sh,e,zh2sh_e,zh2sh_1_ezhe.wav,zh2sh_1_ezhe.wav,,TRUE,FALSE,,,,,,,,,,,,,,f,0.306,space,0.6831,,,,,,,,0,13,13,36,1,,
601f15c863401440ef711b68,2023-06-16_09h33.33.357,phx_ver10,2022.2.5,Win32,59.96641881,,,,,,,,,,,,99,testing_3,sh2x,a,sh2x_a,sh2x_1_asha.wav,sh2x_8_axa.wav,,FALSE,FALSE,,,,,,,,,,,,,,j,0.3185,space,0.7694,,,,,,,,0,14,14,98,1,,
601f15c863401440ef711b68,2023-06-16_09h33.33.357,phx_ver10,2022.2.5,Win32,59.96641881,,,,,,,,,,,,110,testing_3,sh2x,e,sh2x_e,sh2x_8_exe.wav,sh2x_8_exe.wav,,TRUE,FALSE,,,,,,,,,,,,,,f,0.2843,space,1.3674,,,,,,,,0,15,15,109,1,,
601f15c863401440ef711b68,2023-06-16_09h33.33.357,phx_ver10,2022.2.5,Win32,59.96641881,,,,,,,,,,,,83,testing_3,j2x,au,j2x_au,j2x_1_aujau.wav,j2x_8_auxau.wav,,FALSE,FALSE,,,,,,,,,,,,,,j,1.0002,space,1.3848,,,,,,,,0,16,16,82,1,,
601f15c863401440ef711b68,2023-06-16_09h33.33.357,phx_ver10,2022.2.5,Win32,59.96641881,,,,,,,,,,,,46,testing_3,zh2sh,i,zh2sh_i,zh2sh_8_ishi.wav,zh2sh_8_ishi.wav,,TRUE,FALSE,,,,,,,,,,,,,,f,0.0417,space,0.4675,,,,,,,,0,17,17,45,1,,
601f15c863401440ef711b68,2023-06-16_09h33.33.357,phx_ver10,2022.2.5,Win32,59.96641881,,,,,,,,,,,,80,testing_3,j2x,ai,j2x_ai,j2x_8_aixai.wav,j2x_1_aijai.wav,,FALSE,FALSE,,,,,,,,,,,,,,j,0.5512,space,1.0342,,,,,,,,0,18,18,79,1,,
601f15c863401440ef711b68,2023-06-16_09h33.33.357,phx_ver10,2022.2.5,Win32,59.96641881,,,,,,,,,,,,120,testing_3,sh2x,i,sh2x_i,sh2x_8_ixi.wav,sh2x_1_ishi.wav,,FALSE,FALSE,,,,,,,,,,,,,,j,0.2154,space,0.5542,,,,,,,,0,19,19,119,1,,
601f15c863401440ef711b68,2023-06-16_09h33.33.357,phx_ver10,2022.2.5,Win32,59.96641881,,,,,,,,,,,,89,testing_3,j2x,ei,j2x_ei,j2x_1_eijei.wav,j2x_1_eijei.wav,,TRUE,FALSE,,,,,,,,,,,,,,f,0.1258,space,0.6762,,,,,,,,0,20,20,88,1,,
601f15c863401440ef711b68,2023-06-16_09h33.33.357,phx_ver10,2022.2.5,Win32,59.96641881,,,,,,,,,,,,114,testing_3,sh2x,ei,sh2x_ei,sh2x_8_eixei.wav,sh2x_8_eixei.wav,,TRUE,FALSE,,,,,,,,,,,,,,f,0.0852,space,0.5352,,,,,,,,0,21,21,113,1,,
601f15c863401440ef711b68,2023-06-16_09h33.33.357,phx_ver10,2022.2.5,Win32,59.96641881,,,,,,,,,,,,41,testing_3,zh2sh,ei,zh2sh_ei,zh2sh_1_eizhei.wav,zh2sh_1_eizhei.wav,,TRUE,FALSE,,,,,,,,,,,,,,f,0.0177,space,0.4514,,,,,,,,0,22,22,40,1,,
601f15c863401440ef711b68,2023-06-16_09h33.33.357,phx_ver10,2022.2.5,Win32,59.96641881,,,,,,,,,,,,3,testing_1,zh2x,a,zh2x_a,zh2x_1_azha.wav,zh2x_8_axa.wav,,FALSE,TRUE,,,,,,,,,,,,,,j,0.0359,space,0.568,,,,,,,,0,23,23,2,1,,
601f15c863401440ef711b68,2023-06-16_09h33.33.357,phx_ver10,2022.2.5,Win32,59.96641881,,,,,,,,,,,,32,testing_3,zh2sh,ai,zh2sh_ai,zh2sh_8_aishai.wav,zh2sh_1_aizhai.wav,,FALSE,FALSE,,,,,,,,,,,,,,j,0.0504,space,0.4392,,,,,,,,0,24,24,31,1,,
601f15c863401440ef711b68,2023-06-16_09h33.33.357,phx_ver10,2022.2.5,Win32,59.96641881,,,,,,,,,,,,20,testing_2,zh2x,au,zh2x_au,zh2x_8_auxau.wav,zh2x_1_auzhau.wav,,FALSE,FALSE,,,,,,,,,,,,,,j,0.1044,space,0.5009,,,,,,,,0,25,25,19,1,,
601f15c863401440ef711b68,2023-06-16_09h33.33.357,phx_ver10,2022.2.5,Win32,59.96641881,,,,,,,,,,,,52,testing_3,zh2j,a,zh2j_a,zh2j_8_aja.wav,zh2j_1_azha.wav,,FALSE,FALSE,,,,,,,,,,,,,,f,0.101,space,0.5677,,,,,,,,0,26,26,51,1,,
601f15c863401440ef711b68,2023-06-16_09h33.33.357,phx_ver10,2022.2.5,Win32,59.96641881,,,,,,,,,,,,64,testing_3,zh2j,e,zh2j_e,zh2j_8_eje.wav,zh2j_1_ezhe.wav,,FALSE,FALSE,,,,,,,,,,,,,,f,0.1429,space,0.6011,,,,,,,,0,27,27,63,1,,
601f15c863401440ef711b68,2023-06-16_09h33.33.357,phx_ver10,2022.2.5,Win32,59.96641881,,,,,,,,,,,,26,testing_3,zh2sh,a,zh2sh_a,zh2sh_8_asha.wav,zh2sh_8_asha.wav,,TRUE,FALSE,,,,,,,,,,,,,,f,0.1674,space,0.7026,,,,,,,,0,28,28,25,1,,
601f15c863401440ef711b68,2023-06-16_09h33.33.357,phx_ver10,2022.2.5,Win32,59.96641881,,,,,,,,,,,,14,testing_2,zh2x,ai,zh2x_ai,zh2x_8_aixai.wav,zh2x_8_aixai.wav,,TRUE,FALSE,,,,,,,,,,,,,,f,0.0687,space,0.4754,,,,,,,,0,29,29,13,1,,
601f15c863401440ef711b68,2023-06-16_09h33.33.357,phx_ver10,2022.2.5,Win32,59.96641881,,,,,,,,,,,,116,testing_3,sh2x,ei,sh2x_ei,sh2x_8_eixei.wav,sh2x_1_eishei.wav,,FALSE,FALSE,,,,,,,,,,,,,,j,0.2377,space,0.6339,,,,,,,,0,30,30,115,1,,
601f15c863401440ef711b68,2023-06-16_09h33.33.357,phx_ver10,2022.2.5,Win32,59.96641881,,,,,,,,,,,,132,testing_3,sh2j,au,sh2j_au,sh2j_8_aujau.wav,sh2j_1_aushau.wav,,FALSE,FALSE,,,,,,,,,,,,,,j,0.4536,space,0.8437,,,,,,,,0,31,31,131,1,,
601f15c863401440ef711b68,2023-06-16_09h33.33.357,phx_ver10,2022.2.5,Win32,59.96641881,,,,,,,,,,,,61,testing_3,zh2j,e,zh2j_e,zh2j_1_ezhe.wav,zh2j_1_ezhe.wav,,TRUE,FALSE,,,,,,,,,,,,,,f,0.0182,space,0.5888,,,,,,,,0,32,32,60,1,,
601f15c863401440ef711b68,2023-06-16_09h33.33.357,phx_ver10,2022.2.5,Win32,59.96641881,,,,,,,,,,,,115,testing_3,sh2x,ei,sh2x_ei,sh2x_1_eishei.wav,sh2x_8_eixei.wav,,FALSE,FALSE,,,,,,,,,,,,,,j,0.0728,space,0.5691,,,,,,,,0,33,33,114,1,,
601f15c863401440ef711b68,2023-06-16_09h33.33.357,phx_ver10,2022.2.5,Win32,59.96641881,,,,,,,,,,,,140,testing_3,sh2j,ei,sh2j_ei,sh2j_8_eijei.wav,sh2j_1_eishei.wav,,FALSE,FALSE,,,,,,,,,,,,,,j,0.3675,space,0.7563,,,,,,,,0,34,34,139,1,,
601f15c863401440ef711b68,2023-06-16_09h33.33.357,phx_ver10,2022.2.5,Win32,59.96641881,,,,,,,,,,,,49,testing_3,zh2j,a,zh2j_a,zh2j_1_azha.wav,zh2j_1_azha.wav,,TRUE,FALSE,,,,,,,,,,,,,,f,0.0721,space,0.5327,,,,,,,,0,35,35,48,1,,
601f15c863401440ef711b68,2023-06-16_09h33.33.357,phx_ver10,2022.2.5,Win32,59.96641881,,,,,,,,,,,,125,testing_3,sh2j,ai,sh2j_ai,sh2j_1_aishai.wav,sh2j_1_aishai.wav,,TRUE,FALSE,,,,,,,,,,,,,,f,0.3154,space,0.735,,,,,,,,0,36,36,124,1,,
601f15c863401440ef711b68,2023-06-16_09h33.33.357,phx_ver10,2022.2.5,Win32,59.96641881,,,,,,,,,,,,117,testing_3,sh2x,i,sh2x_i,sh2x_1_ishi.wav,sh2x_1_ishi.wav,,TRUE,FALSE,,,,,,,,,,,,,,f,0.0868,space,0.6022,,,,,,,,0,37,37,116,1,,
601f15c863401440ef711b68,2023-06-16_09h33.33.357,phx_ver10,2022.2.5,Win32,59.96641881,,,,,,,,,,,,50,testing_3,zh2j,a,zh2j_a,zh2j_8_aja.wav,zh2j_8_aja.wav,,TRUE,FALSE,,,,,,,,,,,,,,f,0.2063,space,0.5669,,,,,,,,0,38,38,49,1,,
601f15c863401440ef711b68,2023-06-16_09h33.33.357,phx_ver10,2022.2.5,Win32,59.96641881,,,,,,,,,,,,129,testing_3,sh2j,au,sh2j_au,sh2j_1_aushau.wav,sh2j_1_aushau.wav,,TRUE,FALSE,,,,,,,,,,,,,,f,0.0681,space,0.4717,,,,,,,,0,39,39,128,1,,
601f15c863401440ef711b68,2023-06-16_09h33.33.357,phx_ver10,2022.2.5,Win32,59.96641881,,,,,,,,,,,,118,testing_3,sh2x,i,sh2x_i,sh2x_8_ixi.wav,sh2x_8_ixi.wav,,TRUE,FALSE,,,,,,,,,,,,,,f,0.4893,space,0.8848,,,,,,,,0,40,40,117,1,,
601f15c863401440ef711b68,2023-06-16_09h33.33.357,phx_ver10,2022.2.5,Win32,59.96641881,,,,,,,,,,,,103,testing_3,sh2x,ai,sh2x_ai,sh2x_1_aishai.wav,sh2x_8_aixai.wav,,FALSE,FALSE,,,,,,,,,,,,,,j,0.2206,space,0.651,,,,,,,,0,41,41,102,1,,
601f15c863401440ef711b68,2023-06-16_09h33.33.357,phx_ver10,2022.2.5,Win32,59.96641881,,,,,,,,,,,,84,testing_3,j2x,au,j2x_au,j2x_8_auxau.wav,j2x_1_aujau.wav,,FALSE,FALSE,,,,,,,,,,,,,,j,1.7506,space,2.1231,,,,,,,,0,42,42,83,1,,
601f15c863401440ef711b68,2023-06-16_09h33.33.357,phx_ver10,2022.2.5,Win32,59.96641881,,,,,,,,,,,,139,testing_3,sh2j,ei,sh2j_ei,sh2j_1_eishei.wav,sh2j_8_eijei.wav,,FALSE,FALSE,,,,,,,,,,,,,,j,0.0345,space,0.5676,,,,,,,,0,43,43,138,1,,
601f15c863401440ef711b68,2023-06-16_09h33.33.357,phx_ver10,2022.2.5,Win32,59.96641881,,,,,,,,,,,,133,testing_3,sh2j,e,sh2j_e,sh2j_1_eshe.wav,sh2j_1_eshe.wav,,TRUE,FALSE,,,,,,,,,,,,,,f,0.8846,space,1.3242,,,,,,,,0,44,44,132,1,,
601f15c863401440ef711b68,2023-06-16_09h33.33.357,phx_ver10,2022.2.5,Win32,59.96641881,,,,,,,,,,,,67,testing_3,zh2j,ei,zh2j_ei,zh2j_1_eizhei.wav,zh2j_8_eijei.wav,,FALSE,FALSE,,,,,,,,,,,,,,j,0.3004,space,0.7384,,,,,,,,0,45,45,66,1,,
601f15c863401440ef711b68,2023-06-16_09h33.33.357,phx_ver10,2022.2.5,Win32,59.96641881,,,,,,,,,,,,124,testing_3,sh2j,a,sh2j_a,sh2j_8_aja.wav,sh2j_1_asha.wav,,FALSE,FALSE,,,,,,,,,,,,,,j,0.2845,space,0.6194,,,,,,,,0,46,46,123,1,,
601f15c863401440ef711b68,2023-06-16_09h33.33.357,phx_ver10,2022.2.5,Win32,59.96641881,,,,,,,,,,,,97,testing_3,sh2x,a,sh2x_a,sh2x_1_asha.wav,sh2x_1_asha.wav,,TRUE,FALSE,,,,,,,,,,,,,,f,0.1217,space,0.6367,,,,,,,,0,47,47,96,1,,
601f15c863401440ef711b68,2023-06-16_09h33.33.357,phx_ver10,2022.2.5,Win32,59.96641881,,,,,,,,,,,,102,testing_3,sh2x,ai,sh2x_ai,sh2x_8_aixai.wav,sh2x_8_aixai.wav,,TRUE,FALSE,,,,,,,,,,,,,,f,0.134,space,0.4738,,,,,,,,0,48,48,101,1,,
601f15c863401440ef711b68,2023-06-16_09h33.33.357,phx_ver10,2022.2.5,Win32,59.96641881,,,,,,,,,,,,57,testing_3,zh2j,au,zh2j_au,zh2j_1_auzhau.wav,zh2j_1_auzhau.wav,,TRUE,FALSE,,,,,,,,,,,,,,f,0.0906,space,0.4508,,,,,,,,0,49,49,56,1,,
601f15c863401440ef711b68,2023-06-16_09h33.33.357,phx_ver10,2022.2.5,Win32,59.96641881,,,,,,,,,,,,142,testing_3,sh2j,i,sh2j_i,sh2j_8_iji.wav,sh2j_8_iji.wav,,TRUE,FALSE,,,,,,,,,,,,,,f,0.1511,space,0.4506,,,,,,,,0,50,50,141,1,,
601f15c863401440ef711b68,2023-06-16_09h33.33.357,phx_ver10,2022.2.5,Win32,59.96641881,,,,,,,,,,,,68,testing_3,zh2j,ei,zh2j_ei,zh2j_8_eijei.wav,zh2j_1_eizhei.wav,,FALSE,FALSE,,,,,,,,,,,,,,f,0.3019,space,0.5562,,,,,,,,0,51,51,67,1,,
601f15c863401440ef711b68,2023-06-16_09h33.33.357,phx_ver10,2022.2.5,Win32,59.96641881,,,,,,,,,,,,70,testing_3,zh2j,i,zh2j_i,zh2j_8_iji.wav,zh2j_8_iji.wav,,TRUE,FALSE,,,,,,,,,,,,,,j,0.036,space,0.2682,,,,,,,,0,52,52,69,1,,
601f15c863401440ef711b68,2023-06-16_09h33.33.357,phx_ver10,2022.2.5,Win32,59.96641881,,,,,,,,,,,,77,testing_3,j2x,ai,j2x_ai,j2x_1_aijai.wav,j2x_1_aijai.wav,,TRUE,FALSE,,,,,,,,,,,,,,f,0.6351,space,0.9061,,,,,,,,0,53,53,76,1,,
601f15c863401440ef711b68,2023-06-16_09h33.33.357,phx_ver10,2022.2.5,Win32,59.96641881,,,,,,,,,,,,60,testing_3,zh2j,au,zh2j_au,zh2j_8_aujau.wav,zh2j_1_auzhau.wav,,FALSE,FALSE,,,,,,,,,,,,,,f,0.074,space,0.4167,,,,,,,,0,54,54,59,1,,
601f15c863401440ef711b68,2023-06-16_09h33.33.357,phx_ver10,2022.2.5,Win32,59.96641881,,,,,,,,,,,,40,testing_3,zh2sh,e,zh2sh_e,zh2sh_8_eshe.wav,zh2sh_1_ezhe.wav,,FALSE,FALSE,,,,,,,,,,,,,,j,0.8376,space,1.1012,,,,,,,,0,55,55,39,1,,
601f15c863401440ef711b68,2023-06-16_09h33.33.357,phx_ver10,2022.2.5,Win32,59.96641881,,,,,,,,,,,,42,testing_3,zh2sh,ei,zh2sh_ei,zh2sh_8_eishei.wav,zh2sh_8_eishei.wav,,TRUE,FALSE,,,,,,,,,,,,,,f,0.0007,space,0.3489,,,,,,,,0,56,56,41,1,,
601f15c863401440ef711b68,2023-06-16_09h33.33.357,phx_ver10,2022.2.5,Win32,59.96641881,,,,,,,,,,,,113,testing_3,sh2x,ei,sh2x_ei,sh2x_1_eishei.wav,sh2x_1_eishei.wav,,TRUE,FALSE,,,,,,,,,,,,,,f,0.0339,space,0.4003,,,,,,,,0,57,57,112,1,,
601f15c863401440ef711b68,2023-06-16_09h33.33.357,phx_ver10,2022.2.5,Win32,59.96641881,,,,,,,,,,,,76,testing_3,j2x,a,j2x_a,j2x_8_axa.wav,j2x_1_aja.wav,,FALSE,FALSE,,,,,,,,,,,,,,j,0.0702,space,0.3872,,,,,,,,0,58,58,75,1,,
601f15c863401440ef711b68,2023-06-16_09h33.33.357,phx_ver10,2022.2.5,Win32,59.96641881,,,,,,,,,,,,143,testing_3,sh2j,i,sh2j_i,sh2j_1_ishi.wav,sh2j_8_iji.wav,,FALSE,FALSE,,,,,,,,,,,,,,j,0.5537,space,0.8341,,,,,,,,0,59,59,142,1,,
601f15c863401440ef711b68,2023-06-16_09h33.33.357,phx_ver10,2022.2.5,Win32,59.96641881,,,,,,,,,,,,62,testing_3,zh2j,e,zh2j_e,zh2j_8_eje.wav,zh2j_8_eje.wav,,TRUE,FALSE,,,,,,,,,,,,,,f,0.1208,space,0.6062,,,,,,,,0,60,60,61,1,,
601f15c863401440ef711b68,2023-06-16_09h33.33.357,phx_ver10,2022.2.5,Win32,59.96641881,,,,,,,,,,,,106,testing_3,sh2x,au,sh2x_au,sh2x_8_auxau.wav,sh2x_8_auxau.wav,,TRUE,FALSE,,,,,,,,,,,,,,f,0.1218,space,0.6021,,,,,,,,0,61,61,105,1,,
601f15c863401440ef711b68,2023-06-16_09h33.33.357,phx_ver10,2022.2.5,Win32,59.96641881,,,,,,,,,,,,34,testing_3,zh2sh,au,zh2sh_au,zh2sh_8_aushau.wav,zh2sh_8_aushau.wav,,TRUE,FALSE,,,,,,,,,,,,,,f,0.4736,space,0.8849,,,,,,,,0,62,62,33,1,,
601f15c863401440ef711b68,2023-06-16_09h33.33.357,phx_ver10,2022.2.5,Win32,59.96641881,,,,,,,,,,,,90,testing_3,j2x,ei,j2x_ei,j2x_8_eixei.wav,j2x_8_eixei.wav,,TRUE,FALSE,,,,,,,,,,,,,,f,0.1704,space,0.5381,,,,,,,,0,63,63,89,1,,
601f15c863401440ef711b68,2023-06-16_09h33.33.357,phx_ver10,2022.2.5,Win32,59.96641881,,,,,,,,,,,,19,testing_2,zh2x,au,zh2x_au,zh2x_1_auzhau.wav,zh2x_8_auxau.wav,,FALSE,FALSE,,,,,,,,,,,,,,j,0.338,space,0.6492,,,,,,,,0,64,64,18,1,,
601f15c863401440ef711b68,2023-06-16_09h33.33.357,phx_ver10,2022.2.5,Win32,59.96641881,,,,,,,,,,,,121,testing_3,sh2j,a,sh2j_a,sh2j_1_asha.wav,sh2j_1_asha.wav,,TRUE,FALSE,,,,,,,,,,,,,,f,0.0898,space,0.4536,,,,,,,,0,65,65,120,1,,
601f15c863401440ef711b68,2023-06-16_09h33.33.357,phx_ver10,2022.2.5,Win32,59.96641881,,,,,,,,,,,,104,testing_3,sh2x,ai,sh2x_ai,sh2x_8_aixai.wav,sh2x_1_aishai.wav,,FALSE,FALSE,,,,,,,,,,,,,,j,0.1536,space,0.521,,,,,,,,0,66,66,103,1,,
601f15c863401440ef711b68,2023-06-16_09h33.33.357,phx_ver10,2022.2.5,Win32,59.96641881,,,,,,,,,,,,66,testing_3,zh2j,ei,zh2j_ei,zh2j_8_eijei.wav,zh2j_8_eijei.wav,,TRUE,FALSE,,,,,,,,,,,,,,f,0.2667,space,0.5844,,,,,,,,0,67,67,65,1,,
601f15c863401440ef711b68,2023-06-16_09h33.33.357,phx_ver10,2022.2.5,Win32,59.96641881,,,,,,,,,,,,88,testing_3,j2x,e,j2x_e,j2x_8_exe.wav,j2x_1_eje.wav,,FALSE,FALSE,,,,,,,,,,,,,,j,0.4182,space,0.7511,,,,,,,,0,68,68,87,1,,
601f15c863401440ef711b68,2023-06-16_09h33.33.357,phx_ver10,2022.2.5,Win32,59.96641881,,,,,,,,,,,,28,testing_3,zh2sh,a,zh2sh_a,zh2sh_8_asha.wav,zh2sh_1_azha.wav,,FALSE,FALSE,,,,,,,,,,,,,,f,1.006,space,1.4201,,,,,,,,0,69,69,27,1,,
601f15c863401440ef711b68,2023-06-16_09h33.33.357,phx_ver10,2022.2.5,Win32,59.96641881,,,,,,,,,,,,112,testing_3,sh2x,e,sh2x_e,sh2x_8_exe.wav,sh2x_1_eshe.wav,,FALSE,FALSE,,,,,,,,,,,,,,j,0.8065,space,1.1233,,,,,,,,0,70,70,111,1,,
601f15c863401440ef711b68,2023-06-16_09h33.33.357,phx_ver10,2022.2.5,Win32,59.96641881,,,,,,,,,,,,94,testing_3,j2x,i,j2x_i,j2x_8_ixi.wav,j2x_8_ixi.wav,,TRUE,FALSE,,,,,,,,,,,,,,f,0.4694,space,0.8183,,,,,,,,0,71,71,93,1,,
601f15c863401440ef711b68,2023-06-16_09h33.33.357,phx_ver10,2022.2.5,Win32,59.96641881,,,,,,,,,,,,47,testing_3,zh2sh,i,zh2sh_i,zh2sh_1_izhi.wav,zh2sh_8_ishi.wav,,FALSE,FALSE,,,,,,,,,,,,,,j,0.0708,space,0.4515,,,,,,,,0,72,72,46,1,,
601f15c863401440ef711b68,2023-06-16_09h33.33.357,phx_ver10,2022.2.5,Win32,59.96641881,,,,,,,,,,,,91,testing_3,j2x,ei,j2x_ei,j2x_1_eijei.wav,j2x_8_eixei.wav,,FALSE,FALSE,,,,,,,,,,,,,,j,0.0201,space,0.3764,,,,,,,,0,73,73,90,1,,
601f15c863401440ef711b68,2023-06-16_09h33.33.357,phx_ver10,2022.2.5,Win32,59.96641881,,,,,,,,,,,,55,testing_3,zh2j,ai,zh2j_ai,zh2j_1_aizhai.wav,zh2j_8_aijai.wav,,FALSE,FALSE,,,,,,,,,,,,,,f,0.5696,space,0.8689,,,,,,,,0,74,74,54,1,,
601f15c863401440ef711b68,2023-06-16_09h33.33.357,phx_ver10,2022.2.5,Win32,59.96641881,,,,,,,,,,,,27,testing_3,zh2sh,a,zh2sh_a,zh2sh_1_azha.wav,zh2sh_8_asha.wav,,FALSE,FALSE,,,,,,,,,,,,,,j,0.3008,space,0.5894,,,,,,,,0,75,75,26,1,,
601f15c863401440ef711b68,2023-06-16_09h33.33.357,phx_ver10,2022.2.5,Win32,59.96641881,,,,,,,,,,,,48,testing_3,zh2sh,i,zh2sh_i,zh2sh_8_ishi.wav,zh2sh_1_izhi.wav,,FALSE,FALSE,,,,,,,,,,,,,,f,0.1753,space,0.5402,,,,,,,,0,76,76,47,1,,
601f15c863401440ef711b68,2023-06-16_09h33.33.357,phx_ver10,2022.2.5,Win32,59.96641881,,,,,,,,,,,,11,testing_1,zh2x,i,zh2x_i,zh2x_1_izhi.wav,zh2x_8_ixi.wav,,FALSE,TRUE,,,,,,,,,,,,,,j,0.2339,space,0.5858,,,,,,,,0,77,77,10,1,,
601f15c863401440ef711b68,2023-06-16_09h33.33.357,phx_ver10,2022.2.5,Win32,59.96641881,,,,,,,,,,,,108,testing_3,sh2x,au,sh2x_au,sh2x_8_auxau.wav,sh2x_1_aushau.wav,,FALSE,FALSE,,,,,,,,,,,,,,j,0.0558,space,0.4381,,,,,,,,0,78,78,107,1,,
601f15c863401440ef711b68,2023-06-16_09h33.33.357,phx_ver10,2022.2.5,Win32,59.96641881,,,,,,,,,,,,141,testing_3,sh2j,i,sh2j_i,sh2j_1_ishi.wav,sh2j_1_ishi.wav,,TRUE,FALSE,,,,,,,,,,,,,,f,0.0503,space,0.4191,,,,,,,,0,79,79,140,1,,
601f15c863401440ef711b68,2023-06-16_09h33.33.357,phx_ver10,2022.2.5,Win32,59.96641881,,,,,,,,,,,,2,testing_1,zh2x,a,zh2x_a,zh2x_8_axa.wav,zh2x_8_axa_copy.wav,,TRUE,TRUE,,,,,,,,,,,,,,f,0.0734,space,0.4035,,,,,,,,0,80,80,1,1,,
601f15c863401440ef711b68,2023-06-16_09h33.33.357,phx_ver10,2022.2.5,Win32,59.96641881,,,,,,,,,,,,93,testing_3,j2x,i,j2x_i,j2x_1_iji.wav,j2x_1_iji.wav,,TRUE,FALSE,,,,,,,,,,,,,,f,1.9013,space,2.1552,,,,,,,,0,81,81,92,1,,
601f15c863401440ef711b68,2023-06-16_09h33.33.357,phx_ver10,2022.2.5,Win32,59.96641881,,,,,,,,,,,,12,testing_1,zh2x,i,zh2x_i,zh2x_8_ixi.wav,zh2x_1_izhi.wav,,FALSE,TRUE,,,,,,,,,,,,,,j,0.018,space,0.3854,,,,,,,,0,82,82,11,1,,
601f15c863401440ef711b68,2023-06-16_09h33.33.357,phx_ver10,2022.2.5,Win32,59.96641881,,,,,,,,,,,,7,testing_1,zh2x,e,zh2x_e,zh2x_1_ezhe.wav,zh2x_8_exe.wav,,FALSE,TRUE,,,,,,,,,,,,,,j,0.0608,space,0.404,,,,,,,,0,83,83,6,1,,
601f15c863401440ef711b68,2023-06-16_09h33.33.357,phx_ver10,2022.2.5,Win32,59.96641881,,,,,,,,,,,,119,testing_3,sh2x,i,sh2x_i,sh2x_1_ishi.wav,sh2x_8_ixi.wav,,FALSE,FALSE,,,,,,,,,,,,,,j,0.0715,space,0.4419,,,,,,,,0,84,84,118,1,,
601f15c863401440ef711b68,2023-06-16_09h33.33.357,phx_ver10,2022.2.5,Win32,59.96641881,,,,,,,,,,,,127,testing_3,sh2j,ai,sh2j_ai,sh2j_1_aishai.wav,sh2j_8_aijai.wav,,FALSE,FALSE,,,,,,,,,,,,,,j,0.4554,space,0.8029,,,,,,,,0,85,85,126,1,,
601f15c863401440ef711b68,2023-06-16_09h33.33.357,phx_ver10,2022.2.5,Win32,59.96641881,,,,,,,,,,,,109,testing_3,sh2x,e,sh2x_e,sh2x_1_eshe.wav,sh2x_1_eshe.wav,,TRUE,FALSE,,,,,,,,,,,,,,f,0.1848,space,0.5043,,,,,,,,0,86,86,108,1,,
601f15c863401440ef711b68,2023-06-16_09h33.33.357,phx_ver10,2022.2.5,Win32,59.96641881,,,,,,,,,,,,45,testing_3,zh2sh,i,zh2sh_i,zh2sh_1_izhi.wav,zh2sh_1_izhi.wav,,TRUE,FALSE,,,,,,,,,,,,,,f,0.4383,space,0.7271,,,,,,,,0,87,87,44,1,,
601f15c863401440ef711b68,2023-06-16_09h33.33.357,phx_ver10,2022.2.5,Win32,59.96641881,,,,,,,,,,,,59,testing_3,zh2j,au,zh2j_au,zh2j_1_auzhau.wav,zh2j_8_aujau.wav,,FALSE,FALSE,,,,,,,,,,,,,,j,0.1865,space,0.5013,,,,,,,,0,88,88,58,1,,
601f15c863401440ef711b68,2023-06-16_09h33.33.357,phx_ver10,2022.2.5,Win32,59.96641881,,,,,,,,,,,,136,testing_3,sh2j,e,sh2j_e,sh2j_8_eje.wav,sh2j_1_eshe.wav,,FALSE,FALSE,,,,,,,,,,,,,,j,0.2692,space,0.5351,,,,,,,,0,89,89,135,1,,
601f15c863401440ef711b68,2023-06-16_09h33.33.357,phx_ver10,2022.2.5,Win32,59.96641881,,,,,,,,,,,,138,testing_3,sh2j,ei,sh2j_ei,sh2j_8_eijei.wav,sh2j_8_eijei.wav,,TRUE,FALSE,,,,,,,,,,,,,,f,0.4682,space,0.8499,,,,,,,,0,90,90,137,1,,
601f15c863401440ef711b68,2023-06-16_09h33.33.357,phx_ver10,2022.2.5,Win32,59.96641881,,,,,,,,,,,,16,testing_2,zh2x,ai,zh2x_ai,zh2x_8_aixai.wav,zh2x_1_aizhai.wav,,FALSE,FALSE,,,,,,,,,,,,,,j,0.0819,space,0.4169,,,,,,,,0,91,91,15,1,,
601f15c863401440ef711b68,2023-06-16_09h33.33.357,phx_ver10,2022.2.5,Win32,59.96641881,,,,,,,,,,,,6,testing_1,zh2x,e,zh2x_e,zh2x_8_exe.wav,zh2x_8_exe_copy.wav,,TRUE,TRUE,,,,,,,,,,,,,,f,0.0572,space,0.4044,,,,,,,,0,92,92,5,1,,
601f15c863401440ef711b68,2023-06-16_09h33.33.357,phx_ver10,2022.2.5,Win32,59.96641881,,,,,,,,,,,,1,testing_1,zh2x,a,zh2x_a,zh2x_1_azha.wav,zh2x_1_azha_copy.wav,,TRUE,TRUE,,,,,,,,,,,,,,f,0.3856,space,0.6848,,,,,,,,0,93,93,0,1,,
601f15c863401440ef711b68,2023-06-16_09h33.33.357,phx_ver10,2022.2.5,Win32,59.96641881,,,,,,,,,,,,53,testing_3,zh2j,ai,zh2j_ai,zh2j_1_aizhai.wav,zh2j_1_aizhai.wav,,TRUE,FALSE,,,,,,,,,,,,,,f,0.3065,space,0.6914,,,,,,,,0,94,94,52,1,,
601f15c863401440ef711b68,2023-06-16_09h33.33.357,phx_ver10,2022.2.5,Win32,59.96641881,,,,,,,,,,,,21,testing_2,zh2x,ei,zh2x_ei,zh2x_1_eizhei.wav,zh2x_1_eizhei.wav,,TRUE,FALSE,,,,,,,,,,,,,,f,0.35,space,0.8067,,,,,,,,0,95,95,20,1,,
601f15c863401440ef711b68,2023-06-16_09h33.33.357,phx_ver10,2022.2.5,Win32,59.96641881,,,,,,,,,,,,78,testing_3,j2x,ai,j2x_ai,j2x_8_aixai.wav,j2x_8_aixai.wav,,TRUE,FALSE,,,,,,,,,,,,,,f,0.0848,space,0.4504,,,,,,,,0,96,96,77,1,,
601f15c863401440ef711b68,2023-06-16_09h33.33.357,phx_ver10,2022.2.5,Win32,59.96641881,,,,,,,,,,,,122,testing_3,sh2j,a,sh2j_a,sh2j_8_aja.wav,sh2j_8_aja.wav,,TRUE,FALSE,,,,,,,,,,,,,,f,0.3705,space,0.7234,,,,,,,,0,97,97,121,1,,
601f15c863401440ef711b68,2023-06-16_09h33.33.357,phx_ver10,2022.2.5,Win32,59.96641881,,,,,,,,,,,,107,testing_3,sh2x,au,sh2x_au,sh2x_1_aushau.wav,sh2x_8_auxau.wav,,FALSE,FALSE,,,,,,,,,,,,,,j,0.0159,space,0.4359,,,,,,,,0,98,98,106,1,,
601f15c863401440ef711b68,2023-06-16_09h33.33.357,phx_ver10,2022.2.5,Win32,59.96641881,,,,,,,,,,,,56,testing_3,zh2j,ai,zh2j_ai,zh2j_8_aijai.wav,zh2j_1_aizhai.wav,,FALSE,FALSE,,,,,,,,,,,,,,f,0.1848,space,0.6704,,,,,,,,0,99,99,55,1,,
601f15c863401440ef711b68,2023-06-16_09h33.33.357,phx_ver10,2022.2.5,Win32,59.96641881,,,,,,,,,,,,63,testing_3,zh2j,e,zh2j_e,zh2j_1_ezhe.wav,zh2j_8_eje.wav,,FALSE,FALSE,,,,,,,,,,,,,,j,0.1331,space,0.5012,,,,,,,,0,100,100,62,1,,
601f15c863401440ef711b68,2023-06-16_09h33.33.357,phx_ver10,2022.2.5,Win32,59.96641881,,,,,,,,,,,,81,testing_3,j2x,au,j2x_au,j2x_1_aujau.wav,j2x_1_aujau.wav,,TRUE,FALSE,,,,,,,,,,,,,,f,0.4147,space,0.7337,,,,,,,,0,101,101,80,1,,
601f15c863401440ef711b68,2023-06-16_09h33.33.357,phx_ver10,2022.2.5,Win32,59.96641881,,,,,,,,,,,,18,testing_2,zh2x,au,zh2x_au,zh2x_8_auxau.wav,zh2x_8_auxau.wav,,TRUE,FALSE,,,,,,,,,,,,,,f,0.0324,space,0.4178,,,,,,,,0,102,102,17,1,,
601f15c863401440ef711b68,2023-06-16_09h33.33.357,phx_ver10,2022.2.5,Win32,59.96641881,,,,,,,,,,,,17,testing_2,zh2x,au,zh2x_au,zh2x_1_auzhau.wav,zh2x_1_auzhau.wav,,TRUE,FALSE,,,,,,,,,,,,,,f,0.0988,space,0.421,,,,,,,,0,103,103,16,1,,
601f15c863401440ef711b68,2023-06-16_09h33.33.357,phx_ver10,2022.2.5,Win32,59.96641881,,,,,,,,,,,,72,testing_3,zh2j,i,zh2j_i,zh2j_8_iji.wav,zh2j_1_izhi.wav,,FALSE,FALSE,,,,,,,,,,,,,,f,0.0185,space,0.3346,,,,,,,,0,104,104,71,1,,
601f15c863401440ef711b68,2023-06-16_09h33.33.357,phx_ver10,2022.2.5,Win32,59.96641881,,,,,,,,,,,,69,testing_3,zh2j,i,zh2j_i,zh2j_1_izhi.wav,zh2j_1_izhi.wav,,TRUE,FALSE,,,,,,,,,,,,,,f,1.3008,space,1.551,,,,,,,,0,105,105,68,1,,
601f15c863401440ef711b68,2023-06-16_09h33.33.357,phx_ver10,2022.2.5,Win32,59.96641881,,,,,,,,,,,,43,testing_3,zh2sh,ei,zh2sh_ei,zh2sh_1_eizhei.wav,zh2sh_8_eishei.wav,,FALSE,FALSE,,,,,,,,,,,,,,j,0.051,space,0.4348,,,,,,,,0,106,106,42,1,,
601f15c863401440ef711b68,2023-06-16_09h33.33.357,phx_ver10,2022.2.5,Win32,59.96641881,,,,,,,,,,,,4,testing_1,zh2x,a,zh2x_a,zh2x_8_axa.wav,zh2x_1_azha.wav,,FALSE,TRUE,,,,,,,,,,,,,,j,0.4042,space,0.7032,,,,,,,,0,107,107,3,1,,
601f15c863401440ef711b68,2023-06-16_09h33.33.357,phx_ver10,2022.2.5,Win32,59.96641881,,,,,,,,,,,,85,testing_3,j2x,e,j2x_e,j2x_1_eje.wav,j2x_1_eje.wav,,TRUE,FALSE,,,,,,,,,,,,,,f,0.0872,space,0.4094,,,,,,,,0,108,108,84,1,,
601f15c863401440ef711b68,2023-06-16_09h33.33.357,phx_ver10,2022.2.5,Win32,59.96641881,,,,,,,,,,,,137,testing_3,sh2j,ei,sh2j_ei,sh2j_1_eishei.wav,sh2j_1_eishei.wav,,TRUE,FALSE,,,,,,,,,,,,,,f,0.0504,space,0.5003,,,,,,,,0,109,109,136,1,,
601f15c863401440ef711b68,2023-06-16_09h33.33.357,phx_ver10,2022.2.5,Win32,59.96641881,,,,,,,,,,,,30,testing_3,zh2sh,ai,zh2sh_ai,zh2sh_8_aishai.wav,zh2sh_8_aishai.wav,,TRUE,FALSE,,,,,,,,,,,,,,f,0.0031,space,0.4227,,,,,,,,0,110,110,29,1,,
601f15c863401440ef711b68,2023-06-16_09h33.33.357,phx_ver10,2022.2.5,Win32,59.96641881,,,,,,,,,,,,65,testing_3,zh2j,ei,zh2j_ei,zh2j_1_eizhei.wav,zh2j_1_eizhei.wav,,TRUE,FALSE,,,,,,,,,,,,,,f,0.0542,space,0.4365,,,,,,,,0,111,111,64,1,,
601f15c863401440ef711b68,2023-06-16_09h33.33.357,phx_ver10,2022.2.5,Win32,59.96641881,,,,,,,,,,,,8,testing_1,zh2x,e,zh2x_e,zh2x_8_exe.wav,zh2x_1_ezhe.wav,,FALSE,TRUE,,,,,,,,,,,,,,j,0.3372,space,0.6868,,,,,,,,0,112,112,7,1,,
601f15c863401440ef711b68,2023-06-16_09h33.33.357,phx_ver10,2022.2.5,Win32,59.96641881,,,,,,,,,,,,25,testing_3,zh2sh,a,zh2sh_a,zh2sh_1_azha.wav,zh2sh_1_azha.wav,,TRUE,FALSE,,,,,,,,,,,,,,f,0.0349,space,0.4206,,,,,,,,0,113,113,24,1,,
601f15c863401440ef711b68,2023-06-16_09h33.33.357,phx_ver10,2022.2.5,Win32,59.96641881,,,,,,,,,,,,105,testing_3,sh2x,au,sh2x_au,sh2x_1_aushau.wav,sh2x_1_aushau.wav,,TRUE,FALSE,,,,,,,,,,,,,,f,0.12,space,0.4359,,,,,,,,0,114,114,104,1,,
601f15c863401440ef711b68,2023-06-16_09h33.33.357,phx_ver10,2022.2.5,Win32,59.96641881,,,,,,,,,,,,5,testing_1,zh2x,e,zh2x_e,zh2x_1_ezhe.wav,zh2x_1_ezhe_copy.wav,,TRUE,TRUE,,,,,,,,,,,,,,f,0.0726,space,0.3848,,,,,,,,0,115,115,4,1,,
601f15c863401440ef711b68,2023-06-16_09h33.33.357,phx_ver10,2022.2.5,Win32,59.96641881,,,,,,,,,,,,87,testing_3,j2x,e,j2x_e,j2x_1_eje.wav,j2x_8_exe.wav,,FALSE,FALSE,,,,,,,,,,,,,,j,0.1872,space,0.4596,,,,,,,,0,116,116,86,1,,
601f15c863401440ef711b68,2023-06-16_09h33.33.357,phx_ver10,2022.2.5,Win32,59.96641881,,,,,,,,,,,,9,testing_1,zh2x,i,zh2x_i,zh2x_1_izhi.wav,zh2x_1_izhi_copy.wav,,TRUE,TRUE,,,,,,,,,,,,,,f,0.4394,space,0.8652,,,,,,,,0,117,117,8,1,,
601f15c863401440ef711b68,2023-06-16_09h33.33.357,phx_ver10,2022.2.5,Win32,59.96641881,,,,,,,,,,,,24,testing_2,zh2x,ei,zh2x_ei,zh2x_8_eixei.wav,zh2x_1_eizhei.wav,,FALSE,FALSE,,,,,,,,,,,,,,j,0.366,space,0.6989,,,,,,,,0,118,118,23,1,,
601f15c863401440ef711b68,2023-06-16_09h33.33.357,phx_ver10,2022.2.5,Win32,59.96641881,,,,,,,,,,,,71,testing_3,zh2j,i,zh2j_i,zh2j_1_izhi.wav,zh2j_8_iji.wav,,FALSE,FALSE,,,,,,,,,,,,,,f,0.6873,space,0.9707,,,,,,,,0,119,119,70,1,,
601f15c863401440ef711b68,2023-06-16_09h33.33.357,phx_ver10,2022.2.5,Win32,59.96641881,,,,,,,,,,,,82,testing_3,j2x,au,j2x_au,j2x_8_auxau.wav,j2x_8_auxau.wav,,TRUE,FALSE,,,,,,,,,,,,,,f,0.1213,space,0.4691,,,,,,,,0,120,120,81,1,,
601f15c863401440ef711b68,2023-06-16_09h33.33.357,phx_ver10,2022.2.5,Win32,59.96641881,,,,,,,,,,,,15,testing_2,zh2x,ai,zh2x_ai,zh2x_1_aizhai.wav,zh2x_8_aixai.wav,,FALSE,FALSE,,,,,,,,,,,,,,j,0.0346,space,0.6011,,,,,,,,0,121,121,14,1,,
601f15c863401440ef711b68,2023-06-16_09h33.33.357,phx_ver10,2022.2.5,Win32,59.96641881,,,,,,,,,,,,73,testing_3,j2x,a,j2x_a,j2x_1_aja.wav,j2x_1_aja.wav,,TRUE,FALSE,,,,,,,,,,,,,,f,0.9048,space,1.3356,,,,,,,,0,122,122,72,1,,
601f15c863401440ef711b68,2023-06-16_09h33.33.357,phx_ver10,2022.2.5,Win32,59.96641881,,,,,,,,,,,,54,testing_3,zh2j,ai,zh2j_ai,zh2j_8_aijai.wav,zh2j_8_aijai.wav,,TRUE,FALSE,,,,,,,,,,,,,,f,0.3537,space,0.6595,,,,,,,,0,123,123,53,1,,
601f15c863401440ef711b68,2023-06-16_09h33.33.357,phx_ver10,2022.2.5,Win32,59.96641881,,,,,,,,,,,,75,testing_3,j2x,a,j2x_a,j2x_1_aja.wav,j2x_8_axa.wav,,FALSE,FALSE,,,,,,,,,,,,,,j,0.2933,space,0.5746,,,,,,,,0,124,124,74,1,,
601f15c863401440ef711b68,2023-06-16_09h33.33.357,phx_ver10,2022.2.5,Win32,59.96641881,,,,,,,,,,,,44,testing_3,zh2sh,ei,zh2sh_ei,zh2sh_8_eishei.wav,zh2sh_1_eizhei.wav,,FALSE,FALSE,,,,,,,,,,,,,,j,0.1345,space,0.5373,,,,,,,,0,125,125,43,1,,
601f15c863401440ef711b68,2023-06-16_09h33.33.357,phx_ver10,2022.2.5,Win32,59.96641881,,,,,,,,,,,,128,testing_3,sh2j,ai,sh2j_ai,sh2j_8_aijai.wav,sh2j_1_aishai.wav,,FALSE,FALSE,,,,,,,,,,,,,,j,0.0041,space,0.4523,,,,,,,,0,126,126,127,1,,
601f15c863401440ef711b68,2023-06-16_09h33.33.357,phx_ver10,2022.2.5,Win32,59.96641881,,,,,,,,,,,,135,testing_3,sh2j,e,sh2j_e,sh2j_1_eshe.wav,sh2j_8_eje.wav,,FALSE,FALSE,,,,,,,,,,,,,,j,0.2966,space,0.5332,,,,,,,,0,127,127,134,1,,
601f15c863401440ef711b68,2023-06-16_09h33.33.357,phx_ver10,2022.2.5,Win32,59.96641881,,,,,,,,,,,,74,testing_3,j2x,a,j2x_a,j2x_8_axa.wav,j2x_8_axa.wav,,TRUE,FALSE,,,,,,,,,,,,,,f,0.3484,space,0.6496,,,,,,,,0,128,128,73,1,,
601f15c863401440ef711b68,2023-06-16_09h33.33.357,phx_ver10,2022.2.5,Win32,59.96641881,,,,,,,,,,,,98,testing_3,sh2x,a,sh2x_a,sh2x_8_axa.wav,sh2x_8_axa.wav,,TRUE,FALSE,,,,,,,,,,,,,,f,0.0376,space,0.5596,,,,,,,,0,129,129,97,1,,
601f15c863401440ef711b68,2023-06-16_09h33.33.357,phx_ver10,2022.2.5,Win32,59.96641881,,,,,,,,,,,,39,testing_3,zh2sh,e,zh2sh_e,zh2sh_1_ezhe.wav,zh2sh_8_eshe.wav,,FALSE,FALSE,,,,,,,,,,,,,,j,0.0202,space,0.5034,,,,,,,,0,130,130,38,1,,
601f15c863401440ef711b68,2023-06-16_09h33.33.357,phx_ver10,2022.2.5,Win32,59.96641881,,,,,,,,,,,,131,testing_3,sh2j,au,sh2j_au,sh2j_1_aushau.wav,sh2j_8_aujau.wav,,FALSE,FALSE,,,,,,,,,,,,,,j,0.1537,space,0.5688,,,,,,,,0,131,131,130,1,,
601f15c863401440ef711b68,2023-06-16_09h33.33.357,phx_ver10,2022.2.5,Win32,59.96641881,,,,,,,,,,,,96,testing_3,j2x,i,j2x_i,j2x_8_ixi.wav,j2x_1_iji.wav,,FALSE,FALSE,,,,,,,,,,,,,,j,0.4885,space,0.8861,,,,,,,,0,132,132,95,1,,
601f15c863401440ef711b68,2023-06-16_09h33.33.357,phx_ver10,2022.2.5,Win32,59.96641881,,,,,,,,,,,,51,testing_3,zh2j,a,zh2j_a,zh2j_1_azha.wav,zh2j_8_aja.wav,,FALSE,FALSE,,,,,,,,,,,,,,j,0.0991,space,0.551,,,,,,,,0,133,133,50,1,,
601f15c863401440ef711b68,2023-06-16_09h33.33.357,phx_ver10,2022.2.5,Win32,59.96641881,,,,,,,,,,,,79,testing_3,j2x,ai,j2x_ai,j2x_1_aijai.wav,j2x_8_aixai.wav,,FALSE,FALSE,,,,,,,,,,,,,,j,0.0883,space,0.5521,,,,,,,,0,134,134,78,1,,
601f15c863401440ef711b68,2023-06-16_09h33.33.357,phx_ver10,2022.2.5,Win32,59.96641881,,,,,,,,,,,,100,testing_3,sh2x,a,sh2x_a,sh2x_8_axa.wav,sh2x_1_asha.wav,,FALSE,FALSE,,,,,,,,,,,,,,j,0.0338,space,0.5841,,,,,,,,0,135,135,99,1,,
601f15c863401440ef711b68,2023-06-16_09h33.33.357,phx_ver10,2022.2.5,Win32,59.96641881,,,,,,,,,,,,10,testing_1,zh2x,i,zh2x_i,zh2x_8_ixi.wav,zh2x_8_ixi_copy.wav,,TRUE,TRUE,,,,,,,,,,,,,,f,0.3549,space,0.8204,,,,,,,,0,136,136,9,1,,
601f15c863401440ef711b68,2023-06-16_09h33.33.357,phx_ver10,2022.2.5,Win32,59.96641881,,,,,,,,,,,,31,testing_3,zh2sh,ai,zh2sh_ai,zh2sh_1_aizhai.wav,zh2sh_8_aishai.wav,,FALSE,FALSE,,,,,,,,,,,,,,j,0.158,space,0.6364,,,,,,,,0,137,137,30,1,,
601f15c863401440ef711b68,2023-06-16_09h33.33.357,phx_ver10,2022.2.5,Win32,59.96641881,,,,,,,,,,,,92,testing_3,j2x,ei,j2x_ei,j2x_8_eixei.wav,j2x_1_eijei.wav,,FALSE,FALSE,,,,,,,,,,,,,,j,0.3705,space,0.6844,,,,,,,,0,138,138,91,1,,
601f15c863401440ef711b68,2023-06-16_09h33.33.357,phx_ver10,2022.2.5,Win32,59.96641881,,,,,,,,,,,,23,testing_2,zh2x,ei,zh2x_ei,zh2x_1_eizhei.wav,zh2x_8_eixei.wav,,FALSE,FALSE,,,,,,,,,,,,,,j,0.0215,space,0.4523,,,,,,,,0,139,139,22,1,,
601f15c863401440ef711b68,2023-06-16_09h33.33.357,phx_ver10,2022.2.5,Win32,59.96641881,,,,,,,,,,,,95,testing_3,j2x,i,j2x_i,j2x_1_iji.wav,j2x_8_ixi.wav,,FALSE,FALSE,,,,,,,,,,,,,,f,0.4846,space,0.7659,,,,,,,,0,140,140,94,1,,
601f15c863401440ef711b68,2023-06-16_09h33.33.357,phx_ver10,2022.2.5,Win32,59.96641881,,,,,,,,,,,,101,testing_3,sh2x,ai,sh2x_ai,sh2x_1_aishai.wav,sh2x_1_aishai.wav,,TRUE,FALSE,,,,,,,,,,,,,,f,0.4063,space,0.7351,,,,,,,,0,141,141,100,1,,
601f15c863401440ef711b68,2023-06-16_09h33.33.357,phx_ver10,2022.2.5,Win32,59.96641881,,,,,,,,,,,,33,testing_3,zh2sh,au,zh2sh_au,zh2sh_1_auzhau.wav,zh2sh_1_auzhau.wav,,TRUE,FALSE,,,,,,,,,,,,,,f,0.4012,space,0.7338,,,,,,,,0,142,142,32,1,,
601f15c863401440ef711b68,2023-06-16_09h33.33.357,phx_ver10,2022.2.5,Win32,59.96641881,,,,,,,,,,,,130,testing_3,sh2j,au,sh2j_au,sh2j_8_aujau.wav,sh2j_8_aujau.wav,,TRUE,FALSE,,,,,,,,,,,,,,f,0.1439,space,0.4701,,,,,,,,0,143,143,129,1,,
601f15c863401440ef711b68,2023-06-16_09h33.33.357,phx_ver10,2022.2.5,Win32,59.96641881,,,,,,,,,,,,,,,,,,,,,,,,,,,,,,,,,,,,,,,,,,,,,,,,,,,space,2.2266
