participant,date,expName,psychopyVersion,OS,frameRate,space_1.keys,space_1.rt,space_2.keys,space_2.rt,space_train.keys,space_train.rt,training.thisRepN,training.thisTrialN,training.thisN,training.thisIndex,training.ran,token_id,task,continuum,vowel,series,sound_1,sound_2,img,same,trained,FJ_attn.keys,FJ_attn.rt,space_attn.keys,space_attn.rt,if_attn_test.thisRepN,if_attn_test.thisTrialN,if_attn_test.thisN,if_attn_test.thisIndex,if_attn_test.ran,space_trans_1.keys,space_trans_1.rt,space_trans_11.keys,space_trans_11.rt,FJ_test.keys,FJ_test.rt,space_test.keys,space_test.rt,testing_pre.thisRepN,testing_pre.thisTrialN,testing_pre.thisN,testing_pre.thisIndex,testing_pre.ran,space_trans_2.keys,space_trans_2.rt,testing_all.thisRepN,testing_all.thisTrialN,testing_all.thisN,testing_all.thisIndex,testing_all.ran,space_ending.keys,space_ending.rt
603758e41c4468b882a74700,2023-06-16_10h22.49.006,phx_ver10,2022.2.5,Win32,59.94844434,,,,,,,,,,,,,,,,,,,,,,,,,,,,,,,,,,,,,,,,,,,,,,,,,,,,
603758e41c4468b882a74700,2023-06-16_10h22.49.006,phx_ver10,2022.2.5,Win32,59.94844434,space,1.1231,,,,,,,,,,,,,,,,,,,,,,,,,,,,,,,,,,,,,,,,,,,,,,,,,,
603758e41c4468b882a74700,2023-06-16_10h22.49.006,phx_ver10,2022.2.5,Win32,59.94844434,,,space,0.8491,,,,,,,,,,,,,,,,,,,,,,,,,,,,,,,,,,,,,,,,,,,,,,,,
603758e41c4468b882a74700,2023-06-16_10h22.49.006,phx_ver10,2022.2.5,Win32,59.94844434,,,,,space,9.4117,0,0,0,1,1,2,training,zh2x,a,zh2x_a,zh2x_2_azha.wav,,azha.jpg,,,,,,,,,,,,,,,,,,,,,,,,,,,,,,,,,
603758e41c4468b882a74700,2023-06-16_10h22.49.006,phx_ver10,2022.2.5,Win32,59.94844434,,,,,space,0.8157,0,1,1,7,1,8,training,zh2x,a,zh2x_a,zh2x_4_azha.wav,,azha.jpg,,,,,,,,,,,,,,,,,,,,,,,,,,,,,,,,,
603758e41c4468b882a74700,2023-06-16_10h22.49.006,phx_ver10,2022.2.5,Win32,59.94844434,,,,,space,1.0834,0,2,2,10,1,11,training,zh2x,a,zh2x_a,zh2x_6_axa.wav,,axa.jpg,,,,,,,,,,,,,,,,,,,,,,,,,,,,,,,,,
603758e41c4468b882a74700,2023-06-16_10h22.49.006,phx_ver10,2022.2.5,Win32,59.94844434,,,,,space,1.858,0,3,3,35,1,36,training,zh2x,i,zh2x_i,zh2x_2_izhi.wav,,izhi.jpg,,,,,,,,,,,,,,,,,,,,,,,,,,,,,,,,,
603758e41c4468b882a74700,2023-06-16_10h22.49.006,phx_ver10,2022.2.5,Win32,59.94844434,,,,,space,1.2673,0,4,4,20,1,21,training,zh2x,e,zh2x_e,zh2x_2_ezhe.wav,,ezhe.jpg,,,,,,,,,,,,,,,,,,,,,,,,,,,,,,,,,
603758e41c4468b882a74700,2023-06-16_10h22.49.006,phx_ver10,2022.2.5,Win32,59.94844434,,,,,space,1.8013,0,5,5,44,1,45,training,zh2x,i,zh2x_i,zh2x_7_ixi.wav,,ixi.jpg,,,,,,,,,,,,,,,,,,,,,,,,,,,,,,,,,
603758e41c4468b882a74700,2023-06-16_10h22.49.006,phx_ver10,2022.2.5,Win32,59.94844434,,,,,,,,,,,,,attn_test,,,,zh2x_1_azha.wav,zh2x_8_exe.wav,azha.jpg,LEFT,,f,8.2962,space,14.8601,0,0,0,0,1,,,,,,,,,,,,,,,,,,,,,,
603758e41c4468b882a74700,2023-06-16_10h22.49.006,phx_ver10,2022.2.5,Win32,59.94844434,,,,,space,0.7229,0,6,6,8,1,9,training,zh2x,a,zh2x_a,zh2x_5_axa.wav,,axa.jpg,,,,,,,,,,,,,,,,,,,,,,,,,,,,,,,,,
603758e41c4468b882a74700,2023-06-16_10h22.49.006,phx_ver10,2022.2.5,Win32,59.94844434,,,,,space,0.3009,0,7,7,37,1,38,training,zh2x,i,zh2x_i,zh2x_3_izhi.wav,,izhi.jpg,,,,,,,,,,,,,,,,,,,,,,,,,,,,,,,,,
603758e41c4468b882a74700,2023-06-16_10h22.49.006,phx_ver10,2022.2.5,Win32,59.94844434,,,,,space,1.0326,0,8,8,26,1,27,training,zh2x,e,zh2x_e,zh2x_6_exe.wav,,exe.jpg,,,,,,,,,,,,,,,,,,,,,,,,,,,,,,,,,
603758e41c4468b882a74700,2023-06-16_10h22.49.006,phx_ver10,2022.2.5,Win32,59.94844434,,,,,space,0.7086,0,9,9,47,1,48,training,zh2x,i,zh2x_i,zh2x_8_ixi.wav,,ixi.jpg,,,,,,,,,,,,,,,,,,,,,,,,,,,,,,,,,
603758e41c4468b882a74700,2023-06-16_10h22.49.006,phx_ver10,2022.2.5,Win32,59.94844434,,,,,space,1.2398,0,10,10,22,1,23,training,zh2x,e,zh2x_e,zh2x_3_ezhe.wav,,ezhe.jpg,,,,,,,,,,,,,,,,,,,,,,,,,,,,,,,,,
603758e41c4468b882a74700,2023-06-16_10h22.49.006,phx_ver10,2022.2.5,Win32,59.94844434,,,,,space,0.7722,0,11,11,25,1,26,training,zh2x,e,zh2x_e,zh2x_6_exe.wav,,exe.jpg,,,,,,,,,,,,,,,,,,,,,,,,,,,,,,,,,
603758e41c4468b882a74700,2023-06-16_10h22.49.006,phx_ver10,2022.2.5,Win32,59.94844434,,,,,,,,,,,,,attn_test,,,,zh2x_1_ezhe.wav,zh2x_1_izhi.wav,izhi.jpg,RIGHT,,j,0.5183,space,1.6671,0,0,0,0,1,,,,,,,,,,,,,,,,,,,,,,
603758e41c4468b882a74700,2023-06-16_10h22.49.006,phx_ver10,2022.2.5,Win32,59.94844434,,,,,space,0.618,0,12,12,42,1,43,training,zh2x,i,zh2x_i,zh2x_6_ixi.wav,,ixi.jpg,,,,,,,,,,,,,,,,,,,,,,,,,,,,,,,,,
603758e41c4468b882a74700,2023-06-16_10h22.49.006,phx_ver10,2022.2.5,Win32,59.94844434,,,,,space,0.1676,0,13,13,3,1,4,training,zh2x,a,zh2x_a,zh2x_2_azha.wav,,azha.jpg,,,,,,,,,,,,,,,,,,,,,,,,,,,,,,,,,
603758e41c4468b882a74700,2023-06-16_10h22.49.006,phx_ver10,2022.2.5,Win32,59.94844434,,,,,space,0.2557,0,14,14,41,1,42,training,zh2x,i,zh2x_i,zh2x_6_ixi.wav,,ixi.jpg,,,,,,,,,,,,,,,,,,,,,,,,,,,,,,,,,
603758e41c4468b882a74700,2023-06-16_10h22.49.006,phx_ver10,2022.2.5,Win32,59.94844434,,,,,space,0.0175,0,15,15,45,1,46,training,zh2x,i,zh2x_i,zh2x_7_ixi.wav,,ixi.jpg,,,,,,,,,,,,,,,,,,,,,,,,,,,,,,,,,
603758e41c4468b882a74700,2023-06-16_10h22.49.006,phx_ver10,2022.2.5,Win32,59.94844434,,,,,space,0.4178,0,16,16,21,1,22,training,zh2x,e,zh2x_e,zh2x_3_ezhe.wav,,ezhe.jpg,,,,,,,,,,,,,,,,,,,,,,,,,,,,,,,,,
603758e41c4468b882a74700,2023-06-16_10h22.49.006,phx_ver10,2022.2.5,Win32,59.94844434,,,,,space,0.1015,0,17,17,43,1,44,training,zh2x,i,zh2x_i,zh2x_7_ixi.wav,,ixi.jpg,,,,,,,,,,,,,,,,,,,,,,,,,,,,,,,,,
603758e41c4468b882a74700,2023-06-16_10h22.49.006,phx_ver10,2022.2.5,Win32,59.94844434,,,,,,,,,,,,,attn_test,,,,zh2x_1_ezhe.wav,zh2x_8_ixi.wav,ixi.jpg,RIGHT,,j,0.1907,space,1.207,0,0,0,0,1,,,,,,,,,,,,,,,,,,,,,,
603758e41c4468b882a74700,2023-06-16_10h22.49.006,phx_ver10,2022.2.5,Win32,59.94844434,,,,,space,1.3159,0,18,18,11,1,12,training,zh2x,a,zh2x_a,zh2x_7_axa.wav,,axa.jpg,,,,,,,,,,,,,,,,,,,,,,,,,,,,,,,,,
603758e41c4468b882a74700,2023-06-16_10h22.49.006,phx_ver10,2022.2.5,Win32,59.94844434,,,,,space,0.5051,0,19,19,46,1,47,training,zh2x,i,zh2x_i,zh2x_7_ixi.wav,,ixi.jpg,,,,,,,,,,,,,,,,,,,,,,,,,,,,,,,,,
603758e41c4468b882a74700,2023-06-16_10h22.49.006,phx_ver10,2022.2.5,Win32,59.94844434,,,,,space,0.4182,0,20,20,15,1,16,training,zh2x,a,zh2x_a,zh2x_8_axa.wav,,axa.jpg,,,,,,,,,,,,,,,,,,,,,,,,,,,,,,,,,
603758e41c4468b882a74700,2023-06-16_10h22.49.006,phx_ver10,2022.2.5,Win32,59.94844434,,,,,space,0.0679,0,21,21,4,1,5,training,zh2x,a,zh2x_a,zh2x_2_azha.wav,,azha.jpg,,,,,,,,,,,,,,,,,,,,,,,,,,,,,,,,,
603758e41c4468b882a74700,2023-06-16_10h22.49.006,phx_ver10,2022.2.5,Win32,59.94844434,,,,,space,1.0849,0,22,22,6,1,7,training,zh2x,a,zh2x_a,zh2x_3_azha.wav,,azha.jpg,,,,,,,,,,,,,,,,,,,,,,,,,,,,,,,,,
603758e41c4468b882a74700,2023-06-16_10h22.49.006,phx_ver10,2022.2.5,Win32,59.94844434,,,,,space,0.5394,0,23,23,16,1,17,training,zh2x,e,zh2x_e,zh2x_1_ezhe.wav,,ezhe.jpg,,,,,,,,,,,,,,,,,,,,,,,,,,,,,,,,,
603758e41c4468b882a74700,2023-06-16_10h22.49.006,phx_ver10,2022.2.5,Win32,59.94844434,,,,,,,,,,,,,attn_test,,,,zh2x_1_azha.wav,zh2x_8_exe.wav,azha.jpg,LEFT,,f,0.3354,space,2.1512,0,0,0,0,1,,,,,,,,,,,,,,,,,,,,,,
603758e41c4468b882a74700,2023-06-16_10h22.49.006,phx_ver10,2022.2.5,Win32,59.94844434,,,,,space,0.4865,0,24,24,14,1,15,training,zh2x,a,zh2x_a,zh2x_7_axa.wav,,axa.jpg,,,,,,,,,,,,,,,,,,,,,,,,,,,,,,,,,
603758e41c4468b882a74700,2023-06-16_10h22.49.006,phx_ver10,2022.2.5,Win32,59.94844434,,,,,space,4.7504,0,25,25,34,1,35,training,zh2x,i,zh2x_i,zh2x_2_izhi.wav,,izhi.jpg,,,,,,,,,,,,,,,,,,,,,,,,,,,,,,,,,
603758e41c4468b882a74700,2023-06-16_10h22.49.006,phx_ver10,2022.2.5,Win32,59.94844434,,,,,space,0.2009,0,26,26,18,1,19,training,zh2x,e,zh2x_e,zh2x_2_ezhe.wav,,ezhe.jpg,,,,,,,,,,,,,,,,,,,,,,,,,,,,,,,,,
603758e41c4468b882a74700,2023-06-16_10h22.49.006,phx_ver10,2022.2.5,Win32,59.94844434,,,,,space,0.1399,0,27,27,2,1,3,training,zh2x,a,zh2x_a,zh2x_2_azha.wav,,azha.jpg,,,,,,,,,,,,,,,,,,,,,,,,,,,,,,,,,
603758e41c4468b882a74700,2023-06-16_10h22.49.006,phx_ver10,2022.2.5,Win32,59.94844434,,,,,space,8.0002,0,28,28,19,1,20,training,zh2x,e,zh2x_e,zh2x_2_ezhe.wav,,ezhe.jpg,,,,,,,,,,,,,,,,,,,,,,,,,,,,,,,,,
603758e41c4468b882a74700,2023-06-16_10h22.49.006,phx_ver10,2022.2.5,Win32,59.94844434,,,,,space,1.618,0,29,29,9,1,10,training,zh2x,a,zh2x_a,zh2x_6_axa.wav,,axa.jpg,,,,,,,,,,,,,,,,,,,,,,,,,,,,,,,,,
603758e41c4468b882a74700,2023-06-16_10h22.49.006,phx_ver10,2022.2.5,Win32,59.94844434,,,,,,,,,,,,,attn_test,,,,zh2x_1_izhi.wav,zh2x_1_azha.wav,izhi.jpg,LEFT,,f,1.3196,space,2.8508,0,0,0,0,1,,,,,,,,,,,,,,,,,,,,,,
603758e41c4468b882a74700,2023-06-16_10h22.49.006,phx_ver10,2022.2.5,Win32,59.94844434,,,,,space,0.0349,0,30,30,28,1,29,training,zh2x,e,zh2x_e,zh2x_7_exe.wav,,exe.jpg,,,,,,,,,,,,,,,,,,,,,,,,,,,,,,,,,
603758e41c4468b882a74700,2023-06-16_10h22.49.006,phx_ver10,2022.2.5,Win32,59.94844434,,,,,space,0.2168,0,31,31,29,1,30,training,zh2x,e,zh2x_e,zh2x_7_exe.wav,,exe.jpg,,,,,,,,,,,,,,,,,,,,,,,,,,,,,,,,,
603758e41c4468b882a74700,2023-06-16_10h22.49.006,phx_ver10,2022.2.5,Win32,59.94844434,,,,,space,0.8896,0,32,32,27,1,28,training,zh2x,e,zh2x_e,zh2x_7_exe.wav,,exe.jpg,,,,,,,,,,,,,,,,,,,,,,,,,,,,,,,,,
603758e41c4468b882a74700,2023-06-16_10h22.49.006,phx_ver10,2022.2.5,Win32,59.94844434,,,,,space,0.2015,0,33,33,13,1,14,training,zh2x,a,zh2x_a,zh2x_7_axa.wav,,axa.jpg,,,,,,,,,,,,,,,,,,,,,,,,,,,,,,,,,
603758e41c4468b882a74700,2023-06-16_10h22.49.006,phx_ver10,2022.2.5,Win32,59.94844434,,,,,space,0.7397,0,34,34,12,1,13,training,zh2x,a,zh2x_a,zh2x_7_axa.wav,,axa.jpg,,,,,,,,,,,,,,,,,,,,,,,,,,,,,,,,,
603758e41c4468b882a74700,2023-06-16_10h22.49.006,phx_ver10,2022.2.5,Win32,59.94844434,,,,,space,0.5715,0,35,35,33,1,34,training,zh2x,i,zh2x_i,zh2x_2_izhi.wav,,izhi.jpg,,,,,,,,,,,,,,,,,,,,,,,,,,,,,,,,,
603758e41c4468b882a74700,2023-06-16_10h22.49.006,phx_ver10,2022.2.5,Win32,59.94844434,,,,,,,,,,,,,attn_test,,,,zh2x_8_axa.wav,zh2x_1_izhi.wav,axa.jpg,LEFT,,f,0.6012,space,1.5176,0,0,0,0,1,,,,,,,,,,,,,,,,,,,,,,
603758e41c4468b882a74700,2023-06-16_10h22.49.006,phx_ver10,2022.2.5,Win32,59.94844434,,,,,space,0.7259,0,36,36,30,1,31,training,zh2x,e,zh2x_e,zh2x_7_exe.wav,,exe.jpg,,,,,,,,,,,,,,,,,,,,,,,,,,,,,,,,,
603758e41c4468b882a74700,2023-06-16_10h22.49.006,phx_ver10,2022.2.5,Win32,59.94844434,,,,,space,0.1862,0,37,37,5,1,6,training,zh2x,a,zh2x_a,zh2x_3_azha.wav,,azha.jpg,,,,,,,,,,,,,,,,,,,,,,,,,,,,,,,,,
603758e41c4468b882a74700,2023-06-16_10h22.49.006,phx_ver10,2022.2.5,Win32,59.94844434,,,,,space,0.0683,0,38,38,36,1,37,training,zh2x,i,zh2x_i,zh2x_2_izhi.wav,,izhi.jpg,,,,,,,,,,,,,,,,,,,,,,,,,,,,,,,,,
603758e41c4468b882a74700,2023-06-16_10h22.49.006,phx_ver10,2022.2.5,Win32,59.94844434,,,,,space,0.1083,0,39,39,17,1,18,training,zh2x,e,zh2x_e,zh2x_2_ezhe.wav,,ezhe.jpg,,,,,,,,,,,,,,,,,,,,,,,,,,,,,,,,,
603758e41c4468b882a74700,2023-06-16_10h22.49.006,phx_ver10,2022.2.5,Win32,59.94844434,,,,,space,0.6517,0,40,40,32,1,33,training,zh2x,i,zh2x_i,zh2x_1_izhi.wav,,izhi.jpg,,,,,,,,,,,,,,,,,,,,,,,,,,,,,,,,,
603758e41c4468b882a74700,2023-06-16_10h22.49.006,phx_ver10,2022.2.5,Win32,59.94844434,,,,,space,0.1213,0,41,41,0,1,1,training,zh2x,a,zh2x_a,zh2x_1_azha.wav,,azha.jpg,,,,,,,,,,,,,,,,,,,,,,,,,,,,,,,,,
603758e41c4468b882a74700,2023-06-16_10h22.49.006,phx_ver10,2022.2.5,Win32,59.94844434,,,,,,,,,,,,,attn_test,,,,zh2x_1_azha.wav,zh2x_1_ezhe.wav,azha.jpg,LEFT,,f,0.9228,space,1.3703,0,0,0,0,1,,,,,,,,,,,,,,,,,,,,,,
603758e41c4468b882a74700,2023-06-16_10h22.49.006,phx_ver10,2022.2.5,Win32,59.94844434,,,,,space,0.2012,0,42,42,39,1,40,training,zh2x,i,zh2x_i,zh2x_4_izhi.wav,,izhi.jpg,,,,,,,,,,,,,,,,,,,,,,,,,,,,,,,,,
603758e41c4468b882a74700,2023-06-16_10h22.49.006,phx_ver10,2022.2.5,Win32,59.94844434,,,,,space,0.166,0,43,43,31,1,32,training,zh2x,e,zh2x_e,zh2x_8_exe.wav,,exe.jpg,,,,,,,,,,,,,,,,,,,,,,,,,,,,,,,,,
603758e41c4468b882a74700,2023-06-16_10h22.49.006,phx_ver10,2022.2.5,Win32,59.94844434,,,,,space,16.184,0,44,44,23,1,24,training,zh2x,e,zh2x_e,zh2x_4_ezhe.wav,,ezhe.jpg,,,,,,,,,,,,,,,,,,,,,,,,,,,,,,,,,
603758e41c4468b882a74700,2023-06-16_10h22.49.006,phx_ver10,2022.2.5,Win32,59.94844434,,,,,space,0.0688,0,45,45,40,1,41,training,zh2x,i,zh2x_i,zh2x_5_ixi.wav,,ixi.jpg,,,,,,,,,,,,,,,,,,,,,,,,,,,,,,,,,
603758e41c4468b882a74700,2023-06-16_10h22.49.006,phx_ver10,2022.2.5,Win32,59.94844434,,,,,space,0.5851,0,46,46,24,1,25,training,zh2x,e,zh2x_e,zh2x_5_exe.wav,,exe.jpg,,,,,,,,,,,,,,,,,,,,,,,,,,,,,,,,,
603758e41c4468b882a74700,2023-06-16_10h22.49.006,phx_ver10,2022.2.5,Win32,59.94844434,,,,,space,0.0874,0,47,47,38,1,39,training,zh2x,i,zh2x_i,zh2x_3_izhi.wav,,izhi.jpg,,,,,,,,,,,,,,,,,,,,,,,,,,,,,,,,,
603758e41c4468b882a74700,2023-06-16_10h22.49.006,phx_ver10,2022.2.5,Win32,59.94844434,,,,,,,,,,,,,attn_test,,,,zh2x_8_exe.wav,zh2x_1_izhi.wav,exe.jpg,LEFT,,f,0.3342,space,2.1342,,,,,,,,,,,,,,,,,,,,,,,,,,,
603758e41c4468b882a74700,2023-06-16_10h22.49.006,phx_ver10,2022.2.5,Win32,59.94844434,,,,,,,,,,,,,,,,,,,,,,,,,,,,,,,space,0.6321,,,,,,,,,,,,,,,,,,,,
603758e41c4468b882a74700,2023-06-16_10h22.49.006,phx_ver10,2022.2.5,Win32,59.94844434,,,,,,,,,,,,,,,,,,,,,,,,,,,,,,,,,space,6.1998,,,,,,,,,,,,,,,,,,
603758e41c4468b882a74700,2023-06-16_10h22.49.006,phx_ver10,2022.2.5,Win32,59.94844434,,,,,,,,,,,,3,testing_pre,,,,afa.wav,aha.wav,,FALSE,,,,,,,,,,,,,,,f,1.2942,space,2.3447,0,0,0,2,1,,,,,,,,,
603758e41c4468b882a74700,2023-06-16_10h22.49.006,phx_ver10,2022.2.5,Win32,59.94844434,,,,,,,,,,,,5,testing_pre,,,,ihi.wav,ifi.wav,,FALSE,,,,,,,,,,,,,,,f,0.5679,space,1.2187,0,1,1,4,1,,,,,,,,,
603758e41c4468b882a74700,2023-06-16_10h22.49.006,phx_ver10,2022.2.5,Win32,59.94844434,,,,,,,,,,,,1,testing_pre,,,,ifi.wav,ifi.wav,,TRUE,,,,,,,,,,,,,,,f,0.7852,space,1.3009,0,2,2,0,1,,,,,,,,,
603758e41c4468b882a74700,2023-06-16_10h22.49.006,phx_ver10,2022.2.5,Win32,59.94844434,,,,,,,,,,,,2,testing_pre,,,,auhau.wav,aufau.wav,,FALSE,,,,,,,,,,,,,,,f,0.6163,space,0.95,0,3,3,1,1,,,,,,,,,
603758e41c4468b882a74700,2023-06-16_10h22.49.006,phx_ver10,2022.2.5,Win32,59.94844434,,,,,,,,,,,,4,testing_pre,,,,eihei.wav,eihei.wav,,TRUE,,,,,,,,,,,,,,,f,0.8342,space,1.5535,0,4,4,3,1,,,,,,,,,
603758e41c4468b882a74700,2023-06-16_10h22.49.006,phx_ver10,2022.2.5,Win32,59.94844434,,,,,,,,,,,,,,,,,,,,,,,,,,,,,,,,,,,,,,,,,,,,space,0.7137,,,,,,,
603758e41c4468b882a74700,2023-06-16_10h22.49.006,phx_ver10,2022.2.5,Win32,59.94844434,,,,,,,,,,,,72,testing_3,zh2j,i,zh2j_i,zh2j_8_iji.wav,zh2j_1_izhi.wav,,FALSE,FALSE,,,,,,,,,,,,,,f,0.5852,space,1.0986,,,,,,,,0,0,0,71,1,,
603758e41c4468b882a74700,2023-06-16_10h22.49.006,phx_ver10,2022.2.5,Win32,59.94844434,,,,,,,,,,,,108,testing_3,sh2x,au,sh2x_au,sh2x_8_auxau.wav,sh2x_1_aushau.wav,,FALSE,FALSE,,,,,,,,,,,,,,f,0.9845,space,1.3652,,,,,,,,0,1,1,107,1,,
603758e41c4468b882a74700,2023-06-16_10h22.49.006,phx_ver10,2022.2.5,Win32,59.94844434,,,,,,,,,,,,85,testing_3,j2x,e,j2x_e,j2x_1_eje.wav,j2x_1_eje.wav,,TRUE,FALSE,,,,,,,,,,,,,,f,0.3849,space,0.7074,,,,,,,,0,2,2,84,1,,
603758e41c4468b882a74700,2023-06-16_10h22.49.006,phx_ver10,2022.2.5,Win32,59.94844434,,,,,,,,,,,,49,testing_3,zh2j,a,zh2j_a,zh2j_1_azha.wav,zh2j_1_azha.wav,,TRUE,FALSE,,,,,,,,,,,,,,f,0.4367,space,0.7902,,,,,,,,0,3,3,48,1,,
603758e41c4468b882a74700,2023-06-16_10h22.49.006,phx_ver10,2022.2.5,Win32,59.94844434,,,,,,,,,,,,81,testing_3,j2x,au,j2x_au,j2x_1_aujau.wav,j2x_1_aujau.wav,,TRUE,FALSE,,,,,,,,,,,,,,f,0.0903,space,0.4597,,,,,,,,0,4,4,80,1,,
603758e41c4468b882a74700,2023-06-16_10h22.49.006,phx_ver10,2022.2.5,Win32,59.94844434,,,,,,,,,,,,138,testing_3,sh2j,ei,sh2j_ei,sh2j_8_eijei.wav,sh2j_8_eijei.wav,,TRUE,FALSE,,,,,,,,,,,,,,f,0.3516,space,0.7236,,,,,,,,0,5,5,137,1,,
603758e41c4468b882a74700,2023-06-16_10h22.49.006,phx_ver10,2022.2.5,Win32,59.94844434,,,,,,,,,,,,125,testing_3,sh2j,ai,sh2j_ai,sh2j_1_aishai.wav,sh2j_1_aishai.wav,,TRUE,FALSE,,,,,,,,,,,,,,f,0.1187,space,0.5097,,,,,,,,0,6,6,124,1,,
603758e41c4468b882a74700,2023-06-16_10h22.49.006,phx_ver10,2022.2.5,Win32,59.94844434,,,,,,,,,,,,8,testing_1,zh2x,e,zh2x_e,zh2x_8_exe.wav,zh2x_1_ezhe.wav,,FALSE,TRUE,,,,,,,,,,,,,,f,0.9205,space,1.2224,,,,,,,,0,7,7,7,1,,
603758e41c4468b882a74700,2023-06-16_10h22.49.006,phx_ver10,2022.2.5,Win32,59.94844434,,,,,,,,,,,,143,testing_3,sh2j,i,sh2j_i,sh2j_1_ishi.wav,sh2j_8_iji.wav,,FALSE,FALSE,,,,,,,,,,,,,,j,1.0678,space,1.4892,,,,,,,,0,8,8,142,1,,
603758e41c4468b882a74700,2023-06-16_10h22.49.006,phx_ver10,2022.2.5,Win32,59.94844434,,,,,,,,,,,,60,testing_3,zh2j,au,zh2j_au,zh2j_8_aujau.wav,zh2j_1_auzhau.wav,,FALSE,FALSE,,,,,,,,,,,,,,f,0.757,space,1.0222,,,,,,,,0,9,9,59,1,,
603758e41c4468b882a74700,2023-06-16_10h22.49.006,phx_ver10,2022.2.5,Win32,59.94844434,,,,,,,,,,,,126,testing_3,sh2j,ai,sh2j_ai,sh2j_8_aijai.wav,sh2j_8_aijai.wav,,TRUE,FALSE,,,,,,,,,,,,,,j,1.3228,space,1.7426,,,,,,,,0,10,10,125,1,,
603758e41c4468b882a74700,2023-06-16_10h22.49.006,phx_ver10,2022.2.5,Win32,59.94844434,,,,,,,,,,,,13,testing_2,zh2x,ai,zh2x_ai,zh2x_1_aizhai.wav,zh2x_1_aizhai.wav,,TRUE,FALSE,,,,,,,,,,,,,,f,0.7681,space,0.9875,,,,,,,,0,11,11,12,1,,
603758e41c4468b882a74700,2023-06-16_10h22.49.006,phx_ver10,2022.2.5,Win32,59.94844434,,,,,,,,,,,,123,testing_3,sh2j,a,sh2j_a,sh2j_1_asha.wav,sh2j_8_aja.wav,,FALSE,FALSE,,,,,,,,,,,,,,j,0.8166,space,1.0505,,,,,,,,0,12,12,122,1,,
603758e41c4468b882a74700,2023-06-16_10h22.49.006,phx_ver10,2022.2.5,Win32,59.94844434,,,,,,,,,,,,101,testing_3,sh2x,ai,sh2x_ai,sh2x_1_aishai.wav,sh2x_1_aishai.wav,,TRUE,FALSE,,,,,,,,,,,,,,f,0.5509,space,0.7866,,,,,,,,0,13,13,100,1,,
603758e41c4468b882a74700,2023-06-16_10h22.49.006,phx_ver10,2022.2.5,Win32,59.94844434,,,,,,,,,,,,134,testing_3,sh2j,e,sh2j_e,sh2j_8_eje.wav,sh2j_8_eje.wav,,TRUE,FALSE,,,,,,,,,,,,,,f,0.583,space,0.7996,,,,,,,,0,14,14,133,1,,
603758e41c4468b882a74700,2023-06-16_10h22.49.006,phx_ver10,2022.2.5,Win32,59.94844434,,,,,,,,,,,,34,testing_3,zh2sh,au,zh2sh_au,zh2sh_8_aushau.wav,zh2sh_8_aushau.wav,,TRUE,FALSE,,,,,,,,,,,,,,f,0.4675,space,0.6347,,,,,,,,0,15,15,33,1,,
603758e41c4468b882a74700,2023-06-16_10h22.49.006,phx_ver10,2022.2.5,Win32,59.94844434,,,,,,,,,,,,95,testing_3,j2x,i,j2x_i,j2x_1_iji.wav,j2x_8_ixi.wav,,FALSE,FALSE,,,,,,,,,,,,,,j,0.5512,space,0.7181,,,,,,,,0,16,16,94,1,,
603758e41c4468b882a74700,2023-06-16_10h22.49.006,phx_ver10,2022.2.5,Win32,59.94844434,,,,,,,,,,,,66,testing_3,zh2j,ei,zh2j_ei,zh2j_8_eijei.wav,zh2j_8_eijei.wav,,TRUE,FALSE,,,,,,,,,,,,,,f,0.5334,space,0.7508,,,,,,,,0,17,17,65,1,,
603758e41c4468b882a74700,2023-06-16_10h22.49.006,phx_ver10,2022.2.5,Win32,59.94844434,,,,,,,,,,,,18,testing_2,zh2x,au,zh2x_au,zh2x_8_auxau.wav,zh2x_8_auxau.wav,,TRUE,FALSE,,,,,,,,,,,,,,f,0.187,space,0.4057,,,,,,,,0,18,18,17,1,,
603758e41c4468b882a74700,2023-06-16_10h22.49.006,phx_ver10,2022.2.5,Win32,59.94844434,,,,,,,,,,,,102,testing_3,sh2x,ai,sh2x_ai,sh2x_8_aixai.wav,sh2x_8_aixai.wav,,TRUE,FALSE,,,,,,,,,,,,,,f,0.0513,space,0.3029,,,,,,,,0,19,19,101,1,,
603758e41c4468b882a74700,2023-06-16_10h22.49.006,phx_ver10,2022.2.5,Win32,59.94844434,,,,,,,,,,,,133,testing_3,sh2j,e,sh2j_e,sh2j_1_eshe.wav,sh2j_1_eshe.wav,,TRUE,FALSE,,,,,,,,,,,,,,f,0.1844,space,0.434,,,,,,,,0,20,20,132,1,,
603758e41c4468b882a74700,2023-06-16_10h22.49.006,phx_ver10,2022.2.5,Win32,59.94844434,,,,,,,,,,,,36,testing_3,zh2sh,au,zh2sh_au,zh2sh_8_aushau.wav,zh2sh_1_auzhau.wav,,FALSE,FALSE,,,,,,,,,,,,,,j,0.8674,space,1.1006,,,,,,,,0,21,21,35,1,,
603758e41c4468b882a74700,2023-06-16_10h22.49.006,phx_ver10,2022.2.5,Win32,59.94844434,,,,,,,,,,,,88,testing_3,j2x,e,j2x_e,j2x_8_exe.wav,j2x_1_eje.wav,,FALSE,FALSE,,,,,,,,,,,,,,j,0.3703,space,0.6564,,,,,,,,0,22,22,87,1,,
603758e41c4468b882a74700,2023-06-16_10h22.49.006,phx_ver10,2022.2.5,Win32,59.94844434,,,,,,,,,,,,31,testing_3,zh2sh,ai,zh2sh_ai,zh2sh_1_aizhai.wav,zh2sh_8_aishai.wav,,FALSE,FALSE,,,,,,,,,,,,,,j,0.3536,space,0.6722,,,,,,,,0,23,23,30,1,,
603758e41c4468b882a74700,2023-06-16_10h22.49.006,phx_ver10,2022.2.5,Win32,59.94844434,,,,,,,,,,,,53,testing_3,zh2j,ai,zh2j_ai,zh2j_1_aizhai.wav,zh2j_1_aizhai.wav,,TRUE,FALSE,,,,,,,,,,,,,,f,0.1539,space,0.3576,,,,,,,,0,24,24,52,1,,
603758e41c4468b882a74700,2023-06-16_10h22.49.006,phx_ver10,2022.2.5,Win32,59.94844434,,,,,,,,,,,,63,testing_3,zh2j,e,zh2j_e,zh2j_1_ezhe.wav,zh2j_8_eje.wav,,FALSE,FALSE,,,,,,,,,,,,,,f,0.1347,space,0.282,,,,,,,,0,25,25,62,1,,
603758e41c4468b882a74700,2023-06-16_10h22.49.006,phx_ver10,2022.2.5,Win32,59.94844434,,,,,,,,,,,,109,testing_3,sh2x,e,sh2x_e,sh2x_1_eshe.wav,sh2x_1_eshe.wav,,TRUE,FALSE,,,,,,,,,,,,,,f,0.4016,space,0.6579,,,,,,,,0,26,26,108,1,,
603758e41c4468b882a74700,2023-06-16_10h22.49.006,phx_ver10,2022.2.5,Win32,59.94844434,,,,,,,,,,,,90,testing_3,j2x,ei,j2x_ei,j2x_8_eixei.wav,j2x_8_eixei.wav,,TRUE,FALSE,,,,,,,,,,,,,,f,0.7674,space,2.3684,,,,,,,,0,27,27,89,1,,
603758e41c4468b882a74700,2023-06-16_10h22.49.006,phx_ver10,2022.2.5,Win32,59.94844434,,,,,,,,,,,,89,testing_3,j2x,ei,j2x_ei,j2x_1_eijei.wav,j2x_1_eijei.wav,,TRUE,FALSE,,,,,,,,,,,,,,f,0.1679,space,0.3668,,,,,,,,0,28,28,88,1,,
603758e41c4468b882a74700,2023-06-16_10h22.49.006,phx_ver10,2022.2.5,Win32,59.94844434,,,,,,,,,,,,74,testing_3,j2x,a,j2x_a,j2x_8_axa.wav,j2x_8_axa.wav,,TRUE,FALSE,,,,,,,,,,,,,,f,0.0242,space,0.2505,,,,,,,,0,29,29,73,1,,
603758e41c4468b882a74700,2023-06-16_10h22.49.006,phx_ver10,2022.2.5,Win32,59.94844434,,,,,,,,,,,,24,testing_2,zh2x,ei,zh2x_ei,zh2x_8_eixei.wav,zh2x_1_eizhei.wav,,FALSE,FALSE,,,,,,,,,,,,,,j,0.7595,space,0.9512,,,,,,,,0,30,30,23,1,,
603758e41c4468b882a74700,2023-06-16_10h22.49.006,phx_ver10,2022.2.5,Win32,59.94844434,,,,,,,,,,,,15,testing_2,zh2x,ai,zh2x_ai,zh2x_1_aizhai.wav,zh2x_8_aixai.wav,,FALSE,FALSE,,,,,,,,,,,,,,j,0.5689,space,0.7177,,,,,,,,0,31,31,14,1,,
603758e41c4468b882a74700,2023-06-16_10h22.49.006,phx_ver10,2022.2.5,Win32,59.94844434,,,,,,,,,,,,116,testing_3,sh2x,ei,sh2x_ei,sh2x_8_eixei.wav,sh2x_1_eishei.wav,,FALSE,FALSE,,,,,,,,,,,,,,j,0.4681,space,0.6053,,,,,,,,0,32,32,115,1,,
603758e41c4468b882a74700,2023-06-16_10h22.49.006,phx_ver10,2022.2.5,Win32,59.94844434,,,,,,,,,,,,75,testing_3,j2x,a,j2x_a,j2x_1_aja.wav,j2x_8_axa.wav,,FALSE,FALSE,,,,,,,,,,,,,,j,0.1997,space,0.4296,,,,,,,,0,33,33,74,1,,
603758e41c4468b882a74700,2023-06-16_10h22.49.006,phx_ver10,2022.2.5,Win32,59.94844434,,,,,,,,,,,,98,testing_3,sh2x,a,sh2x_a,sh2x_8_axa.wav,sh2x_8_axa.wav,,TRUE,FALSE,,,,,,,,,,,,,,f,0.7611,space,0.9445,,,,,,,,0,34,34,97,1,,
603758e41c4468b882a74700,2023-06-16_10h22.49.006,phx_ver10,2022.2.5,Win32,59.94844434,,,,,,,,,,,,22,testing_2,zh2x,ei,zh2x_ei,zh2x_8_eixei.wav,zh2x_8_eixei.wav,,TRUE,FALSE,,,,,,,,,,,,,,f,0.6021,space,0.9254,,,,,,,,0,35,35,21,1,,
603758e41c4468b882a74700,2023-06-16_10h22.49.006,phx_ver10,2022.2.5,Win32,59.94844434,,,,,,,,,,,,51,testing_3,zh2j,a,zh2j_a,zh2j_1_azha.wav,zh2j_8_aja.wav,,FALSE,FALSE,,,,,,,,,,,,,,f,0.1581,space,0.456,,,,,,,,0,36,36,50,1,,
603758e41c4468b882a74700,2023-06-16_10h22.49.006,phx_ver10,2022.2.5,Win32,59.94844434,,,,,,,,,,,,93,testing_3,j2x,i,j2x_i,j2x_1_iji.wav,j2x_1_iji.wav,,TRUE,FALSE,,,,,,,,,,,,,,f,0.1541,space,0.4365,,,,,,,,0,37,37,92,1,,
603758e41c4468b882a74700,2023-06-16_10h22.49.006,phx_ver10,2022.2.5,Win32,59.94844434,,,,,,,,,,,,46,testing_3,zh2sh,i,zh2sh_i,zh2sh_8_ishi.wav,zh2sh_8_ishi.wav,,TRUE,FALSE,,,,,,,,,,,,,,f,0.2683,space,0.601,,,,,,,,0,38,38,45,1,,
603758e41c4468b882a74700,2023-06-16_10h22.49.006,phx_ver10,2022.2.5,Win32,59.94844434,,,,,,,,,,,,131,testing_3,sh2j,au,sh2j_au,sh2j_1_aushau.wav,sh2j_8_aujau.wav,,FALSE,FALSE,,,,,,,,,,,,,,j,0.8895,space,1.2091,,,,,,,,0,39,39,130,1,,
603758e41c4468b882a74700,2023-06-16_10h22.49.006,phx_ver10,2022.2.5,Win32,59.94844434,,,,,,,,,,,,96,testing_3,j2x,i,j2x_i,j2x_8_ixi.wav,j2x_1_iji.wav,,FALSE,FALSE,,,,,,,,,,,,,,f,2.1099,space,3.0562,,,,,,,,0,40,40,95,1,,
603758e41c4468b882a74700,2023-06-16_10h22.49.006,phx_ver10,2022.2.5,Win32,59.94844434,,,,,,,,,,,,80,testing_3,j2x,ai,j2x_ai,j2x_8_aixai.wav,j2x_1_aijai.wav,,FALSE,FALSE,,,,,,,,,,,,,,j,0.6347,space,0.9841,,,,,,,,0,41,41,79,1,,
603758e41c4468b882a74700,2023-06-16_10h22.49.006,phx_ver10,2022.2.5,Win32,59.94844434,,,,,,,,,,,,3,testing_1,zh2x,a,zh2x_a,zh2x_1_azha.wav,zh2x_8_axa.wav,,FALSE,TRUE,,,,,,,,,,,,,,j,0.5858,space,18.0339,,,,,,,,0,42,42,2,1,,
603758e41c4468b882a74700,2023-06-16_10h22.49.006,phx_ver10,2022.2.5,Win32,59.94844434,,,,,,,,,,,,128,testing_3,sh2j,ai,sh2j_ai,sh2j_8_aijai.wav,sh2j_1_aishai.wav,,FALSE,FALSE,,,,,,,,,,,,,,j,0.3576,space,0.4895,,,,,,,,0,43,43,127,1,,
603758e41c4468b882a74700,2023-06-16_10h22.49.006,phx_ver10,2022.2.5,Win32,59.94844434,,,,,,,,,,,,99,testing_3,sh2x,a,sh2x_a,sh2x_1_asha.wav,sh2x_8_axa.wav,,FALSE,FALSE,,,,,,,,,,,,,,f,1.5226,space,1.6373,,,,,,,,0,44,44,98,1,,
603758e41c4468b882a74700,2023-06-16_10h22.49.006,phx_ver10,2022.2.5,Win32,59.94844434,,,,,,,,,,,,130,testing_3,sh2j,au,sh2j_au,sh2j_8_aujau.wav,sh2j_8_aujau.wav,,TRUE,FALSE,,,,,,,,,,,,,,f,0.1679,space,0.3187,,,,,,,,0,45,45,129,1,,
603758e41c4468b882a74700,2023-06-16_10h22.49.006,phx_ver10,2022.2.5,Win32,59.94844434,,,,,,,,,,,,14,testing_2,zh2x,ai,zh2x_ai,zh2x_8_aixai.wav,zh2x_8_aixai.wav,,TRUE,FALSE,,,,,,,,,,,,,,f,3.0654,space,3.3909,,,,,,,,0,46,46,13,1,,
603758e41c4468b882a74700,2023-06-16_10h22.49.006,phx_ver10,2022.2.5,Win32,59.94844434,,,,,,,,,,,,78,testing_3,j2x,ai,j2x_ai,j2x_8_aixai.wav,j2x_8_aixai.wav,,TRUE,FALSE,,,,,,,,,,,,,,f,0.0873,space,0.3901,,,,,,,,0,47,47,77,1,,
603758e41c4468b882a74700,2023-06-16_10h22.49.006,phx_ver10,2022.2.5,Win32,59.94844434,,,,,,,,,,,,86,testing_3,j2x,e,j2x_e,j2x_8_exe.wav,j2x_8_exe.wav,,TRUE,FALSE,,,,,,,,,,,,,,f,0.1759,space,0.4704,,,,,,,,0,48,48,85,1,,
603758e41c4468b882a74700,2023-06-16_10h22.49.006,phx_ver10,2022.2.5,Win32,59.94844434,,,,,,,,,,,,40,testing_3,zh2sh,e,zh2sh_e,zh2sh_8_eshe.wav,zh2sh_1_ezhe.wav,,FALSE,FALSE,,,,,,,,,,,,,,f,3.4176,space,3.5349,,,,,,,,0,49,49,39,1,,
603758e41c4468b882a74700,2023-06-16_10h22.49.006,phx_ver10,2022.2.5,Win32,59.94844434,,,,,,,,,,,,112,testing_3,sh2x,e,sh2x_e,sh2x_8_exe.wav,sh2x_1_eshe.wav,,FALSE,FALSE,,,,,,,,,,,,,,j,0.7296,space,0.9269,,,,,,,,0,50,50,111,1,,
603758e41c4468b882a74700,2023-06-16_10h22.49.006,phx_ver10,2022.2.5,Win32,59.94844434,,,,,,,,,,,,25,testing_3,zh2sh,a,zh2sh_a,zh2sh_1_azha.wav,zh2sh_1_azha.wav,,TRUE,FALSE,,,,,,,,,,,,,,f,0.8512,space,0.9682,,,,,,,,0,51,51,24,1,,
603758e41c4468b882a74700,2023-06-16_10h22.49.006,phx_ver10,2022.2.5,Win32,59.94844434,,,,,,,,,,,,67,testing_3,zh2j,ei,zh2j_ei,zh2j_1_eizhei.wav,zh2j_8_eijei.wav,,FALSE,FALSE,,,,,,,,,,,,,,f,0.199,space,0.3723,,,,,,,,0,52,52,66,1,,
603758e41c4468b882a74700,2023-06-16_10h22.49.006,phx_ver10,2022.2.5,Win32,59.94844434,,,,,,,,,,,,117,testing_3,sh2x,i,sh2x_i,sh2x_1_ishi.wav,sh2x_1_ishi.wav,,TRUE,FALSE,,,,,,,,,,,,,,f,0.0674,space,0.2705,,,,,,,,0,53,53,116,1,,
603758e41c4468b882a74700,2023-06-16_10h22.49.006,phx_ver10,2022.2.5,Win32,59.94844434,,,,,,,,,,,,54,testing_3,zh2j,ai,zh2j_ai,zh2j_8_aijai.wav,zh2j_8_aijai.wav,,TRUE,FALSE,,,,,,,,,,,,,,f,0.02,space,0.2046,,,,,,,,0,54,54,53,1,,
603758e41c4468b882a74700,2023-06-16_10h22.49.006,phx_ver10,2022.2.5,Win32,59.94844434,,,,,,,,,,,,59,testing_3,zh2j,au,zh2j_au,zh2j_1_auzhau.wav,zh2j_8_aujau.wav,,FALSE,FALSE,,,,,,,,,,,,,,f,0.3844,space,0.5992,,,,,,,,0,55,55,58,1,,
603758e41c4468b882a74700,2023-06-16_10h22.49.006,phx_ver10,2022.2.5,Win32,59.94844434,,,,,,,,,,,,144,testing_3,sh2j,i,sh2j_i,sh2j_8_iji.wav,sh2j_1_ishi.wav,,FALSE,FALSE,,,,,,,,,,,,,,j,0.8671,space,0.987,,,,,,,,0,56,56,143,1,,
603758e41c4468b882a74700,2023-06-16_10h22.49.006,phx_ver10,2022.2.5,Win32,59.94844434,,,,,,,,,,,,115,testing_3,sh2x,ei,sh2x_ei,sh2x_1_eishei.wav,sh2x_8_eixei.wav,,FALSE,FALSE,,,,,,,,,,,,,,j,0.3044,space,0.6379,,,,,,,,0,57,57,114,1,,
603758e41c4468b882a74700,2023-06-16_10h22.49.006,phx_ver10,2022.2.5,Win32,59.94844434,,,,,,,,,,,,6,testing_1,zh2x,e,zh2x_e,zh2x_8_exe.wav,zh2x_8_exe_copy.wav,,TRUE,TRUE,,,,,,,,,,,,,,f,0.4241,space,0.5345,,,,,,,,0,58,58,5,1,,
603758e41c4468b882a74700,2023-06-16_10h22.49.006,phx_ver10,2022.2.5,Win32,59.94844434,,,,,,,,,,,,28,testing_3,zh2sh,a,zh2sh_a,zh2sh_8_asha.wav,zh2sh_1_azha.wav,,FALSE,FALSE,,,,,,,,,,,,,,j,0.1348,space,0.3255,,,,,,,,0,59,59,27,1,,
603758e41c4468b882a74700,2023-06-16_10h22.49.006,phx_ver10,2022.2.5,Win32,59.94844434,,,,,,,,,,,,16,testing_2,zh2x,ai,zh2x_ai,zh2x_8_aixai.wav,zh2x_1_aizhai.wav,,FALSE,FALSE,,,,,,,,,,,,,,j,0.9193,space,1.3011,,,,,,,,0,60,60,15,1,,
603758e41c4468b882a74700,2023-06-16_10h22.49.006,phx_ver10,2022.2.5,Win32,59.94844434,,,,,,,,,,,,30,testing_3,zh2sh,ai,zh2sh_ai,zh2sh_8_aishai.wav,zh2sh_8_aishai.wav,,TRUE,FALSE,,,,,,,,,,,,,,f,0.4937,space,0.6206,,,,,,,,0,61,61,29,1,,
603758e41c4468b882a74700,2023-06-16_10h22.49.006,phx_ver10,2022.2.5,Win32,59.94844434,,,,,,,,,,,,7,testing_1,zh2x,e,zh2x_e,zh2x_1_ezhe.wav,zh2x_8_exe.wav,,FALSE,TRUE,,,,,,,,,,,,,,f,0.1088,space,0.3366,,,,,,,,0,62,62,6,1,,
603758e41c4468b882a74700,2023-06-16_10h22.49.006,phx_ver10,2022.2.5,Win32,59.94844434,,,,,,,,,,,,92,testing_3,j2x,ei,j2x_ei,j2x_8_eixei.wav,j2x_1_eijei.wav,,FALSE,FALSE,,,,,,,,,,,,,,f,0.0729,space,0.2408,,,,,,,,0,63,63,91,1,,
603758e41c4468b882a74700,2023-06-16_10h22.49.006,phx_ver10,2022.2.5,Win32,59.94844434,,,,,,,,,,,,129,testing_3,sh2j,au,sh2j_au,sh2j_1_aushau.wav,sh2j_1_aushau.wav,,TRUE,FALSE,,,,,,,,,,,,,,f,0.4843,space,0.7029,,,,,,,,0,64,64,128,1,,
603758e41c4468b882a74700,2023-06-16_10h22.49.006,phx_ver10,2022.2.5,Win32,59.94844434,,,,,,,,,,,,111,testing_3,sh2x,e,sh2x_e,sh2x_1_eshe.wav,sh2x_8_exe.wav,,FALSE,FALSE,,,,,,,,,,,,,,j,0.1009,space,0.3736,,,,,,,,0,65,65,110,1,,
603758e41c4468b882a74700,2023-06-16_10h22.49.006,phx_ver10,2022.2.5,Win32,59.94844434,,,,,,,,,,,,127,testing_3,sh2j,ai,sh2j_ai,sh2j_1_aishai.wav,sh2j_8_aijai.wav,,FALSE,FALSE,,,,,,,,,,,,,,j,1.8521,space,4.4755,,,,,,,,0,66,66,126,1,,
603758e41c4468b882a74700,2023-06-16_10h22.49.006,phx_ver10,2022.2.5,Win32,59.94844434,,,,,,,,,,,,70,testing_3,zh2j,i,zh2j_i,zh2j_8_iji.wav,zh2j_8_iji.wav,,TRUE,FALSE,,,,,,,,,,,,,,f,1.6689,space,1.8267,,,,,,,,0,67,67,69,1,,
603758e41c4468b882a74700,2023-06-16_10h22.49.006,phx_ver10,2022.2.5,Win32,59.94844434,,,,,,,,,,,,1,testing_1,zh2x,a,zh2x_a,zh2x_1_azha.wav,zh2x_1_azha_copy.wav,,TRUE,TRUE,,,,,,,,,,,,,,f,0.0335,space,0.2739,,,,,,,,0,68,68,0,1,,
603758e41c4468b882a74700,2023-06-16_10h22.49.006,phx_ver10,2022.2.5,Win32,59.94844434,,,,,,,,,,,,124,testing_3,sh2j,a,sh2j_a,sh2j_8_aja.wav,sh2j_1_asha.wav,,FALSE,FALSE,,,,,,,,,,,,,,j,0.6512,space,0.8519,,,,,,,,0,69,69,123,1,,
603758e41c4468b882a74700,2023-06-16_10h22.49.006,phx_ver10,2022.2.5,Win32,59.94844434,,,,,,,,,,,,142,testing_3,sh2j,i,sh2j_i,sh2j_8_iji.wav,sh2j_8_iji.wav,,TRUE,FALSE,,,,,,,,,,,,,,j,0.3488,space,0.6492,,,,,,,,0,70,70,141,1,,
603758e41c4468b882a74700,2023-06-16_10h22.49.006,phx_ver10,2022.2.5,Win32,59.94844434,,,,,,,,,,,,68,testing_3,zh2j,ei,zh2j_ei,zh2j_8_eijei.wav,zh2j_1_eizhei.wav,,FALSE,FALSE,,,,,,,,,,,,,,f,0.2685,space,0.6019,,,,,,,,0,71,71,67,1,,
603758e41c4468b882a74700,2023-06-16_10h22.49.006,phx_ver10,2022.2.5,Win32,59.94844434,,,,,,,,,,,,41,testing_3,zh2sh,ei,zh2sh_ei,zh2sh_1_eizhei.wav,zh2sh_1_eizhei.wav,,TRUE,FALSE,,,,,,,,,,,,,,f,0.1512,space,0.4348,,,,,,,,0,72,72,40,1,,
603758e41c4468b882a74700,2023-06-16_10h22.49.006,phx_ver10,2022.2.5,Win32,59.94844434,,,,,,,,,,,,65,testing_3,zh2j,ei,zh2j_ei,zh2j_1_eizhei.wav,zh2j_1_eizhei.wav,,TRUE,FALSE,,,,,,,,,,,,,,f,0.2514,space,0.5838,,,,,,,,0,73,73,64,1,,
603758e41c4468b882a74700,2023-06-16_10h22.49.006,phx_ver10,2022.2.5,Win32,59.94844434,,,,,,,,,,,,56,testing_3,zh2j,ai,zh2j_ai,zh2j_8_aijai.wav,zh2j_1_aizhai.wav,,FALSE,FALSE,,,,,,,,,,,,,,f,0.2713,space,0.5495,,,,,,,,0,74,74,55,1,,
603758e41c4468b882a74700,2023-06-16_10h22.49.006,phx_ver10,2022.2.5,Win32,59.94844434,,,,,,,,,,,,50,testing_3,zh2j,a,zh2j_a,zh2j_8_aja.wav,zh2j_8_aja.wav,,TRUE,FALSE,,,,,,,,,,,,,,f,0.1846,space,0.5103,,,,,,,,0,75,75,49,1,,
603758e41c4468b882a74700,2023-06-16_10h22.49.006,phx_ver10,2022.2.5,Win32,59.94844434,,,,,,,,,,,,137,testing_3,sh2j,ei,sh2j_ei,sh2j_1_eishei.wav,sh2j_1_eishei.wav,,TRUE,FALSE,,,,,,,,,,,,,,f,0.0179,space,0.3502,,,,,,,,0,76,76,136,1,,
603758e41c4468b882a74700,2023-06-16_10h22.49.006,phx_ver10,2022.2.5,Win32,59.94844434,,,,,,,,,,,,12,testing_1,zh2x,i,zh2x_i,zh2x_8_ixi.wav,zh2x_1_izhi.wav,,FALSE,TRUE,,,,,,,,,,,,,,f,0.2014,space,0.4893,,,,,,,,0,77,77,11,1,,
603758e41c4468b882a74700,2023-06-16_10h22.49.006,phx_ver10,2022.2.5,Win32,59.94844434,,,,,,,,,,,,42,testing_3,zh2sh,ei,zh2sh_ei,zh2sh_8_eishei.wav,zh2sh_8_eishei.wav,,TRUE,FALSE,,,,,,,,,,,,,,f,0.1009,space,0.3512,,,,,,,,0,78,78,41,1,,
603758e41c4468b882a74700,2023-06-16_10h22.49.006,phx_ver10,2022.2.5,Win32,59.94844434,,,,,,,,,,,,132,testing_3,sh2j,au,sh2j_au,sh2j_8_aujau.wav,sh2j_1_aushau.wav,,FALSE,FALSE,,,,,,,,,,,,,,j,0.0847,space,0.458,,,,,,,,0,79,79,131,1,,
603758e41c4468b882a74700,2023-06-16_10h22.49.006,phx_ver10,2022.2.5,Win32,59.94844434,,,,,,,,,,,,27,testing_3,zh2sh,a,zh2sh_a,zh2sh_1_azha.wav,zh2sh_8_asha.wav,,FALSE,FALSE,,,,,,,,,,,,,,f,0.5357,space,0.7568,,,,,,,,0,80,80,26,1,,
603758e41c4468b882a74700,2023-06-16_10h22.49.006,phx_ver10,2022.2.5,Win32,59.94844434,,,,,,,,,,,,83,testing_3,j2x,au,j2x_au,j2x_1_aujau.wav,j2x_8_auxau.wav,,FALSE,FALSE,,,,,,,,,,,,,,j,0.4005,space,0.8057,,,,,,,,0,81,81,82,1,,
603758e41c4468b882a74700,2023-06-16_10h22.49.006,phx_ver10,2022.2.5,Win32,59.94844434,,,,,,,,,,,,39,testing_3,zh2sh,e,zh2sh_e,zh2sh_1_ezhe.wav,zh2sh_8_eshe.wav,,FALSE,FALSE,,,,,,,,,,,,,,f,0.5342,space,0.784,,,,,,,,0,82,82,38,1,,
603758e41c4468b882a74700,2023-06-16_10h22.49.006,phx_ver10,2022.2.5,Win32,59.94844434,,,,,,,,,,,,62,testing_3,zh2j,e,zh2j_e,zh2j_8_eje.wav,zh2j_8_eje.wav,,TRUE,FALSE,,,,,,,,,,,,,,f,0.1848,space,0.4527,,,,,,,,0,83,83,61,1,,
603758e41c4468b882a74700,2023-06-16_10h22.49.006,phx_ver10,2022.2.5,Win32,59.94844434,,,,,,,,,,,,139,testing_3,sh2j,ei,sh2j_ei,sh2j_1_eishei.wav,sh2j_8_eijei.wav,,FALSE,FALSE,,,,,,,,,,,,,,j,0.1014,space,0.3876,,,,,,,,0,84,84,138,1,,
603758e41c4468b882a74700,2023-06-16_10h22.49.006,phx_ver10,2022.2.5,Win32,59.94844434,,,,,,,,,,,,100,testing_3,sh2x,a,sh2x_a,sh2x_8_axa.wav,sh2x_1_asha.wav,,FALSE,FALSE,,,,,,,,,,,,,,f,0.6323,space,0.8999,,,,,,,,0,85,85,99,1,,
603758e41c4468b882a74700,2023-06-16_10h22.49.006,phx_ver10,2022.2.5,Win32,59.94844434,,,,,,,,,,,,82,testing_3,j2x,au,j2x_au,j2x_8_auxau.wav,j2x_8_auxau.wav,,TRUE,FALSE,,,,,,,,,,,,,,f,0.5181,space,0.9053,,,,,,,,0,86,86,81,1,,
603758e41c4468b882a74700,2023-06-16_10h22.49.006,phx_ver10,2022.2.5,Win32,59.94844434,,,,,,,,,,,,69,testing_3,zh2j,i,zh2j_i,zh2j_1_izhi.wav,zh2j_1_izhi.wav,,TRUE,FALSE,,,,,,,,,,,,,,f,0.372,space,0.6444,,,,,,,,0,87,87,68,1,,
603758e41c4468b882a74700,2023-06-16_10h22.49.006,phx_ver10,2022.2.5,Win32,59.94844434,,,,,,,,,,,,21,testing_2,zh2x,ei,zh2x_ei,zh2x_1_eizhei.wav,zh2x_1_eizhei.wav,,TRUE,FALSE,,,,,,,,,,,,,,f,0.2407,space,0.6072,,,,,,,,0,88,88,20,1,,
603758e41c4468b882a74700,2023-06-16_10h22.49.006,phx_ver10,2022.2.5,Win32,59.94844434,,,,,,,,,,,,120,testing_3,sh2x,i,sh2x_i,sh2x_8_ixi.wav,sh2x_1_ishi.wav,,FALSE,FALSE,,,,,,,,,,,,,,j,0.2496,space,0.6839,,,,,,,,0,89,89,119,1,,
603758e41c4468b882a74700,2023-06-16_10h22.49.006,phx_ver10,2022.2.5,Win32,59.94844434,,,,,,,,,,,,33,testing_3,zh2sh,au,zh2sh_au,zh2sh_1_auzhau.wav,zh2sh_1_auzhau.wav,,TRUE,FALSE,,,,,,,,,,,,,,f,0.2416,space,0.6045,,,,,,,,0,90,90,32,1,,
603758e41c4468b882a74700,2023-06-16_10h22.49.006,phx_ver10,2022.2.5,Win32,59.94844434,,,,,,,,,,,,35,testing_3,zh2sh,au,zh2sh_au,zh2sh_1_auzhau.wav,zh2sh_8_aushau.wav,,FALSE,FALSE,,,,,,,,,,,,,,j,0.5332,space,0.9994,,,,,,,,0,91,91,34,1,,
603758e41c4468b882a74700,2023-06-16_10h22.49.006,phx_ver10,2022.2.5,Win32,59.94844434,,,,,,,,,,,,9,testing_1,zh2x,i,zh2x_i,zh2x_1_izhi.wav,zh2x_1_izhi_copy.wav,,TRUE,TRUE,,,,,,,,,,,,,,f,0.4943,space,0.8113,,,,,,,,0,92,92,8,1,,
603758e41c4468b882a74700,2023-06-16_10h22.49.006,phx_ver10,2022.2.5,Win32,59.94844434,,,,,,,,,,,,94,testing_3,j2x,i,j2x_i,j2x_8_ixi.wav,j2x_8_ixi.wav,,TRUE,FALSE,,,,,,,,,,,,,,f,0.5709,space,2.001,,,,,,,,0,93,93,93,1,,
603758e41c4468b882a74700,2023-06-16_10h22.49.006,phx_ver10,2022.2.5,Win32,59.94844434,,,,,,,,,,,,87,testing_3,j2x,e,j2x_e,j2x_1_eje.wav,j2x_8_exe.wav,,FALSE,FALSE,,,,,,,,,,,,,,f,0.5509,space,0.9083,,,,,,,,0,94,94,86,1,,
603758e41c4468b882a74700,2023-06-16_10h22.49.006,phx_ver10,2022.2.5,Win32,59.94844434,,,,,,,,,,,,58,testing_3,zh2j,au,zh2j_au,zh2j_8_aujau.wav,zh2j_8_aujau.wav,,TRUE,FALSE,,,,,,,,,,,,,,f,0.7181,space,16.9854,,,,,,,,0,95,95,57,1,,
603758e41c4468b882a74700,2023-06-16_10h22.49.006,phx_ver10,2022.2.5,Win32,59.94844434,,,,,,,,,,,,84,testing_3,j2x,au,j2x_au,j2x_8_auxau.wav,j2x_1_aujau.wav,,FALSE,FALSE,,,,,,,,,,,,,,f,1.7987,space,2.0166,,,,,,,,0,96,96,83,1,,
603758e41c4468b882a74700,2023-06-16_10h22.49.006,phx_ver10,2022.2.5,Win32,59.94844434,,,,,,,,,,,,64,testing_3,zh2j,e,zh2j_e,zh2j_8_eje.wav,zh2j_1_ezhe.wav,,FALSE,FALSE,,,,,,,,,,,,,,f,0.1361,space,0.3364,,,,,,,,0,97,97,63,1,,
603758e41c4468b882a74700,2023-06-16_10h22.49.006,phx_ver10,2022.2.5,Win32,59.94844434,,,,,,,,,,,,45,testing_3,zh2sh,i,zh2sh_i,zh2sh_1_izhi.wav,zh2sh_1_izhi.wav,,TRUE,FALSE,,,,,,,,,,,,,,f,0.518,space,0.8013,,,,,,,,0,98,98,44,1,,
603758e41c4468b882a74700,2023-06-16_10h22.49.006,phx_ver10,2022.2.5,Win32,59.94844434,,,,,,,,,,,,113,testing_3,sh2x,ei,sh2x_ei,sh2x_1_eishei.wav,sh2x_1_eishei.wav,,TRUE,FALSE,,,,,,,,,,,,,,f,0.1568,space,0.4678,,,,,,,,0,99,99,112,1,,
603758e41c4468b882a74700,2023-06-16_10h22.49.006,phx_ver10,2022.2.5,Win32,59.94844434,,,,,,,,,,,,91,testing_3,j2x,ei,j2x_ei,j2x_1_eijei.wav,j2x_8_eixei.wav,,FALSE,FALSE,,,,,,,,,,,,,,j,0.466,space,0.6691,,,,,,,,0,100,100,90,1,,
603758e41c4468b882a74700,2023-06-16_10h22.49.006,phx_ver10,2022.2.5,Win32,59.94844434,,,,,,,,,,,,71,testing_3,zh2j,i,zh2j_i,zh2j_1_izhi.wav,zh2j_8_iji.wav,,FALSE,FALSE,,,,,,,,,,,,,,f,1.1181,space,1.3358,,,,,,,,0,101,101,70,1,,
603758e41c4468b882a74700,2023-06-16_10h22.49.006,phx_ver10,2022.2.5,Win32,59.94844434,,,,,,,,,,,,136,testing_3,sh2j,e,sh2j_e,sh2j_8_eje.wav,sh2j_1_eshe.wav,,FALSE,FALSE,,,,,,,,,,,,,,j,0.5181,space,0.8589,,,,,,,,0,102,102,135,1,,
603758e41c4468b882a74700,2023-06-16_10h22.49.006,phx_ver10,2022.2.5,Win32,59.94844434,,,,,,,,,,,,57,testing_3,zh2j,au,zh2j_au,zh2j_1_auzhau.wav,zh2j_1_auzhau.wav,,TRUE,FALSE,,,,,,,,,,,,,,f,0.5687,space,0.9656,,,,,,,,0,103,103,56,1,,
603758e41c4468b882a74700,2023-06-16_10h22.49.006,phx_ver10,2022.2.5,Win32,59.94844434,,,,,,,,,,,,77,testing_3,j2x,ai,j2x_ai,j2x_1_aijai.wav,j2x_1_aijai.wav,,TRUE,FALSE,,,,,,,,,,,,,,f,0.2825,space,0.6399,,,,,,,,0,104,104,76,1,,
603758e41c4468b882a74700,2023-06-16_10h22.49.006,phx_ver10,2022.2.5,Win32,59.94844434,,,,,,,,,,,,23,testing_2,zh2x,ei,zh2x_ei,zh2x_1_eizhei.wav,zh2x_8_eixei.wav,,FALSE,FALSE,,,,,,,,,,,,,,f,0.124,space,0.5873,,,,,,,,0,105,105,22,1,,
603758e41c4468b882a74700,2023-06-16_10h22.49.006,phx_ver10,2022.2.5,Win32,59.94844434,,,,,,,,,,,,122,testing_3,sh2j,a,sh2j_a,sh2j_8_aja.wav,sh2j_8_aja.wav,,TRUE,FALSE,,,,,,,,,,,,,,f,0.4183,space,0.8375,,,,,,,,0,106,106,121,1,,
603758e41c4468b882a74700,2023-06-16_10h22.49.006,phx_ver10,2022.2.5,Win32,59.94844434,,,,,,,,,,,,11,testing_1,zh2x,i,zh2x_i,zh2x_1_izhi.wav,zh2x_8_ixi.wav,,FALSE,TRUE,,,,,,,,,,,,,,f,0.1938,space,0.5421,,,,,,,,0,107,107,10,1,,
603758e41c4468b882a74700,2023-06-16_10h22.49.006,phx_ver10,2022.2.5,Win32,59.94844434,,,,,,,,,,,,114,testing_3,sh2x,ei,sh2x_ei,sh2x_8_eixei.wav,sh2x_8_eixei.wav,,TRUE,FALSE,,,,,,,,,,,,,,f,0.6014,space,0.9351,,,,,,,,0,108,108,113,1,,
603758e41c4468b882a74700,2023-06-16_10h22.49.006,phx_ver10,2022.2.5,Win32,59.94844434,,,,,,,,,,,,48,testing_3,zh2sh,i,zh2sh_i,zh2sh_8_ishi.wav,zh2sh_1_izhi.wav,,FALSE,FALSE,,,,,,,,,,,,,,f,0.5016,space,0.9012,,,,,,,,0,109,109,47,1,,
603758e41c4468b882a74700,2023-06-16_10h22.49.006,phx_ver10,2022.2.5,Win32,59.94844434,,,,,,,,,,,,32,testing_3,zh2sh,ai,zh2sh_ai,zh2sh_8_aishai.wav,zh2sh_1_aizhai.wav,,FALSE,FALSE,,,,,,,,,,,,,,j,0.5436,space,0.8869,,,,,,,,0,110,110,31,1,,
603758e41c4468b882a74700,2023-06-16_10h22.49.006,phx_ver10,2022.2.5,Win32,59.94844434,,,,,,,,,,,,76,testing_3,j2x,a,j2x_a,j2x_8_axa.wav,j2x_1_aja.wav,,FALSE,FALSE,,,,,,,,,,,,,,f,0.6679,space,1.1011,,,,,,,,0,111,111,75,1,,
603758e41c4468b882a74700,2023-06-16_10h22.49.006,phx_ver10,2022.2.5,Win32,59.94844434,,,,,,,,,,,,141,testing_3,sh2j,i,sh2j_i,sh2j_1_ishi.wav,sh2j_1_ishi.wav,,TRUE,FALSE,,,,,,,,,,,,,,f,1.291,space,8.0172,,,,,,,,0,112,112,140,1,,
603758e41c4468b882a74700,2023-06-16_10h22.49.006,phx_ver10,2022.2.5,Win32,59.94844434,,,,,,,,,,,,73,testing_3,j2x,a,j2x_a,j2x_1_aja.wav,j2x_1_aja.wav,,TRUE,FALSE,,,,,,,,,,,,,,f,0.5513,space,0.7683,,,,,,,,0,113,113,72,1,,
603758e41c4468b882a74700,2023-06-16_10h22.49.006,phx_ver10,2022.2.5,Win32,59.94844434,,,,,,,,,,,,118,testing_3,sh2x,i,sh2x_i,sh2x_8_ixi.wav,sh2x_8_ixi.wav,,TRUE,FALSE,,,,,,,,,,,,,,j,0.9487,space,1.3007,,,,,,,,0,114,114,117,1,,
603758e41c4468b882a74700,2023-06-16_10h22.49.006,phx_ver10,2022.2.5,Win32,59.94844434,,,,,,,,,,,,20,testing_2,zh2x,au,zh2x_au,zh2x_8_auxau.wav,zh2x_1_auzhau.wav,,FALSE,FALSE,,,,,,,,,,,,,,f,2.4048,space,2.5866,,,,,,,,0,115,115,19,1,,
603758e41c4468b882a74700,2023-06-16_10h22.49.006,phx_ver10,2022.2.5,Win32,59.94844434,,,,,,,,,,,,97,testing_3,sh2x,a,sh2x_a,sh2x_1_asha.wav,sh2x_1_asha.wav,,TRUE,FALSE,,,,,,,,,,,,,,f,0.6396,space,8.0504,,,,,,,,0,116,116,96,1,,
603758e41c4468b882a74700,2023-06-16_10h22.49.006,phx_ver10,2022.2.5,Win32,59.94844434,,,,,,,,,,,,110,testing_3,sh2x,e,sh2x_e,sh2x_8_exe.wav,sh2x_8_exe.wav,,TRUE,FALSE,,,,,,,,,,,,,,j,1.0188,space,1.3036,,,,,,,,0,117,117,109,1,,
603758e41c4468b882a74700,2023-06-16_10h22.49.006,phx_ver10,2022.2.5,Win32,59.94844434,,,,,,,,,,,,105,testing_3,sh2x,au,sh2x_au,sh2x_1_aushau.wav,sh2x_1_aushau.wav,,TRUE,FALSE,,,,,,,,,,,,,,f,0.3533,space,0.518,,,,,,,,0,118,118,104,1,,
603758e41c4468b882a74700,2023-06-16_10h22.49.006,phx_ver10,2022.2.5,Win32,59.94844434,,,,,,,,,,,,17,testing_2,zh2x,au,zh2x_au,zh2x_1_auzhau.wav,zh2x_1_auzhau.wav,,TRUE,FALSE,,,,,,,,,,,,,,f,0.3678,space,0.6518,,,,,,,,0,119,119,16,1,,
603758e41c4468b882a74700,2023-06-16_10h22.49.006,phx_ver10,2022.2.5,Win32,59.94844434,,,,,,,,,,,,103,testing_3,sh2x,ai,sh2x_ai,sh2x_1_aishai.wav,sh2x_8_aixai.wav,,FALSE,FALSE,,,,,,,,,,,,,,j,1.3247,space,1.535,,,,,,,,0,120,120,102,1,,
603758e41c4468b882a74700,2023-06-16_10h22.49.006,phx_ver10,2022.2.5,Win32,59.94844434,,,,,,,,,,,,119,testing_3,sh2x,i,sh2x_i,sh2x_1_ishi.wav,sh2x_8_ixi.wav,,FALSE,FALSE,,,,,,,,,,,,,,j,0.2593,space,0.5746,,,,,,,,0,121,121,118,1,,
603758e41c4468b882a74700,2023-06-16_10h22.49.006,phx_ver10,2022.2.5,Win32,59.94844434,,,,,,,,,,,,135,testing_3,sh2j,e,sh2j_e,sh2j_1_eshe.wav,sh2j_8_eje.wav,,FALSE,FALSE,,,,,,,,,,,,,,j,0.0855,space,0.4238,,,,,,,,0,122,122,134,1,,
603758e41c4468b882a74700,2023-06-16_10h22.49.006,phx_ver10,2022.2.5,Win32,59.94844434,,,,,,,,,,,,47,testing_3,zh2sh,i,zh2sh_i,zh2sh_1_izhi.wav,zh2sh_8_ishi.wav,,FALSE,FALSE,,,,,,,,,,,,,,j,0.1823,space,0.5206,,,,,,,,0,123,123,46,1,,
603758e41c4468b882a74700,2023-06-16_10h22.49.006,phx_ver10,2022.2.5,Win32,59.94844434,,,,,,,,,,,,104,testing_3,sh2x,ai,sh2x_ai,sh2x_8_aixai.wav,sh2x_1_aishai.wav,,FALSE,FALSE,,,,,,,,,,,,,,j,0.4009,space,0.7228,,,,,,,,0,124,124,103,1,,
603758e41c4468b882a74700,2023-06-16_10h22.49.006,phx_ver10,2022.2.5,Win32,59.94844434,,,,,,,,,,,,29,testing_3,zh2sh,ai,zh2sh_ai,zh2sh_1_aizhai.wav,zh2sh_1_aizhai.wav,,TRUE,FALSE,,,,,,,,,,,,,,f,0.3903,space,0.601,,,,,,,,0,125,125,28,1,,
603758e41c4468b882a74700,2023-06-16_10h22.49.006,phx_ver10,2022.2.5,Win32,59.94844434,,,,,,,,,,,,19,testing_2,zh2x,au,zh2x_au,zh2x_1_auzhau.wav,zh2x_8_auxau.wav,,FALSE,FALSE,,,,,,,,,,,,,,j,0.57,space,0.941,,,,,,,,0,126,126,18,1,,
603758e41c4468b882a74700,2023-06-16_10h22.49.006,phx_ver10,2022.2.5,Win32,59.94844434,,,,,,,,,,,,107,testing_3,sh2x,au,sh2x_au,sh2x_1_aushau.wav,sh2x_8_auxau.wav,,FALSE,FALSE,,,,,,,,,,,,,,j,0.4076,space,0.7031,,,,,,,,0,127,127,106,1,,
603758e41c4468b882a74700,2023-06-16_10h22.49.006,phx_ver10,2022.2.5,Win32,59.94844434,,,,,,,,,,,,26,testing_3,zh2sh,a,zh2sh_a,zh2sh_8_asha.wav,zh2sh_8_asha.wav,,TRUE,FALSE,,,,,,,,,,,,,,f,0.5555,space,0.888,,,,,,,,0,128,128,25,1,,
603758e41c4468b882a74700,2023-06-16_10h22.49.006,phx_ver10,2022.2.5,Win32,59.94844434,,,,,,,,,,,,2,testing_1,zh2x,a,zh2x_a,zh2x_8_axa.wav,zh2x_8_axa_copy.wav,,TRUE,TRUE,,,,,,,,,,,,,,f,0.2166,space,0.5669,,,,,,,,0,129,129,1,1,,
603758e41c4468b882a74700,2023-06-16_10h22.49.006,phx_ver10,2022.2.5,Win32,59.94844434,,,,,,,,,,,,38,testing_3,zh2sh,e,zh2sh_e,zh2sh_8_eshe.wav,zh2sh_8_eshe.wav,,TRUE,FALSE,,,,,,,,,,,,,,f,0.4177,space,0.734,,,,,,,,0,130,130,37,1,,
603758e41c4468b882a74700,2023-06-16_10h22.49.006,phx_ver10,2022.2.5,Win32,59.94844434,,,,,,,,,,,,44,testing_3,zh2sh,ei,zh2sh_ei,zh2sh_8_eishei.wav,zh2sh_1_eizhei.wav,,FALSE,FALSE,,,,,,,,,,,,,,j,0.5837,space,0.7697,,,,,,,,0,131,131,43,1,,
603758e41c4468b882a74700,2023-06-16_10h22.49.006,phx_ver10,2022.2.5,Win32,59.94844434,,,,,,,,,,,,121,testing_3,sh2j,a,sh2j_a,sh2j_1_asha.wav,sh2j_1_asha.wav,,TRUE,FALSE,,,,,,,,,,,,,,f,0.485,space,0.6652,,,,,,,,0,132,132,120,1,,
603758e41c4468b882a74700,2023-06-16_10h22.49.006,phx_ver10,2022.2.5,Win32,59.94844434,,,,,,,,,,,,10,testing_1,zh2x,i,zh2x_i,zh2x_8_ixi.wav,zh2x_8_ixi_copy.wav,,TRUE,TRUE,,,,,,,,,,,,,,f,0.1672,space,0.5401,,,,,,,,0,133,133,9,1,,
603758e41c4468b882a74700,2023-06-16_10h22.49.006,phx_ver10,2022.2.5,Win32,59.94844434,,,,,,,,,,,,106,testing_3,sh2x,au,sh2x_au,sh2x_8_auxau.wav,sh2x_8_auxau.wav,,TRUE,FALSE,,,,,,,,,,,,,,f,0.2078,space,0.5031,,,,,,,,0,134,134,105,1,,
603758e41c4468b882a74700,2023-06-16_10h22.49.006,phx_ver10,2022.2.5,Win32,59.94844434,,,,,,,,,,,,140,testing_3,sh2j,ei,sh2j_ei,sh2j_8_eijei.wav,sh2j_1_eishei.wav,,FALSE,FALSE,,,,,,,,,,,,,,j,0.5681,space,0.7514,,,,,,,,0,135,135,139,1,,
603758e41c4468b882a74700,2023-06-16_10h22.49.006,phx_ver10,2022.2.5,Win32,59.94844434,,,,,,,,,,,,43,testing_3,zh2sh,ei,zh2sh_ei,zh2sh_1_eizhei.wav,zh2sh_8_eishei.wav,,FALSE,FALSE,,,,,,,,,,,,,,f,0.4107,space,1.31,,,,,,,,0,136,136,42,1,,
603758e41c4468b882a74700,2023-06-16_10h22.49.006,phx_ver10,2022.2.5,Win32,59.94844434,,,,,,,,,,,,61,testing_3,zh2j,e,zh2j_e,zh2j_1_ezhe.wav,zh2j_1_ezhe.wav,,TRUE,FALSE,,,,,,,,,,,,,,f,0.6847,space,5.535,,,,,,,,0,137,137,60,1,,
603758e41c4468b882a74700,2023-06-16_10h22.49.006,phx_ver10,2022.2.5,Win32,59.94844434,,,,,,,,,,,,52,testing_3,zh2j,a,zh2j_a,zh2j_8_aja.wav,zh2j_1_azha.wav,,FALSE,FALSE,,,,,,,,,,,,,,f,0.6034,space,0.7672,,,,,,,,0,138,138,51,1,,
603758e41c4468b882a74700,2023-06-16_10h22.49.006,phx_ver10,2022.2.5,Win32,59.94844434,,,,,,,,,,,,55,testing_3,zh2j,ai,zh2j_ai,zh2j_1_aizhai.wav,zh2j_8_aijai.wav,,FALSE,FALSE,,,,,,,,,,,,,,f,0.1226,space,0.4064,,,,,,,,0,139,139,54,1,,
603758e41c4468b882a74700,2023-06-16_10h22.49.006,phx_ver10,2022.2.5,Win32,59.94844434,,,,,,,,,,,,4,testing_1,zh2x,a,zh2x_a,zh2x_8_axa.wav,zh2x_1_azha.wav,,FALSE,TRUE,,,,,,,,,,,,,,j,0.1869,space,0.451,,,,,,,,0,140,140,3,1,,
603758e41c4468b882a74700,2023-06-16_10h22.49.006,phx_ver10,2022.2.5,Win32,59.94844434,,,,,,,,,,,,37,testing_3,zh2sh,e,zh2sh_e,zh2sh_1_ezhe.wav,zh2sh_1_ezhe.wav,,TRUE,FALSE,,,,,,,,,,,,,,f,0.0194,space,0.3061,,,,,,,,0,141,141,36,1,,
603758e41c4468b882a74700,2023-06-16_10h22.49.006,phx_ver10,2022.2.5,Win32,59.94844434,,,,,,,,,,,,79,testing_3,j2x,ai,j2x_ai,j2x_1_aijai.wav,j2x_8_aixai.wav,,FALSE,FALSE,,,,,,,,,,,,,,j,0.0372,space,0.3182,,,,,,,,0,142,142,78,1,,
603758e41c4468b882a74700,2023-06-16_10h22.49.006,phx_ver10,2022.2.5,Win32,59.94844434,,,,,,,,,,,,5,testing_1,zh2x,e,zh2x_e,zh2x_1_ezhe.wav,zh2x_1_ezhe_copy.wav,,TRUE,TRUE,,,,,,,,,,,,,,f,0.1034,space,0.3842,,,,,,,,0,143,143,4,1,,
603758e41c4468b882a74700,2023-06-16_10h22.49.006,phx_ver10,2022.2.5,Win32,59.94844434,,,,,,,,,,,,,,,,,,,,,,,,,,,,,,,,,,,,,,,,,,,,,,,,,,,space,1.5395
