participant,date,expName,psychopyVersion,OS,frameRate,space_1.keys,space_1.rt,space_2.keys,space_2.rt,space_train.keys,space_train.rt,training.thisRepN,training.thisTrialN,training.thisN,training.thisIndex,training.ran,token_id,task,continuum,vowel,series,sound_1,sound_2,img,same,trained,FJ_attn.keys,FJ_attn.rt,space_attn.keys,space_attn.rt,if_attn_test.thisRepN,if_attn_test.thisTrialN,if_attn_test.thisN,if_attn_test.thisIndex,if_attn_test.ran,space_trans_1.keys,space_trans_1.rt,space_trans_11.keys,space_trans_11.rt,FJ_test.keys,FJ_test.rt,space_test.keys,space_test.rt,testing_pre.thisRepN,testing_pre.thisTrialN,testing_pre.thisN,testing_pre.thisIndex,testing_pre.ran,space_trans_2.keys,space_trans_2.rt,testing_all.thisRepN,testing_all.thisTrialN,testing_all.thisN,testing_all.thisIndex,testing_all.ran,space_ending.keys,space_ending.rt
60575f42c2d3d51a122da250,2023-06-16_10h22.57.948,phx_ver10,2022.2.5,Win32,60.13952369,,,,,,,,,,,,,,,,,,,,,,,,,,,,,,,,,,,,,,,,,,,,,,,,,,,,
60575f42c2d3d51a122da250,2023-06-16_10h22.57.948,phx_ver10,2022.2.5,Win32,60.13952369,space,1.4495,,,,,,,,,,,,,,,,,,,,,,,,,,,,,,,,,,,,,,,,,,,,,,,,,,
60575f42c2d3d51a122da250,2023-06-16_10h22.57.948,phx_ver10,2022.2.5,Win32,60.13952369,,,space,2.7308,,,,,,,,,,,,,,,,,,,,,,,,,,,,,,,,,,,,,,,,,,,,,,,,
60575f42c2d3d51a122da250,2023-06-16_10h22.57.948,phx_ver10,2022.2.5,Win32,60.13952369,,,,,space,1.581,0,0,0,34,1,35,training,zh2x,i,zh2x_i,zh2x_2_izhi.wav,,izhi.jpg,,,,,,,,,,,,,,,,,,,,,,,,,,,,,,,,,
60575f42c2d3d51a122da250,2023-06-16_10h22.57.948,phx_ver10,2022.2.5,Win32,60.13952369,,,,,space,1.9645,0,1,1,10,1,11,training,zh2x,a,zh2x_a,zh2x_6_axa.wav,,axa.jpg,,,,,,,,,,,,,,,,,,,,,,,,,,,,,,,,,
60575f42c2d3d51a122da250,2023-06-16_10h22.57.948,phx_ver10,2022.2.5,Win32,60.13952369,,,,,space,1.1386,0,2,2,7,1,8,training,zh2x,a,zh2x_a,zh2x_4_azha.wav,,azha.jpg,,,,,,,,,,,,,,,,,,,,,,,,,,,,,,,,,
60575f42c2d3d51a122da250,2023-06-16_10h22.57.948,phx_ver10,2022.2.5,Win32,60.13952369,,,,,space,1.8651,0,3,3,16,1,17,training,zh2x,e,zh2x_e,zh2x_1_ezhe.wav,,ezhe.jpg,,,,,,,,,,,,,,,,,,,,,,,,,,,,,,,,,
60575f42c2d3d51a122da250,2023-06-16_10h22.57.948,phx_ver10,2022.2.5,Win32,60.13952369,,,,,space,0.6829,0,4,4,19,1,20,training,zh2x,e,zh2x_e,zh2x_2_ezhe.wav,,ezhe.jpg,,,,,,,,,,,,,,,,,,,,,,,,,,,,,,,,,
60575f42c2d3d51a122da250,2023-06-16_10h22.57.948,phx_ver10,2022.2.5,Win32,60.13952369,,,,,space,1.0262,0,5,5,43,1,44,training,zh2x,i,zh2x_i,zh2x_7_ixi.wav,,ixi.jpg,,,,,,,,,,,,,,,,,,,,,,,,,,,,,,,,,
60575f42c2d3d51a122da250,2023-06-16_10h22.57.948,phx_ver10,2022.2.5,Win32,60.13952369,,,,,,,,,,,,,attn_test,,,,zh2x_8_exe.wav,zh2x_1_ezhe.wav,ezhe.jpg,RIGHT,,f,1.0345,space,2.1336,0,0,0,0,1,,,,,,,,,,,,,,,,,,,,,,
60575f42c2d3d51a122da250,2023-06-16_10h22.57.948,phx_ver10,2022.2.5,Win32,60.13952369,,,,,space,0.9169,0,6,6,14,1,15,training,zh2x,a,zh2x_a,zh2x_7_axa.wav,,axa.jpg,,,,,,,,,,,,,,,,,,,,,,,,,,,,,,,,,
60575f42c2d3d51a122da250,2023-06-16_10h22.57.948,phx_ver10,2022.2.5,Win32,60.13952369,,,,,space,0.5238,0,7,7,45,1,46,training,zh2x,i,zh2x_i,zh2x_7_ixi.wav,,ixi.jpg,,,,,,,,,,,,,,,,,,,,,,,,,,,,,,,,,
60575f42c2d3d51a122da250,2023-06-16_10h22.57.948,phx_ver10,2022.2.5,Win32,60.13952369,,,,,space,0.3041,0,8,8,46,1,47,training,zh2x,i,zh2x_i,zh2x_7_ixi.wav,,ixi.jpg,,,,,,,,,,,,,,,,,,,,,,,,,,,,,,,,,
60575f42c2d3d51a122da250,2023-06-16_10h22.57.948,phx_ver10,2022.2.5,Win32,60.13952369,,,,,space,0.1999,0,9,9,39,1,40,training,zh2x,i,zh2x_i,zh2x_4_izhi.wav,,izhi.jpg,,,,,,,,,,,,,,,,,,,,,,,,,,,,,,,,,
60575f42c2d3d51a122da250,2023-06-16_10h22.57.948,phx_ver10,2022.2.5,Win32,60.13952369,,,,,space,0.2165,0,10,10,29,1,30,training,zh2x,e,zh2x_e,zh2x_7_exe.wav,,exe.jpg,,,,,,,,,,,,,,,,,,,,,,,,,,,,,,,,,
60575f42c2d3d51a122da250,2023-06-16_10h22.57.948,phx_ver10,2022.2.5,Win32,60.13952369,,,,,space,0.1233,0,11,11,2,1,3,training,zh2x,a,zh2x_a,zh2x_2_azha.wav,,azha.jpg,,,,,,,,,,,,,,,,,,,,,,,,,,,,,,,,,
60575f42c2d3d51a122da250,2023-06-16_10h22.57.948,phx_ver10,2022.2.5,Win32,60.13952369,,,,,,,,,,,,,attn_test,,,,zh2x_8_exe.wav,zh2x_8_axa.wav,exe.jpg,LEFT,,j,1.2023,space,1.5209,0,0,0,0,1,,,,,,,,,,,,,,,,,,,,,,
60575f42c2d3d51a122da250,2023-06-16_10h22.57.948,phx_ver10,2022.2.5,Win32,60.13952369,,,,,space,0.2846,0,12,12,20,1,21,training,zh2x,e,zh2x_e,zh2x_2_ezhe.wav,,ezhe.jpg,,,,,,,,,,,,,,,,,,,,,,,,,,,,,,,,,
60575f42c2d3d51a122da250,2023-06-16_10h22.57.948,phx_ver10,2022.2.5,Win32,60.13952369,,,,,space,0.5887,0,13,13,4,1,5,training,zh2x,a,zh2x_a,zh2x_2_azha.wav,,azha.jpg,,,,,,,,,,,,,,,,,,,,,,,,,,,,,,,,,
60575f42c2d3d51a122da250,2023-06-16_10h22.57.948,phx_ver10,2022.2.5,Win32,60.13952369,,,,,space,0.3662,0,14,14,6,1,7,training,zh2x,a,zh2x_a,zh2x_3_azha.wav,,azha.jpg,,,,,,,,,,,,,,,,,,,,,,,,,,,,,,,,,
60575f42c2d3d51a122da250,2023-06-16_10h22.57.948,phx_ver10,2022.2.5,Win32,60.13952369,,,,,space,0.7181,0,15,15,28,1,29,training,zh2x,e,zh2x_e,zh2x_7_exe.wav,,exe.jpg,,,,,,,,,,,,,,,,,,,,,,,,,,,,,,,,,
60575f42c2d3d51a122da250,2023-06-16_10h22.57.948,phx_ver10,2022.2.5,Win32,60.13952369,,,,,space,0.3084,0,16,16,41,1,42,training,zh2x,i,zh2x_i,zh2x_6_ixi.wav,,ixi.jpg,,,,,,,,,,,,,,,,,,,,,,,,,,,,,,,,,
60575f42c2d3d51a122da250,2023-06-16_10h22.57.948,phx_ver10,2022.2.5,Win32,60.13952369,,,,,space,0.3,0,17,17,24,1,25,training,zh2x,e,zh2x_e,zh2x_5_exe.wav,,exe.jpg,,,,,,,,,,,,,,,,,,,,,,,,,,,,,,,,,
60575f42c2d3d51a122da250,2023-06-16_10h22.57.948,phx_ver10,2022.2.5,Win32,60.13952369,,,,,,,,,,,,,attn_test,,,,zh2x_1_azha.wav,zh2x_1_izhi.wav,azha.jpg,LEFT,,f,1.4836,space,2.5751,0,0,0,0,1,,,,,,,,,,,,,,,,,,,,,,
60575f42c2d3d51a122da250,2023-06-16_10h22.57.948,phx_ver10,2022.2.5,Win32,60.13952369,,,,,space,0.3336,0,18,18,12,1,13,training,zh2x,a,zh2x_a,zh2x_7_axa.wav,,axa.jpg,,,,,,,,,,,,,,,,,,,,,,,,,,,,,,,,,
60575f42c2d3d51a122da250,2023-06-16_10h22.57.948,phx_ver10,2022.2.5,Win32,60.13952369,,,,,space,0.2509,0,19,19,17,1,18,training,zh2x,e,zh2x_e,zh2x_2_ezhe.wav,,ezhe.jpg,,,,,,,,,,,,,,,,,,,,,,,,,,,,,,,,,
60575f42c2d3d51a122da250,2023-06-16_10h22.57.948,phx_ver10,2022.2.5,Win32,60.13952369,,,,,space,0.2705,0,20,20,3,1,4,training,zh2x,a,zh2x_a,zh2x_2_azha.wav,,azha.jpg,,,,,,,,,,,,,,,,,,,,,,,,,,,,,,,,,
60575f42c2d3d51a122da250,2023-06-16_10h22.57.948,phx_ver10,2022.2.5,Win32,60.13952369,,,,,space,1.7355,0,21,21,0,1,1,training,zh2x,a,zh2x_a,zh2x_1_azha.wav,,azha.jpg,,,,,,,,,,,,,,,,,,,,,,,,,,,,,,,,,
60575f42c2d3d51a122da250,2023-06-16_10h22.57.948,phx_ver10,2022.2.5,Win32,60.13952369,,,,,space,0.4165,0,22,22,38,1,39,training,zh2x,i,zh2x_i,zh2x_3_izhi.wav,,izhi.jpg,,,,,,,,,,,,,,,,,,,,,,,,,,,,,,,,,
60575f42c2d3d51a122da250,2023-06-16_10h22.57.948,phx_ver10,2022.2.5,Win32,60.13952369,,,,,space,1.3657,0,23,23,26,1,27,training,zh2x,e,zh2x_e,zh2x_6_exe.wav,,exe.jpg,,,,,,,,,,,,,,,,,,,,,,,,,,,,,,,,,
60575f42c2d3d51a122da250,2023-06-16_10h22.57.948,phx_ver10,2022.2.5,Win32,60.13952369,,,,,,,,,,,,,attn_test,,,,zh2x_1_ezhe.wav,zh2x_8_axa.wav,ezhe.jpg,LEFT,,f,0.0398,space,0.5554,0,0,0,0,1,,,,,,,,,,,,,,,,,,,,,,
60575f42c2d3d51a122da250,2023-06-16_10h22.57.948,phx_ver10,2022.2.5,Win32,60.13952369,,,,,space,0.2847,0,24,24,31,1,32,training,zh2x,e,zh2x_e,zh2x_8_exe.wav,,exe.jpg,,,,,,,,,,,,,,,,,,,,,,,,,,,,,,,,,
60575f42c2d3d51a122da250,2023-06-16_10h22.57.948,phx_ver10,2022.2.5,Win32,60.13952369,,,,,space,0.3847,0,25,25,9,1,10,training,zh2x,a,zh2x_a,zh2x_6_axa.wav,,axa.jpg,,,,,,,,,,,,,,,,,,,,,,,,,,,,,,,,,
60575f42c2d3d51a122da250,2023-06-16_10h22.57.948,phx_ver10,2022.2.5,Win32,60.13952369,,,,,space,0.5583,0,26,26,42,1,43,training,zh2x,i,zh2x_i,zh2x_6_ixi.wav,,ixi.jpg,,,,,,,,,,,,,,,,,,,,,,,,,,,,,,,,,
60575f42c2d3d51a122da250,2023-06-16_10h22.57.948,phx_ver10,2022.2.5,Win32,60.13952369,,,,,space,0.1105,0,27,27,8,1,9,training,zh2x,a,zh2x_a,zh2x_5_axa.wav,,axa.jpg,,,,,,,,,,,,,,,,,,,,,,,,,,,,,,,,,
60575f42c2d3d51a122da250,2023-06-16_10h22.57.948,phx_ver10,2022.2.5,Win32,60.13952369,,,,,space,0.0772,0,28,28,44,1,45,training,zh2x,i,zh2x_i,zh2x_7_ixi.wav,,ixi.jpg,,,,,,,,,,,,,,,,,,,,,,,,,,,,,,,,,
60575f42c2d3d51a122da250,2023-06-16_10h22.57.948,phx_ver10,2022.2.5,Win32,60.13952369,,,,,space,0.4665,0,29,29,40,1,41,training,zh2x,i,zh2x_i,zh2x_5_ixi.wav,,ixi.jpg,,,,,,,,,,,,,,,,,,,,,,,,,,,,,,,,,
60575f42c2d3d51a122da250,2023-06-16_10h22.57.948,phx_ver10,2022.2.5,Win32,60.13952369,,,,,,,,,,,,,attn_test,,,,zh2x_8_ixi.wav,zh2x_1_azha.wav,ixi.jpg,LEFT,,f,0.1839,space,0.5342,0,0,0,0,1,,,,,,,,,,,,,,,,,,,,,,
60575f42c2d3d51a122da250,2023-06-16_10h22.57.948,phx_ver10,2022.2.5,Win32,60.13952369,,,,,space,0.3052,0,30,30,37,1,38,training,zh2x,i,zh2x_i,zh2x_3_izhi.wav,,izhi.jpg,,,,,,,,,,,,,,,,,,,,,,,,,,,,,,,,,
60575f42c2d3d51a122da250,2023-06-16_10h22.57.948,phx_ver10,2022.2.5,Win32,60.13952369,,,,,space,0.1994,0,31,31,11,1,12,training,zh2x,a,zh2x_a,zh2x_7_axa.wav,,axa.jpg,,,,,,,,,,,,,,,,,,,,,,,,,,,,,,,,,
60575f42c2d3d51a122da250,2023-06-16_10h22.57.948,phx_ver10,2022.2.5,Win32,60.13952369,,,,,space,0.2251,0,32,32,18,1,19,training,zh2x,e,zh2x_e,zh2x_2_ezhe.wav,,ezhe.jpg,,,,,,,,,,,,,,,,,,,,,,,,,,,,,,,,,
60575f42c2d3d51a122da250,2023-06-16_10h22.57.948,phx_ver10,2022.2.5,Win32,60.13952369,,,,,space,0.2067,0,33,33,15,1,16,training,zh2x,a,zh2x_a,zh2x_8_axa.wav,,axa.jpg,,,,,,,,,,,,,,,,,,,,,,,,,,,,,,,,,
60575f42c2d3d51a122da250,2023-06-16_10h22.57.948,phx_ver10,2022.2.5,Win32,60.13952369,,,,,space,0.3626,0,34,34,33,1,34,training,zh2x,i,zh2x_i,zh2x_2_izhi.wav,,izhi.jpg,,,,,,,,,,,,,,,,,,,,,,,,,,,,,,,,,
60575f42c2d3d51a122da250,2023-06-16_10h22.57.948,phx_ver10,2022.2.5,Win32,60.13952369,,,,,space,0.0597,0,35,35,1,1,2,training,zh2x,a,zh2x_a,zh2x_2_azha.wav,,azha.jpg,,,,,,,,,,,,,,,,,,,,,,,,,,,,,,,,,
60575f42c2d3d51a122da250,2023-06-16_10h22.57.948,phx_ver10,2022.2.5,Win32,60.13952369,,,,,,,,,,,,,attn_test,,,,zh2x_1_ezhe.wav,zh2x_8_ixi.wav,ezhe.jpg,LEFT,,f,0.1998,space,0.7499,0,0,0,0,1,,,,,,,,,,,,,,,,,,,,,,
60575f42c2d3d51a122da250,2023-06-16_10h22.57.948,phx_ver10,2022.2.5,Win32,60.13952369,,,,,space,0.3356,0,36,36,36,1,37,training,zh2x,i,zh2x_i,zh2x_2_izhi.wav,,izhi.jpg,,,,,,,,,,,,,,,,,,,,,,,,,,,,,,,,,
60575f42c2d3d51a122da250,2023-06-16_10h22.57.948,phx_ver10,2022.2.5,Win32,60.13952369,,,,,space,0.1668,0,37,37,5,1,6,training,zh2x,a,zh2x_a,zh2x_3_azha.wav,,azha.jpg,,,,,,,,,,,,,,,,,,,,,,,,,,,,,,,,,
60575f42c2d3d51a122da250,2023-06-16_10h22.57.948,phx_ver10,2022.2.5,Win32,60.13952369,,,,,space,0.253,0,38,38,32,1,33,training,zh2x,i,zh2x_i,zh2x_1_izhi.wav,,izhi.jpg,,,,,,,,,,,,,,,,,,,,,,,,,,,,,,,,,
60575f42c2d3d51a122da250,2023-06-16_10h22.57.948,phx_ver10,2022.2.5,Win32,60.13952369,,,,,space,0.0485,0,39,39,47,1,48,training,zh2x,i,zh2x_i,zh2x_8_ixi.wav,,ixi.jpg,,,,,,,,,,,,,,,,,,,,,,,,,,,,,,,,,
60575f42c2d3d51a122da250,2023-06-16_10h22.57.948,phx_ver10,2022.2.5,Win32,60.13952369,,,,,space,0.1851,0,40,40,23,1,24,training,zh2x,e,zh2x_e,zh2x_4_ezhe.wav,,ezhe.jpg,,,,,,,,,,,,,,,,,,,,,,,,,,,,,,,,,
60575f42c2d3d51a122da250,2023-06-16_10h22.57.948,phx_ver10,2022.2.5,Win32,60.13952369,,,,,space,0.118,0,41,41,35,1,36,training,zh2x,i,zh2x_i,zh2x_2_izhi.wav,,izhi.jpg,,,,,,,,,,,,,,,,,,,,,,,,,,,,,,,,,
60575f42c2d3d51a122da250,2023-06-16_10h22.57.948,phx_ver10,2022.2.5,Win32,60.13952369,,,,,,,,,,,,,attn_test,,,,zh2x_8_exe.wav,zh2x_1_izhi.wav,izhi.jpg,RIGHT,,j,0.2005,space,0.7493,0,0,0,0,1,,,,,,,,,,,,,,,,,,,,,,
60575f42c2d3d51a122da250,2023-06-16_10h22.57.948,phx_ver10,2022.2.5,Win32,60.13952369,,,,,space,0.2165,0,42,42,21,1,22,training,zh2x,e,zh2x_e,zh2x_3_ezhe.wav,,ezhe.jpg,,,,,,,,,,,,,,,,,,,,,,,,,,,,,,,,,
60575f42c2d3d51a122da250,2023-06-16_10h22.57.948,phx_ver10,2022.2.5,Win32,60.13952369,,,,,space,0.3325,0,43,43,13,1,14,training,zh2x,a,zh2x_a,zh2x_7_axa.wav,,axa.jpg,,,,,,,,,,,,,,,,,,,,,,,,,,,,,,,,,
60575f42c2d3d51a122da250,2023-06-16_10h22.57.948,phx_ver10,2022.2.5,Win32,60.13952369,,,,,space,0.228,0,44,44,22,1,23,training,zh2x,e,zh2x_e,zh2x_3_ezhe.wav,,ezhe.jpg,,,,,,,,,,,,,,,,,,,,,,,,,,,,,,,,,
60575f42c2d3d51a122da250,2023-06-16_10h22.57.948,phx_ver10,2022.2.5,Win32,60.13952369,,,,,space,0.1668,0,45,45,27,1,28,training,zh2x,e,zh2x_e,zh2x_7_exe.wav,,exe.jpg,,,,,,,,,,,,,,,,,,,,,,,,,,,,,,,,,
60575f42c2d3d51a122da250,2023-06-16_10h22.57.948,phx_ver10,2022.2.5,Win32,60.13952369,,,,,space,0.3108,0,46,46,25,1,26,training,zh2x,e,zh2x_e,zh2x_6_exe.wav,,exe.jpg,,,,,,,,,,,,,,,,,,,,,,,,,,,,,,,,,
60575f42c2d3d51a122da250,2023-06-16_10h22.57.948,phx_ver10,2022.2.5,Win32,60.13952369,,,,,space,0.2836,0,47,47,30,1,31,training,zh2x,e,zh2x_e,zh2x_7_exe.wav,,exe.jpg,,,,,,,,,,,,,,,,,,,,,,,,,,,,,,,,,
60575f42c2d3d51a122da250,2023-06-16_10h22.57.948,phx_ver10,2022.2.5,Win32,60.13952369,,,,,,,,,,,,,attn_test,,,,zh2x_8_axa.wav,zh2x_8_ixi.wav,axa.jpg,LEFT,,f,0.2519,space,0.7263,,,,,,,,,,,,,,,,,,,,,,,,,,,
60575f42c2d3d51a122da250,2023-06-16_10h22.57.948,phx_ver10,2022.2.5,Win32,60.13952369,,,,,,,,,,,,,,,,,,,,,,,,,,,,,,,space,0.6416,,,,,,,,,,,,,,,,,,,,
60575f42c2d3d51a122da250,2023-06-16_10h22.57.948,phx_ver10,2022.2.5,Win32,60.13952369,,,,,,,,,,,,,,,,,,,,,,,,,,,,,,,,,space,1.597,,,,,,,,,,,,,,,,,,
60575f42c2d3d51a122da250,2023-06-16_10h22.57.948,phx_ver10,2022.2.5,Win32,60.13952369,,,,,,,,,,,,1,testing_pre,,,,ifi.wav,ifi.wav,,TRUE,,,,,,,,,,,,,,,f,0.8437,space,1.4161,0,0,0,0,1,,,,,,,,,
60575f42c2d3d51a122da250,2023-06-16_10h22.57.948,phx_ver10,2022.2.5,Win32,60.13952369,,,,,,,,,,,,5,testing_pre,,,,ihi.wav,ifi.wav,,FALSE,,,,,,,,,,,,,,,f,0.837,space,1.749,0,1,1,4,1,,,,,,,,,
60575f42c2d3d51a122da250,2023-06-16_10h22.57.948,phx_ver10,2022.2.5,Win32,60.13952369,,,,,,,,,,,,3,testing_pre,,,,afa.wav,aha.wav,,FALSE,,,,,,,,,,,,,,,f,1.1168,space,1.7861,0,2,2,2,1,,,,,,,,,
60575f42c2d3d51a122da250,2023-06-16_10h22.57.948,phx_ver10,2022.2.5,Win32,60.13952369,,,,,,,,,,,,4,testing_pre,,,,eihei.wav,eihei.wav,,TRUE,,,,,,,,,,,,,,,f,1.7365,space,2.2319,0,3,3,3,1,,,,,,,,,
60575f42c2d3d51a122da250,2023-06-16_10h22.57.948,phx_ver10,2022.2.5,Win32,60.13952369,,,,,,,,,,,,2,testing_pre,,,,auhau.wav,aufau.wav,,FALSE,,,,,,,,,,,,,,,j,0.5039,space,1.4985,0,4,4,1,1,,,,,,,,,
60575f42c2d3d51a122da250,2023-06-16_10h22.57.948,phx_ver10,2022.2.5,Win32,60.13952369,,,,,,,,,,,,,,,,,,,,,,,,,,,,,,,,,,,,,,,,,,,,space,0.7653,,,,,,,
60575f42c2d3d51a122da250,2023-06-16_10h22.57.948,phx_ver10,2022.2.5,Win32,60.13952369,,,,,,,,,,,,30,testing_3,zh2sh,ai,zh2sh_ai,zh2sh_8_aishai.wav,zh2sh_8_aishai.wav,,TRUE,FALSE,,,,,,,,,,,,,,f,0.1103,space,0.9575,,,,,,,,0,0,0,29,1,,
60575f42c2d3d51a122da250,2023-06-16_10h22.57.948,phx_ver10,2022.2.5,Win32,60.13952369,,,,,,,,,,,,59,testing_3,zh2j,au,zh2j_au,zh2j_1_auzhau.wav,zh2j_8_aujau.wav,,FALSE,FALSE,,,,,,,,,,,,,,f,0.3195,space,0.9063,,,,,,,,0,1,1,58,1,,
60575f42c2d3d51a122da250,2023-06-16_10h22.57.948,phx_ver10,2022.2.5,Win32,60.13952369,,,,,,,,,,,,44,testing_3,zh2sh,ei,zh2sh_ei,zh2sh_8_eishei.wav,zh2sh_1_eizhei.wav,,FALSE,FALSE,,,,,,,,,,,,,,j,0.1378,space,0.7709,,,,,,,,0,2,2,43,1,,
60575f42c2d3d51a122da250,2023-06-16_10h22.57.948,phx_ver10,2022.2.5,Win32,60.13952369,,,,,,,,,,,,53,testing_3,zh2j,ai,zh2j_ai,zh2j_1_aizhai.wav,zh2j_1_aizhai.wav,,TRUE,FALSE,,,,,,,,,,,,,,f,0.1025,space,0.7542,,,,,,,,0,3,3,52,1,,
60575f42c2d3d51a122da250,2023-06-16_10h22.57.948,phx_ver10,2022.2.5,Win32,60.13952369,,,,,,,,,,,,33,testing_3,zh2sh,au,zh2sh_au,zh2sh_1_auzhau.wav,zh2sh_1_auzhau.wav,,TRUE,FALSE,,,,,,,,,,,,,,f,0.3413,space,0.7416,,,,,,,,0,4,4,32,1,,
60575f42c2d3d51a122da250,2023-06-16_10h22.57.948,phx_ver10,2022.2.5,Win32,60.13952369,,,,,,,,,,,,27,testing_3,zh2sh,a,zh2sh_a,zh2sh_1_azha.wav,zh2sh_8_asha.wav,,FALSE,FALSE,,,,,,,,,,,,,,j,0.119,space,0.8483,,,,,,,,0,5,5,26,1,,
60575f42c2d3d51a122da250,2023-06-16_10h22.57.948,phx_ver10,2022.2.5,Win32,60.13952369,,,,,,,,,,,,112,testing_3,sh2x,e,sh2x_e,sh2x_8_exe.wav,sh2x_1_eshe.wav,,FALSE,FALSE,,,,,,,,,,,,,,j,0.3755,space,0.8121,,,,,,,,0,6,6,111,1,,
60575f42c2d3d51a122da250,2023-06-16_10h22.57.948,phx_ver10,2022.2.5,Win32,60.13952369,,,,,,,,,,,,8,testing_1,zh2x,e,zh2x_e,zh2x_8_exe.wav,zh2x_1_ezhe.wav,,FALSE,TRUE,,,,,,,,,,,,,,j,0.2685,space,0.7163,,,,,,,,0,7,7,7,1,,
60575f42c2d3d51a122da250,2023-06-16_10h22.57.948,phx_ver10,2022.2.5,Win32,60.13952369,,,,,,,,,,,,50,testing_3,zh2j,a,zh2j_a,zh2j_8_aja.wav,zh2j_8_aja.wav,,TRUE,FALSE,,,,,,,,,,,,,,f,0.2184,space,0.6476,,,,,,,,0,8,8,49,1,,
60575f42c2d3d51a122da250,2023-06-16_10h22.57.948,phx_ver10,2022.2.5,Win32,60.13952369,,,,,,,,,,,,6,testing_1,zh2x,e,zh2x_e,zh2x_8_exe.wav,zh2x_8_exe_copy.wav,,TRUE,TRUE,,,,,,,,,,,,,,f,0.2285,space,0.5741,,,,,,,,0,9,9,5,1,,
60575f42c2d3d51a122da250,2023-06-16_10h22.57.948,phx_ver10,2022.2.5,Win32,60.13952369,,,,,,,,,,,,75,testing_3,j2x,a,j2x_a,j2x_1_aja.wav,j2x_8_axa.wav,,FALSE,FALSE,,,,,,,,,,,,,,j,0.1607,space,0.5326,,,,,,,,0,10,10,74,1,,
60575f42c2d3d51a122da250,2023-06-16_10h22.57.948,phx_ver10,2022.2.5,Win32,60.13952369,,,,,,,,,,,,143,testing_3,sh2j,i,sh2j_i,sh2j_1_ishi.wav,sh2j_8_iji.wav,,FALSE,FALSE,,,,,,,,,,,,,,j,0.2797,space,0.7037,,,,,,,,0,11,11,142,1,,
60575f42c2d3d51a122da250,2023-06-16_10h22.57.948,phx_ver10,2022.2.5,Win32,60.13952369,,,,,,,,,,,,16,testing_2,zh2x,ai,zh2x_ai,zh2x_8_aixai.wav,zh2x_1_aizhai.wav,,FALSE,FALSE,,,,,,,,,,,,,,j,0.4501,space,0.8474,,,,,,,,0,12,12,15,1,,
60575f42c2d3d51a122da250,2023-06-16_10h22.57.948,phx_ver10,2022.2.5,Win32,60.13952369,,,,,,,,,,,,58,testing_3,zh2j,au,zh2j_au,zh2j_8_aujau.wav,zh2j_8_aujau.wav,,TRUE,FALSE,,,,,,,,,,,,,,f,0.2458,space,0.627,,,,,,,,0,13,13,57,1,,
60575f42c2d3d51a122da250,2023-06-16_10h22.57.948,phx_ver10,2022.2.5,Win32,60.13952369,,,,,,,,,,,,136,testing_3,sh2j,e,sh2j_e,sh2j_8_eje.wav,sh2j_1_eshe.wav,,FALSE,FALSE,,,,,,,,,,,,,,j,0.4335,space,0.8909,,,,,,,,0,14,14,135,1,,
60575f42c2d3d51a122da250,2023-06-16_10h22.57.948,phx_ver10,2022.2.5,Win32,60.13952369,,,,,,,,,,,,129,testing_3,sh2j,au,sh2j_au,sh2j_1_aushau.wav,sh2j_1_aushau.wav,,TRUE,FALSE,,,,,,,,,,,,,,f,0.3337,space,0.7181,,,,,,,,0,15,15,128,1,,
60575f42c2d3d51a122da250,2023-06-16_10h22.57.948,phx_ver10,2022.2.5,Win32,60.13952369,,,,,,,,,,,,109,testing_3,sh2x,e,sh2x_e,sh2x_1_eshe.wav,sh2x_1_eshe.wav,,TRUE,FALSE,,,,,,,,,,,,,,f,0.3639,space,0.7839,,,,,,,,0,16,16,108,1,,
60575f42c2d3d51a122da250,2023-06-16_10h22.57.948,phx_ver10,2022.2.5,Win32,60.13952369,,,,,,,,,,,,9,testing_1,zh2x,i,zh2x_i,zh2x_1_izhi.wav,zh2x_1_izhi_copy.wav,,TRUE,TRUE,,,,,,,,,,,,,,f,0.4502,space,0.8825,,,,,,,,0,17,17,8,1,,
60575f42c2d3d51a122da250,2023-06-16_10h22.57.948,phx_ver10,2022.2.5,Win32,60.13952369,,,,,,,,,,,,92,testing_3,j2x,ei,j2x_ei,j2x_8_eixei.wav,j2x_1_eijei.wav,,FALSE,FALSE,,,,,,,,,,,,,,j,0.289,space,0.692,,,,,,,,0,18,18,91,1,,
60575f42c2d3d51a122da250,2023-06-16_10h22.57.948,phx_ver10,2022.2.5,Win32,60.13952369,,,,,,,,,,,,86,testing_3,j2x,e,j2x_e,j2x_8_exe.wav,j2x_8_exe.wav,,TRUE,FALSE,,,,,,,,,,,,,,f,0.2731,space,0.5912,,,,,,,,0,19,19,85,1,,
60575f42c2d3d51a122da250,2023-06-16_10h22.57.948,phx_ver10,2022.2.5,Win32,60.13952369,,,,,,,,,,,,69,testing_3,zh2j,i,zh2j_i,zh2j_1_izhi.wav,zh2j_1_izhi.wav,,TRUE,FALSE,,,,,,,,,,,,,,f,0.2662,space,0.6494,,,,,,,,0,20,20,68,1,,
60575f42c2d3d51a122da250,2023-06-16_10h22.57.948,phx_ver10,2022.2.5,Win32,60.13952369,,,,,,,,,,,,60,testing_3,zh2j,au,zh2j_au,zh2j_8_aujau.wav,zh2j_1_auzhau.wav,,FALSE,FALSE,,,,,,,,,,,,,,f,0.4096,space,0.7831,,,,,,,,0,21,21,59,1,,
60575f42c2d3d51a122da250,2023-06-16_10h22.57.948,phx_ver10,2022.2.5,Win32,60.13952369,,,,,,,,,,,,46,testing_3,zh2sh,i,zh2sh_i,zh2sh_8_ishi.wav,zh2sh_8_ishi.wav,,TRUE,FALSE,,,,,,,,,,,,,,f,0.2907,space,0.7009,,,,,,,,0,22,22,45,1,,
60575f42c2d3d51a122da250,2023-06-16_10h22.57.948,phx_ver10,2022.2.5,Win32,60.13952369,,,,,,,,,,,,76,testing_3,j2x,a,j2x_a,j2x_8_axa.wav,j2x_1_aja.wav,,FALSE,FALSE,,,,,,,,,,,,,,j,0.2947,space,0.6773,,,,,,,,0,23,23,75,1,,
60575f42c2d3d51a122da250,2023-06-16_10h22.57.948,phx_ver10,2022.2.5,Win32,60.13952369,,,,,,,,,,,,3,testing_1,zh2x,a,zh2x_a,zh2x_1_azha.wav,zh2x_8_axa.wav,,FALSE,TRUE,,,,,,,,,,,,,,j,0.224,space,0.5994,,,,,,,,0,24,24,2,1,,
60575f42c2d3d51a122da250,2023-06-16_10h22.57.948,phx_ver10,2022.2.5,Win32,60.13952369,,,,,,,,,,,,4,testing_1,zh2x,a,zh2x_a,zh2x_8_axa.wav,zh2x_1_azha.wav,,FALSE,TRUE,,,,,,,,,,,,,,j,0.1536,space,0.5348,,,,,,,,0,25,25,3,1,,
60575f42c2d3d51a122da250,2023-06-16_10h22.57.948,phx_ver10,2022.2.5,Win32,60.13952369,,,,,,,,,,,,116,testing_3,sh2x,ei,sh2x_ei,sh2x_8_eixei.wav,sh2x_1_eishei.wav,,FALSE,FALSE,,,,,,,,,,,,,,j,0.2566,space,0.6385,,,,,,,,0,26,26,115,1,,
60575f42c2d3d51a122da250,2023-06-16_10h22.57.948,phx_ver10,2022.2.5,Win32,60.13952369,,,,,,,,,,,,113,testing_3,sh2x,ei,sh2x_ei,sh2x_1_eishei.wav,sh2x_1_eishei.wav,,TRUE,FALSE,,,,,,,,,,,,,,f,0.1403,space,0.5545,,,,,,,,0,27,27,112,1,,
60575f42c2d3d51a122da250,2023-06-16_10h22.57.948,phx_ver10,2022.2.5,Win32,60.13952369,,,,,,,,,,,,79,testing_3,j2x,ai,j2x_ai,j2x_1_aijai.wav,j2x_8_aixai.wav,,FALSE,FALSE,,,,,,,,,,,,,,j,0.1843,space,0.5693,,,,,,,,0,28,28,78,1,,
60575f42c2d3d51a122da250,2023-06-16_10h22.57.948,phx_ver10,2022.2.5,Win32,60.13952369,,,,,,,,,,,,62,testing_3,zh2j,e,zh2j_e,zh2j_8_eje.wav,zh2j_8_eje.wav,,TRUE,FALSE,,,,,,,,,,,,,,f,0.411,space,0.6549,,,,,,,,0,29,29,61,1,,
60575f42c2d3d51a122da250,2023-06-16_10h22.57.948,phx_ver10,2022.2.5,Win32,60.13952369,,,,,,,,,,,,126,testing_3,sh2j,ai,sh2j_ai,sh2j_8_aijai.wav,sh2j_8_aijai.wav,,TRUE,FALSE,,,,,,,,,,,,,,f,0.1176,space,0.3934,,,,,,,,0,30,30,125,1,,
60575f42c2d3d51a122da250,2023-06-16_10h22.57.948,phx_ver10,2022.2.5,Win32,60.13952369,,,,,,,,,,,,94,testing_3,j2x,i,j2x_i,j2x_8_ixi.wav,j2x_8_ixi.wav,,TRUE,FALSE,,,,,,,,,,,,,,f,0.1369,space,0.4089,,,,,,,,0,31,31,93,1,,
60575f42c2d3d51a122da250,2023-06-16_10h22.57.948,phx_ver10,2022.2.5,Win32,60.13952369,,,,,,,,,,,,45,testing_3,zh2sh,i,zh2sh_i,zh2sh_1_izhi.wav,zh2sh_1_izhi.wav,,TRUE,FALSE,,,,,,,,,,,,,,f,0.2006,space,0.4665,,,,,,,,0,32,32,44,1,,
60575f42c2d3d51a122da250,2023-06-16_10h22.57.948,phx_ver10,2022.2.5,Win32,60.13952369,,,,,,,,,,,,100,testing_3,sh2x,a,sh2x_a,sh2x_8_axa.wav,sh2x_1_asha.wav,,FALSE,FALSE,,,,,,,,,,,,,,f,1.3987,space,1.5654,,,,,,,,0,33,33,99,1,,
60575f42c2d3d51a122da250,2023-06-16_10h22.57.948,phx_ver10,2022.2.5,Win32,60.13952369,,,,,,,,,,,,98,testing_3,sh2x,a,sh2x_a,sh2x_8_axa.wav,sh2x_8_axa.wav,,TRUE,FALSE,,,,,,,,,,,,,,f,0.0549,space,0.3535,,,,,,,,0,34,34,97,1,,
60575f42c2d3d51a122da250,2023-06-16_10h22.57.948,phx_ver10,2022.2.5,Win32,60.13952369,,,,,,,,,,,,91,testing_3,j2x,ei,j2x_ei,j2x_1_eijei.wav,j2x_8_eixei.wav,,FALSE,FALSE,,,,,,,,,,,,,,j,0.3887,space,0.7034,,,,,,,,0,35,35,90,1,,
60575f42c2d3d51a122da250,2023-06-16_10h22.57.948,phx_ver10,2022.2.5,Win32,60.13952369,,,,,,,,,,,,34,testing_3,zh2sh,au,zh2sh_au,zh2sh_8_aushau.wav,zh2sh_8_aushau.wav,,TRUE,FALSE,,,,,,,,,,,,,,f,0.2637,space,0.4933,,,,,,,,0,36,36,33,1,,
60575f42c2d3d51a122da250,2023-06-16_10h22.57.948,phx_ver10,2022.2.5,Win32,60.13952369,,,,,,,,,,,,54,testing_3,zh2j,ai,zh2j_ai,zh2j_8_aijai.wav,zh2j_8_aijai.wav,,TRUE,FALSE,,,,,,,,,,,,,,f,0.1571,space,0.4332,,,,,,,,0,37,37,53,1,,
60575f42c2d3d51a122da250,2023-06-16_10h22.57.948,phx_ver10,2022.2.5,Win32,60.13952369,,,,,,,,,,,,101,testing_3,sh2x,ai,sh2x_ai,sh2x_1_aishai.wav,sh2x_1_aishai.wav,,TRUE,FALSE,,,,,,,,,,,,,,f,0.1412,space,0.3578,,,,,,,,0,38,38,100,1,,
60575f42c2d3d51a122da250,2023-06-16_10h22.57.948,phx_ver10,2022.2.5,Win32,60.13952369,,,,,,,,,,,,37,testing_3,zh2sh,e,zh2sh_e,zh2sh_1_ezhe.wav,zh2sh_1_ezhe.wav,,TRUE,FALSE,,,,,,,,,,,,,,f,0.2183,space,0.3967,,,,,,,,0,39,39,36,1,,
60575f42c2d3d51a122da250,2023-06-16_10h22.57.948,phx_ver10,2022.2.5,Win32,60.13952369,,,,,,,,,,,,128,testing_3,sh2j,ai,sh2j_ai,sh2j_8_aijai.wav,sh2j_1_aishai.wav,,FALSE,FALSE,,,,,,,,,,,,,,j,0.1836,space,0.3798,,,,,,,,0,40,40,127,1,,
60575f42c2d3d51a122da250,2023-06-16_10h22.57.948,phx_ver10,2022.2.5,Win32,60.13952369,,,,,,,,,,,,117,testing_3,sh2x,i,sh2x_i,sh2x_1_ishi.wav,sh2x_1_ishi.wav,,TRUE,FALSE,,,,,,,,,,,,,,f,0.4366,space,0.5967,,,,,,,,0,41,41,116,1,,
60575f42c2d3d51a122da250,2023-06-16_10h22.57.948,phx_ver10,2022.2.5,Win32,60.13952369,,,,,,,,,,,,133,testing_3,sh2j,e,sh2j_e,sh2j_1_eshe.wav,sh2j_1_eshe.wav,,TRUE,FALSE,,,,,,,,,,,,,,f,0.22,space,0.4496,,,,,,,,0,42,42,132,1,,
60575f42c2d3d51a122da250,2023-06-16_10h22.57.948,phx_ver10,2022.2.5,Win32,60.13952369,,,,,,,,,,,,49,testing_3,zh2j,a,zh2j_a,zh2j_1_azha.wav,zh2j_1_azha.wav,,TRUE,FALSE,,,,,,,,,,,,,,f,0.1385,space,0.4669,,,,,,,,0,43,43,48,1,,
60575f42c2d3d51a122da250,2023-06-16_10h22.57.948,phx_ver10,2022.2.5,Win32,60.13952369,,,,,,,,,,,,36,testing_3,zh2sh,au,zh2sh_au,zh2sh_8_aushau.wav,zh2sh_1_auzhau.wav,,FALSE,FALSE,,,,,,,,,,,,,,j,0.301,space,0.4823,,,,,,,,0,44,44,35,1,,
60575f42c2d3d51a122da250,2023-06-16_10h22.57.948,phx_ver10,2022.2.5,Win32,60.13952369,,,,,,,,,,,,103,testing_3,sh2x,ai,sh2x_ai,sh2x_1_aishai.wav,sh2x_8_aixai.wav,,FALSE,FALSE,,,,,,,,,,,,,,j,0.3258,space,0.6274,,,,,,,,0,45,45,102,1,,
60575f42c2d3d51a122da250,2023-06-16_10h22.57.948,phx_ver10,2022.2.5,Win32,60.13952369,,,,,,,,,,,,1,testing_1,zh2x,a,zh2x_a,zh2x_1_azha.wav,zh2x_1_azha_copy.wav,,TRUE,TRUE,,,,,,,,,,,,,,f,0.317,space,0.5572,,,,,,,,0,46,46,0,1,,
60575f42c2d3d51a122da250,2023-06-16_10h22.57.948,phx_ver10,2022.2.5,Win32,60.13952369,,,,,,,,,,,,138,testing_3,sh2j,ei,sh2j_ei,sh2j_8_eijei.wav,sh2j_8_eijei.wav,,TRUE,FALSE,,,,,,,,,,,,,,f,0.4656,space,0.6845,,,,,,,,0,47,47,137,1,,
60575f42c2d3d51a122da250,2023-06-16_10h22.57.948,phx_ver10,2022.2.5,Win32,60.13952369,,,,,,,,,,,,43,testing_3,zh2sh,ei,zh2sh_ei,zh2sh_1_eizhei.wav,zh2sh_8_eishei.wav,,FALSE,FALSE,,,,,,,,,,,,,,j,0.1606,space,0.5357,,,,,,,,0,48,48,42,1,,
60575f42c2d3d51a122da250,2023-06-16_10h22.57.948,phx_ver10,2022.2.5,Win32,60.13952369,,,,,,,,,,,,97,testing_3,sh2x,a,sh2x_a,sh2x_1_asha.wav,sh2x_1_asha.wav,,TRUE,FALSE,,,,,,,,,,,,,,f,0.8089,space,1.0004,,,,,,,,0,49,49,96,1,,
60575f42c2d3d51a122da250,2023-06-16_10h22.57.948,phx_ver10,2022.2.5,Win32,60.13952369,,,,,,,,,,,,90,testing_3,j2x,ei,j2x_ei,j2x_8_eixei.wav,j2x_8_eixei.wav,,TRUE,FALSE,,,,,,,,,,,,,,j,0.3638,space,0.7676,,,,,,,,0,50,50,89,1,,
60575f42c2d3d51a122da250,2023-06-16_10h22.57.948,phx_ver10,2022.2.5,Win32,60.13952369,,,,,,,,,,,,22,testing_2,zh2x,ei,zh2x_ei,zh2x_8_eixei.wav,zh2x_8_eixei.wav,,TRUE,FALSE,,,,,,,,,,,,,,f,0.1978,space,0.4411,,,,,,,,0,51,51,21,1,,
60575f42c2d3d51a122da250,2023-06-16_10h22.57.948,phx_ver10,2022.2.5,Win32,60.13952369,,,,,,,,,,,,132,testing_3,sh2j,au,sh2j_au,sh2j_8_aujau.wav,sh2j_1_aushau.wav,,FALSE,FALSE,,,,,,,,,,,,,,j,0.2739,space,0.6734,,,,,,,,0,52,52,131,1,,
60575f42c2d3d51a122da250,2023-06-16_10h22.57.948,phx_ver10,2022.2.5,Win32,60.13952369,,,,,,,,,,,,85,testing_3,j2x,e,j2x_e,j2x_1_eje.wav,j2x_1_eje.wav,,TRUE,FALSE,,,,,,,,,,,,,,f,0.1532,space,0.4343,,,,,,,,0,53,53,84,1,,
60575f42c2d3d51a122da250,2023-06-16_10h22.57.948,phx_ver10,2022.2.5,Win32,60.13952369,,,,,,,,,,,,108,testing_3,sh2x,au,sh2x_au,sh2x_8_auxau.wav,sh2x_1_aushau.wav,,FALSE,FALSE,,,,,,,,,,,,,,f,0.2238,space,0.4336,,,,,,,,0,54,54,107,1,,
60575f42c2d3d51a122da250,2023-06-16_10h22.57.948,phx_ver10,2022.2.5,Win32,60.13952369,,,,,,,,,,,,32,testing_3,zh2sh,ai,zh2sh_ai,zh2sh_8_aishai.wav,zh2sh_1_aizhai.wav,,FALSE,FALSE,,,,,,,,,,,,,,j,0.1669,space,0.4587,,,,,,,,0,55,55,31,1,,
60575f42c2d3d51a122da250,2023-06-16_10h22.57.948,phx_ver10,2022.2.5,Win32,60.13952369,,,,,,,,,,,,127,testing_3,sh2j,ai,sh2j_ai,sh2j_1_aishai.wav,sh2j_8_aijai.wav,,FALSE,FALSE,,,,,,,,,,,,,,j,0.2501,space,0.4773,,,,,,,,0,56,56,126,1,,
60575f42c2d3d51a122da250,2023-06-16_10h22.57.948,phx_ver10,2022.2.5,Win32,60.13952369,,,,,,,,,,,,141,testing_3,sh2j,i,sh2j_i,sh2j_1_ishi.wav,sh2j_1_ishi.wav,,TRUE,FALSE,,,,,,,,,,,,,,f,0.0676,space,0.3913,,,,,,,,0,57,57,140,1,,
60575f42c2d3d51a122da250,2023-06-16_10h22.57.948,phx_ver10,2022.2.5,Win32,60.13952369,,,,,,,,,,,,19,testing_2,zh2x,au,zh2x_au,zh2x_1_auzhau.wav,zh2x_8_auxau.wav,,FALSE,FALSE,,,,,,,,,,,,,,j,0.2253,space,0.4998,,,,,,,,0,58,58,18,1,,
60575f42c2d3d51a122da250,2023-06-16_10h22.57.948,phx_ver10,2022.2.5,Win32,60.13952369,,,,,,,,,,,,144,testing_3,sh2j,i,sh2j_i,sh2j_8_iji.wav,sh2j_1_ishi.wav,,FALSE,FALSE,,,,,,,,,,,,,,f,0.1169,space,0.3883,,,,,,,,0,59,59,143,1,,
60575f42c2d3d51a122da250,2023-06-16_10h22.57.948,phx_ver10,2022.2.5,Win32,60.13952369,,,,,,,,,,,,42,testing_3,zh2sh,ei,zh2sh_ei,zh2sh_8_eishei.wav,zh2sh_8_eishei.wav,,TRUE,FALSE,,,,,,,,,,,,,,f,0.3076,space,0.5029,,,,,,,,0,60,60,41,1,,
60575f42c2d3d51a122da250,2023-06-16_10h22.57.948,phx_ver10,2022.2.5,Win32,60.13952369,,,,,,,,,,,,137,testing_3,sh2j,ei,sh2j_ei,sh2j_1_eishei.wav,sh2j_1_eishei.wav,,TRUE,FALSE,,,,,,,,,,,,,,f,0.1189,space,0.3429,,,,,,,,0,61,61,136,1,,
60575f42c2d3d51a122da250,2023-06-16_10h22.57.948,phx_ver10,2022.2.5,Win32,60.13952369,,,,,,,,,,,,11,testing_1,zh2x,i,zh2x_i,zh2x_1_izhi.wav,zh2x_8_ixi.wav,,FALSE,TRUE,,,,,,,,,,,,,,j,0.217,space,0.4331,,,,,,,,0,62,62,10,1,,
60575f42c2d3d51a122da250,2023-06-16_10h22.57.948,phx_ver10,2022.2.5,Win32,60.13952369,,,,,,,,,,,,2,testing_1,zh2x,a,zh2x_a,zh2x_8_axa.wav,zh2x_8_axa_copy.wav,,TRUE,TRUE,,,,,,,,,,,,,,f,0.1427,space,0.3209,,,,,,,,0,63,63,1,1,,
60575f42c2d3d51a122da250,2023-06-16_10h22.57.948,phx_ver10,2022.2.5,Win32,60.13952369,,,,,,,,,,,,80,testing_3,j2x,ai,j2x_ai,j2x_8_aixai.wav,j2x_1_aijai.wav,,FALSE,FALSE,,,,,,,,,,,,,,j,0.2651,space,0.4907,,,,,,,,0,64,64,79,1,,
60575f42c2d3d51a122da250,2023-06-16_10h22.57.948,phx_ver10,2022.2.5,Win32,60.13952369,,,,,,,,,,,,93,testing_3,j2x,i,j2x_i,j2x_1_iji.wav,j2x_1_iji.wav,,TRUE,FALSE,,,,,,,,,,,,,,f,0.2037,space,0.423,,,,,,,,0,65,65,92,1,,
60575f42c2d3d51a122da250,2023-06-16_10h22.57.948,phx_ver10,2022.2.5,Win32,60.13952369,,,,,,,,,,,,51,testing_3,zh2j,a,zh2j_a,zh2j_1_azha.wav,zh2j_8_aja.wav,,FALSE,FALSE,,,,,,,,,,,,,,f,0.19,space,0.3866,,,,,,,,0,66,66,50,1,,
60575f42c2d3d51a122da250,2023-06-16_10h22.57.948,phx_ver10,2022.2.5,Win32,60.13952369,,,,,,,,,,,,142,testing_3,sh2j,i,sh2j_i,sh2j_8_iji.wav,sh2j_8_iji.wav,,TRUE,FALSE,,,,,,,,,,,,,,f,0.4173,space,0.6497,,,,,,,,0,67,67,141,1,,
60575f42c2d3d51a122da250,2023-06-16_10h22.57.948,phx_ver10,2022.2.5,Win32,60.13952369,,,,,,,,,,,,96,testing_3,j2x,i,j2x_i,j2x_8_ixi.wav,j2x_1_iji.wav,,FALSE,FALSE,,,,,,,,,,,,,,j,0.3824,space,0.6496,,,,,,,,0,68,68,95,1,,
60575f42c2d3d51a122da250,2023-06-16_10h22.57.948,phx_ver10,2022.2.5,Win32,60.13952369,,,,,,,,,,,,131,testing_3,sh2j,au,sh2j_au,sh2j_1_aushau.wav,sh2j_8_aujau.wav,,FALSE,FALSE,,,,,,,,,,,,,,f,0.1851,space,0.3706,,,,,,,,0,69,69,130,1,,
60575f42c2d3d51a122da250,2023-06-16_10h22.57.948,phx_ver10,2022.2.5,Win32,60.13952369,,,,,,,,,,,,13,testing_2,zh2x,ai,zh2x_ai,zh2x_1_aizhai.wav,zh2x_1_aizhai.wav,,TRUE,FALSE,,,,,,,,,,,,,,f,0.0443,space,0.2999,,,,,,,,0,70,70,12,1,,
60575f42c2d3d51a122da250,2023-06-16_10h22.57.948,phx_ver10,2022.2.5,Win32,60.13952369,,,,,,,,,,,,70,testing_3,zh2j,i,zh2j_i,zh2j_8_iji.wav,zh2j_8_iji.wav,,TRUE,FALSE,,,,,,,,,,,,,,f,0.1379,space,0.3199,,,,,,,,0,71,71,69,1,,
60575f42c2d3d51a122da250,2023-06-16_10h22.57.948,phx_ver10,2022.2.5,Win32,60.13952369,,,,,,,,,,,,68,testing_3,zh2j,ei,zh2j_ei,zh2j_8_eijei.wav,zh2j_1_eizhei.wav,,FALSE,FALSE,,,,,,,,,,,,,,f,0.3098,space,0.4529,,,,,,,,0,72,72,67,1,,
60575f42c2d3d51a122da250,2023-06-16_10h22.57.948,phx_ver10,2022.2.5,Win32,60.13952369,,,,,,,,,,,,14,testing_2,zh2x,ai,zh2x_ai,zh2x_8_aixai.wav,zh2x_8_aixai.wav,,TRUE,FALSE,,,,,,,,,,,,,,f,0.2375,space,0.3447,,,,,,,,0,73,73,13,1,,
60575f42c2d3d51a122da250,2023-06-16_10h22.57.948,phx_ver10,2022.2.5,Win32,60.13952369,,,,,,,,,,,,65,testing_3,zh2j,ei,zh2j_ei,zh2j_1_eizhei.wav,zh2j_1_eizhei.wav,,TRUE,FALSE,,,,,,,,,,,,,,f,0.1535,space,0.34,,,,,,,,0,74,74,64,1,,
60575f42c2d3d51a122da250,2023-06-16_10h22.57.948,phx_ver10,2022.2.5,Win32,60.13952369,,,,,,,,,,,,84,testing_3,j2x,au,j2x_au,j2x_8_auxau.wav,j2x_1_aujau.wav,,FALSE,FALSE,,,,,,,,,,,,,,j,0.0507,space,0.3278,,,,,,,,0,75,75,83,1,,
60575f42c2d3d51a122da250,2023-06-16_10h22.57.948,phx_ver10,2022.2.5,Win32,60.13952369,,,,,,,,,,,,102,testing_3,sh2x,ai,sh2x_ai,sh2x_8_aixai.wav,sh2x_8_aixai.wav,,TRUE,FALSE,,,,,,,,,,,,,,j,0.2073,space,0.3591,,,,,,,,0,76,76,101,1,,
60575f42c2d3d51a122da250,2023-06-16_10h22.57.948,phx_ver10,2022.2.5,Win32,60.13952369,,,,,,,,,,,,130,testing_3,sh2j,au,sh2j_au,sh2j_8_aujau.wav,sh2j_8_aujau.wav,,TRUE,FALSE,,,,,,,,,,,,,,f,0.0683,space,0.3349,,,,,,,,0,77,77,129,1,,
60575f42c2d3d51a122da250,2023-06-16_10h22.57.948,phx_ver10,2022.2.5,Win32,60.13952369,,,,,,,,,,,,121,testing_3,sh2j,a,sh2j_a,sh2j_1_asha.wav,sh2j_1_asha.wav,,TRUE,FALSE,,,,,,,,,,,,,,f,0.1597,space,0.3258,,,,,,,,0,78,78,120,1,,
60575f42c2d3d51a122da250,2023-06-16_10h22.57.948,phx_ver10,2022.2.5,Win32,60.13952369,,,,,,,,,,,,89,testing_3,j2x,ei,j2x_ei,j2x_1_eijei.wav,j2x_1_eijei.wav,,TRUE,FALSE,,,,,,,,,,,,,,f,0.2504,space,0.3965,,,,,,,,0,79,79,88,1,,
60575f42c2d3d51a122da250,2023-06-16_10h22.57.948,phx_ver10,2022.2.5,Win32,60.13952369,,,,,,,,,,,,95,testing_3,j2x,i,j2x_i,j2x_1_iji.wav,j2x_8_ixi.wav,,FALSE,FALSE,,,,,,,,,,,,,,f,0.1769,space,0.3737,,,,,,,,0,80,80,94,1,,
60575f42c2d3d51a122da250,2023-06-16_10h22.57.948,phx_ver10,2022.2.5,Win32,60.13952369,,,,,,,,,,,,123,testing_3,sh2j,a,sh2j_a,sh2j_1_asha.wav,sh2j_8_aja.wav,,FALSE,FALSE,,,,,,,,,,,,,,j,0.4998,space,0.6351,,,,,,,,0,81,81,122,1,,
60575f42c2d3d51a122da250,2023-06-16_10h22.57.948,phx_ver10,2022.2.5,Win32,60.13952369,,,,,,,,,,,,111,testing_3,sh2x,e,sh2x_e,sh2x_1_eshe.wav,sh2x_8_exe.wav,,FALSE,FALSE,,,,,,,,,,,,,,j,0.9513,space,1.077,,,,,,,,0,82,82,110,1,,
60575f42c2d3d51a122da250,2023-06-16_10h22.57.948,phx_ver10,2022.2.5,Win32,60.13952369,,,,,,,,,,,,7,testing_1,zh2x,e,zh2x_e,zh2x_1_ezhe.wav,zh2x_8_exe.wav,,FALSE,TRUE,,,,,,,,,,,,,,j,0.2347,space,0.3681,,,,,,,,0,83,83,6,1,,
60575f42c2d3d51a122da250,2023-06-16_10h22.57.948,phx_ver10,2022.2.5,Win32,60.13952369,,,,,,,,,,,,81,testing_3,j2x,au,j2x_au,j2x_1_aujau.wav,j2x_1_aujau.wav,,TRUE,FALSE,,,,,,,,,,,,,,f,0.1458,space,0.3226,,,,,,,,0,84,84,80,1,,
60575f42c2d3d51a122da250,2023-06-16_10h22.57.948,phx_ver10,2022.2.5,Win32,60.13952369,,,,,,,,,,,,55,testing_3,zh2j,ai,zh2j_ai,zh2j_1_aizhai.wav,zh2j_8_aijai.wav,,FALSE,FALSE,,,,,,,,,,,,,,f,0.1255,space,0.3054,,,,,,,,0,85,85,54,1,,
60575f42c2d3d51a122da250,2023-06-16_10h22.57.948,phx_ver10,2022.2.5,Win32,60.13952369,,,,,,,,,,,,104,testing_3,sh2x,ai,sh2x_ai,sh2x_8_aixai.wav,sh2x_1_aishai.wav,,FALSE,FALSE,,,,,,,,,,,,,,j,0.2119,space,0.3211,,,,,,,,0,86,86,103,1,,
60575f42c2d3d51a122da250,2023-06-16_10h22.57.948,phx_ver10,2022.2.5,Win32,60.13952369,,,,,,,,,,,,20,testing_2,zh2x,au,zh2x_au,zh2x_8_auxau.wav,zh2x_1_auzhau.wav,,FALSE,FALSE,,,,,,,,,,,,,,j,0.1927,space,0.3164,,,,,,,,0,87,87,19,1,,
60575f42c2d3d51a122da250,2023-06-16_10h22.57.948,phx_ver10,2022.2.5,Win32,60.13952369,,,,,,,,,,,,107,testing_3,sh2x,au,sh2x_au,sh2x_1_aushau.wav,sh2x_8_auxau.wav,,FALSE,FALSE,,,,,,,,,,,,,,j,0.1846,space,0.2844,,,,,,,,0,88,88,106,1,,
60575f42c2d3d51a122da250,2023-06-16_10h22.57.948,phx_ver10,2022.2.5,Win32,60.13952369,,,,,,,,,,,,119,testing_3,sh2x,i,sh2x_i,sh2x_1_ishi.wav,sh2x_8_ixi.wav,,FALSE,FALSE,,,,,,,,,,,,,,j,0.1062,space,0.2189,,,,,,,,0,89,89,118,1,,
60575f42c2d3d51a122da250,2023-06-16_10h22.57.948,phx_ver10,2022.2.5,Win32,60.13952369,,,,,,,,,,,,52,testing_3,zh2j,a,zh2j_a,zh2j_8_aja.wav,zh2j_1_azha.wav,,FALSE,FALSE,,,,,,,,,,,,,,f,0.1598,space,0.3006,,,,,,,,0,90,90,51,1,,
60575f42c2d3d51a122da250,2023-06-16_10h22.57.948,phx_ver10,2022.2.5,Win32,60.13952369,,,,,,,,,,,,74,testing_3,j2x,a,j2x_a,j2x_8_axa.wav,j2x_8_axa.wav,,TRUE,FALSE,,,,,,,,,,,,,,f,0.0838,space,0.2496,,,,,,,,0,91,91,73,1,,
60575f42c2d3d51a122da250,2023-06-16_10h22.57.948,phx_ver10,2022.2.5,Win32,60.13952369,,,,,,,,,,,,125,testing_3,sh2j,ai,sh2j_ai,sh2j_1_aishai.wav,sh2j_1_aishai.wav,,TRUE,FALSE,,,,,,,,,,,,,,f,0.1132,space,0.3182,,,,,,,,0,92,92,124,1,,
60575f42c2d3d51a122da250,2023-06-16_10h22.57.948,phx_ver10,2022.2.5,Win32,60.13952369,,,,,,,,,,,,71,testing_3,zh2j,i,zh2j_i,zh2j_1_izhi.wav,zh2j_8_iji.wav,,FALSE,FALSE,,,,,,,,,,,,,,f,0.0732,space,0.2862,,,,,,,,0,93,93,70,1,,
60575f42c2d3d51a122da250,2023-06-16_10h22.57.948,phx_ver10,2022.2.5,Win32,60.13952369,,,,,,,,,,,,118,testing_3,sh2x,i,sh2x_i,sh2x_8_ixi.wav,sh2x_8_ixi.wav,,TRUE,FALSE,,,,,,,,,,,,,,f,0.0774,space,0.2599,,,,,,,,0,94,94,117,1,,
60575f42c2d3d51a122da250,2023-06-16_10h22.57.948,phx_ver10,2022.2.5,Win32,60.13952369,,,,,,,,,,,,61,testing_3,zh2j,e,zh2j_e,zh2j_1_ezhe.wav,zh2j_1_ezhe.wav,,TRUE,FALSE,,,,,,,,,,,,,,f,0.2053,space,0.3336,,,,,,,,0,95,95,60,1,,
60575f42c2d3d51a122da250,2023-06-16_10h22.57.948,phx_ver10,2022.2.5,Win32,60.13952369,,,,,,,,,,,,78,testing_3,j2x,ai,j2x_ai,j2x_8_aixai.wav,j2x_8_aixai.wav,,TRUE,FALSE,,,,,,,,,,,,,,f,0.2838,space,0.3999,,,,,,,,0,96,96,77,1,,
60575f42c2d3d51a122da250,2023-06-16_10h22.57.948,phx_ver10,2022.2.5,Win32,60.13952369,,,,,,,,,,,,99,testing_3,sh2x,a,sh2x_a,sh2x_1_asha.wav,sh2x_8_axa.wav,,FALSE,FALSE,,,,,,,,,,,,,,f,0.22,space,0.3665,,,,,,,,0,97,97,98,1,,
60575f42c2d3d51a122da250,2023-06-16_10h22.57.948,phx_ver10,2022.2.5,Win32,60.13952369,,,,,,,,,,,,28,testing_3,zh2sh,a,zh2sh_a,zh2sh_8_asha.wav,zh2sh_1_azha.wav,,FALSE,FALSE,,,,,,,,,,,,,,j,0.2353,space,0.3697,,,,,,,,0,98,98,27,1,,
60575f42c2d3d51a122da250,2023-06-16_10h22.57.948,phx_ver10,2022.2.5,Win32,60.13952369,,,,,,,,,,,,140,testing_3,sh2j,ei,sh2j_ei,sh2j_8_eijei.wav,sh2j_1_eishei.wav,,FALSE,FALSE,,,,,,,,,,,,,,j,0.2,space,0.3503,,,,,,,,0,99,99,139,1,,
60575f42c2d3d51a122da250,2023-06-16_10h22.57.948,phx_ver10,2022.2.5,Win32,60.13952369,,,,,,,,,,,,57,testing_3,zh2j,au,zh2j_au,zh2j_1_auzhau.wav,zh2j_1_auzhau.wav,,TRUE,FALSE,,,,,,,,,,,,,,f,0.3248,space,0.4841,,,,,,,,0,100,100,56,1,,
60575f42c2d3d51a122da250,2023-06-16_10h22.57.948,phx_ver10,2022.2.5,Win32,60.13952369,,,,,,,,,,,,77,testing_3,j2x,ai,j2x_ai,j2x_1_aijai.wav,j2x_1_aijai.wav,,TRUE,FALSE,,,,,,,,,,,,,,f,0.8395,space,0.9588,,,,,,,,0,101,101,76,1,,
60575f42c2d3d51a122da250,2023-06-16_10h22.57.948,phx_ver10,2022.2.5,Win32,60.13952369,,,,,,,,,,,,24,testing_2,zh2x,ei,zh2x_ei,zh2x_8_eixei.wav,zh2x_1_eizhei.wav,,FALSE,FALSE,,,,,,,,,,,,,,f,15.9214,space,16.118,,,,,,,,0,102,102,23,1,,
60575f42c2d3d51a122da250,2023-06-16_10h22.57.948,phx_ver10,2022.2.5,Win32,60.13952369,,,,,,,,,,,,35,testing_3,zh2sh,au,zh2sh_au,zh2sh_1_auzhau.wav,zh2sh_8_aushau.wav,,FALSE,FALSE,,,,,,,,,,,,,,j,1.0644,space,3.3953,,,,,,,,0,103,103,34,1,,
60575f42c2d3d51a122da250,2023-06-16_10h22.57.948,phx_ver10,2022.2.5,Win32,60.13952369,,,,,,,,,,,,47,testing_3,zh2sh,i,zh2sh_i,zh2sh_1_izhi.wav,zh2sh_8_ishi.wav,,FALSE,FALSE,,,,,,,,,,,,,,f,0.3004,space,0.3505,,,,,,,,0,104,104,46,1,,
60575f42c2d3d51a122da250,2023-06-16_10h22.57.948,phx_ver10,2022.2.5,Win32,60.13952369,,,,,,,,,,,,73,testing_3,j2x,a,j2x_a,j2x_1_aja.wav,j2x_1_aja.wav,,TRUE,FALSE,,,,,,,,,,,,,,f,0.1472,space,0.214,,,,,,,,0,105,105,72,1,,
60575f42c2d3d51a122da250,2023-06-16_10h22.57.948,phx_ver10,2022.2.5,Win32,60.13952369,,,,,,,,,,,,56,testing_3,zh2j,ai,zh2j_ai,zh2j_8_aijai.wav,zh2j_1_aizhai.wav,,FALSE,FALSE,,,,,,,,,,,,,,f,0.1988,space,0.2504,,,,,,,,0,106,106,55,1,,
60575f42c2d3d51a122da250,2023-06-16_10h22.57.948,phx_ver10,2022.2.5,Win32,60.13952369,,,,,,,,,,,,40,testing_3,zh2sh,e,zh2sh_e,zh2sh_8_eshe.wav,zh2sh_1_ezhe.wav,,FALSE,FALSE,,,,,,,,,,,,,,f,0.3503,space,0.4831,,,,,,,,0,107,107,39,1,,
60575f42c2d3d51a122da250,2023-06-16_10h22.57.948,phx_ver10,2022.2.5,Win32,60.13952369,,,,,,,,,,,,134,testing_3,sh2j,e,sh2j_e,sh2j_8_eje.wav,sh2j_8_eje.wav,,TRUE,FALSE,,,,,,,,,,,,,,j,2.1657,space,2.4644,,,,,,,,0,108,108,133,1,,
60575f42c2d3d51a122da250,2023-06-16_10h22.57.948,phx_ver10,2022.2.5,Win32,60.13952369,,,,,,,,,,,,48,testing_3,zh2sh,i,zh2sh_i,zh2sh_8_ishi.wav,zh2sh_1_izhi.wav,,FALSE,FALSE,,,,,,,,,,,,,,f,0.3502,space,0.4851,,,,,,,,0,109,109,47,1,,
60575f42c2d3d51a122da250,2023-06-16_10h22.57.948,phx_ver10,2022.2.5,Win32,60.13952369,,,,,,,,,,,,114,testing_3,sh2x,ei,sh2x_ei,sh2x_8_eixei.wav,sh2x_8_eixei.wav,,TRUE,FALSE,,,,,,,,,,,,,,f,0.2817,space,0.45,,,,,,,,0,110,110,113,1,,
60575f42c2d3d51a122da250,2023-06-16_10h22.57.948,phx_ver10,2022.2.5,Win32,60.13952369,,,,,,,,,,,,23,testing_2,zh2x,ei,zh2x_ei,zh2x_1_eizhei.wav,zh2x_8_eixei.wav,,FALSE,FALSE,,,,,,,,,,,,,,j,0.2653,space,0.3668,,,,,,,,0,111,111,22,1,,
60575f42c2d3d51a122da250,2023-06-16_10h22.57.948,phx_ver10,2022.2.5,Win32,60.13952369,,,,,,,,,,,,12,testing_1,zh2x,i,zh2x_i,zh2x_8_ixi.wav,zh2x_1_izhi.wav,,FALSE,TRUE,,,,,,,,,,,,,,f,0.3333,space,0.4665,,,,,,,,0,112,112,11,1,,
60575f42c2d3d51a122da250,2023-06-16_10h22.57.948,phx_ver10,2022.2.5,Win32,60.13952369,,,,,,,,,,,,10,testing_1,zh2x,i,zh2x_i,zh2x_8_ixi.wav,zh2x_8_ixi_copy.wav,,TRUE,TRUE,,,,,,,,,,,,,,f,0.0508,space,0.1669,,,,,,,,0,113,113,9,1,,
60575f42c2d3d51a122da250,2023-06-16_10h22.57.948,phx_ver10,2022.2.5,Win32,60.13952369,,,,,,,,,,,,41,testing_3,zh2sh,ei,zh2sh_ei,zh2sh_1_eizhei.wav,zh2sh_1_eizhei.wav,,TRUE,FALSE,,,,,,,,,,,,,,f,0.0338,space,0.1675,,,,,,,,0,114,114,40,1,,
60575f42c2d3d51a122da250,2023-06-16_10h22.57.948,phx_ver10,2022.2.5,Win32,60.13952369,,,,,,,,,,,,120,testing_3,sh2x,i,sh2x_i,sh2x_8_ixi.wav,sh2x_1_ishi.wav,,FALSE,FALSE,,,,,,,,,,,,,,j,0.1179,space,0.2485,,,,,,,,0,115,115,119,1,,
60575f42c2d3d51a122da250,2023-06-16_10h22.57.948,phx_ver10,2022.2.5,Win32,60.13952369,,,,,,,,,,,,88,testing_3,j2x,e,j2x_e,j2x_8_exe.wav,j2x_1_eje.wav,,FALSE,FALSE,,,,,,,,,,,,,,f,0.2672,space,0.384,,,,,,,,0,116,116,87,1,,
60575f42c2d3d51a122da250,2023-06-16_10h22.57.948,phx_ver10,2022.2.5,Win32,60.13952369,,,,,,,,,,,,135,testing_3,sh2j,e,sh2j_e,sh2j_1_eshe.wav,sh2j_8_eje.wav,,FALSE,FALSE,,,,,,,,,,,,,,j,0.45,space,0.5828,,,,,,,,0,117,117,134,1,,
60575f42c2d3d51a122da250,2023-06-16_10h22.57.948,phx_ver10,2022.2.5,Win32,60.13952369,,,,,,,,,,,,124,testing_3,sh2j,a,sh2j_a,sh2j_8_aja.wav,sh2j_1_asha.wav,,FALSE,FALSE,,,,,,,,,,,,,,f,0.1004,space,0.301,,,,,,,,0,118,118,123,1,,
60575f42c2d3d51a122da250,2023-06-16_10h22.57.948,phx_ver10,2022.2.5,Win32,60.13952369,,,,,,,,,,,,15,testing_2,zh2x,ai,zh2x_ai,zh2x_1_aizhai.wav,zh2x_8_aixai.wav,,FALSE,FALSE,,,,,,,,,,,,,,j,0.2686,space,0.4838,,,,,,,,0,119,119,14,1,,
60575f42c2d3d51a122da250,2023-06-16_10h22.57.948,phx_ver10,2022.2.5,Win32,60.13952369,,,,,,,,,,,,5,testing_1,zh2x,e,zh2x_e,zh2x_1_ezhe.wav,zh2x_1_ezhe_copy.wav,,TRUE,TRUE,,,,,,,,,,,,,,f,0.185,space,0.4001,,,,,,,,0,120,120,4,1,,
60575f42c2d3d51a122da250,2023-06-16_10h22.57.948,phx_ver10,2022.2.5,Win32,60.13952369,,,,,,,,,,,,38,testing_3,zh2sh,e,zh2sh_e,zh2sh_8_eshe.wav,zh2sh_8_eshe.wav,,TRUE,FALSE,,,,,,,,,,,,,,f,0.0504,space,0.2836,,,,,,,,0,121,121,37,1,,
60575f42c2d3d51a122da250,2023-06-16_10h22.57.948,phx_ver10,2022.2.5,Win32,60.13952369,,,,,,,,,,,,63,testing_3,zh2j,e,zh2j_e,zh2j_1_ezhe.wav,zh2j_8_eje.wav,,FALSE,FALSE,,,,,,,,,,,,,,j,0.1667,space,0.3506,,,,,,,,0,122,122,62,1,,
60575f42c2d3d51a122da250,2023-06-16_10h22.57.948,phx_ver10,2022.2.5,Win32,60.13952369,,,,,,,,,,,,25,testing_3,zh2sh,a,zh2sh_a,zh2sh_1_azha.wav,zh2sh_1_azha.wav,,TRUE,FALSE,,,,,,,,,,,,,,f,0.4004,space,0.5836,,,,,,,,0,123,123,24,1,,
60575f42c2d3d51a122da250,2023-06-16_10h22.57.948,phx_ver10,2022.2.5,Win32,60.13952369,,,,,,,,,,,,21,testing_2,zh2x,ei,zh2x_ei,zh2x_1_eizhei.wav,zh2x_1_eizhei.wav,,TRUE,FALSE,,,,,,,,,,,,,,f,0.3336,space,0.4833,,,,,,,,0,124,124,20,1,,
60575f42c2d3d51a122da250,2023-06-16_10h22.57.948,phx_ver10,2022.2.5,Win32,60.13952369,,,,,,,,,,,,26,testing_3,zh2sh,a,zh2sh_a,zh2sh_8_asha.wav,zh2sh_8_asha.wav,,TRUE,FALSE,,,,,,,,,,,,,,f,0.2837,space,0.4671,,,,,,,,0,125,125,25,1,,
60575f42c2d3d51a122da250,2023-06-16_10h22.57.948,phx_ver10,2022.2.5,Win32,60.13952369,,,,,,,,,,,,139,testing_3,sh2j,ei,sh2j_ei,sh2j_1_eishei.wav,sh2j_8_eijei.wav,,FALSE,FALSE,,,,,,,,,,,,,,j,0.2169,space,0.4667,,,,,,,,0,126,126,138,1,,
60575f42c2d3d51a122da250,2023-06-16_10h22.57.948,phx_ver10,2022.2.5,Win32,60.13952369,,,,,,,,,,,,31,testing_3,zh2sh,ai,zh2sh_ai,zh2sh_1_aizhai.wav,zh2sh_8_aishai.wav,,FALSE,FALSE,,,,,,,,,,,,,,j,0.3503,space,0.6335,,,,,,,,0,127,127,30,1,,
60575f42c2d3d51a122da250,2023-06-16_10h22.57.948,phx_ver10,2022.2.5,Win32,60.13952369,,,,,,,,,,,,29,testing_3,zh2sh,ai,zh2sh_ai,zh2sh_1_aizhai.wav,zh2sh_1_aizhai.wav,,TRUE,FALSE,,,,,,,,,,,,,,f,0.2504,space,0.4506,,,,,,,,0,128,128,28,1,,
60575f42c2d3d51a122da250,2023-06-16_10h22.57.948,phx_ver10,2022.2.5,Win32,60.13952369,,,,,,,,,,,,87,testing_3,j2x,e,j2x_e,j2x_1_eje.wav,j2x_8_exe.wav,,FALSE,FALSE,,,,,,,,,,,,,,j,0.2169,space,0.4501,,,,,,,,0,129,129,86,1,,
60575f42c2d3d51a122da250,2023-06-16_10h22.57.948,phx_ver10,2022.2.5,Win32,60.13952369,,,,,,,,,,,,122,testing_3,sh2j,a,sh2j_a,sh2j_8_aja.wav,sh2j_8_aja.wav,,TRUE,FALSE,,,,,,,,,,,,,,f,0.2175,space,0.3901,,,,,,,,0,130,130,121,1,,
60575f42c2d3d51a122da250,2023-06-16_10h22.57.948,phx_ver10,2022.2.5,Win32,60.13952369,,,,,,,,,,,,39,testing_3,zh2sh,e,zh2sh_e,zh2sh_1_ezhe.wav,zh2sh_8_eshe.wav,,FALSE,FALSE,,,,,,,,,,,,,,f,0.2497,space,0.4492,,,,,,,,0,131,131,38,1,,
60575f42c2d3d51a122da250,2023-06-16_10h22.57.948,phx_ver10,2022.2.5,Win32,60.13952369,,,,,,,,,,,,64,testing_3,zh2j,e,zh2j_e,zh2j_8_eje.wav,zh2j_1_ezhe.wav,,FALSE,FALSE,,,,,,,,,,,,,,f,0.2674,space,0.3999,,,,,,,,0,132,132,63,1,,
60575f42c2d3d51a122da250,2023-06-16_10h22.57.948,phx_ver10,2022.2.5,Win32,60.13952369,,,,,,,,,,,,82,testing_3,j2x,au,j2x_au,j2x_8_auxau.wav,j2x_8_auxau.wav,,TRUE,FALSE,,,,,,,,,,,,,,f,0.2835,space,0.4002,,,,,,,,0,133,133,81,1,,
60575f42c2d3d51a122da250,2023-06-16_10h22.57.948,phx_ver10,2022.2.5,Win32,60.13952369,,,,,,,,,,,,83,testing_3,j2x,au,j2x_au,j2x_1_aujau.wav,j2x_8_auxau.wav,,FALSE,FALSE,,,,,,,,,,,,,,j,0.0671,space,0.2671,,,,,,,,0,134,134,82,1,,
60575f42c2d3d51a122da250,2023-06-16_10h22.57.948,phx_ver10,2022.2.5,Win32,60.13952369,,,,,,,,,,,,67,testing_3,zh2j,ei,zh2j_ei,zh2j_1_eizhei.wav,zh2j_8_eijei.wav,,FALSE,FALSE,,,,,,,,,,,,,,f,0.4502,space,0.6998,,,,,,,,0,135,135,66,1,,
60575f42c2d3d51a122da250,2023-06-16_10h22.57.948,phx_ver10,2022.2.5,Win32,60.13952369,,,,,,,,,,,,115,testing_3,sh2x,ei,sh2x_ei,sh2x_1_eishei.wav,sh2x_8_eixei.wav,,FALSE,FALSE,,,,,,,,,,,,,,f,0.8999,space,0.981,,,,,,,,0,136,136,114,1,,
60575f42c2d3d51a122da250,2023-06-16_10h22.57.948,phx_ver10,2022.2.5,Win32,60.13952369,,,,,,,,,,,,110,testing_3,sh2x,e,sh2x_e,sh2x_8_exe.wav,sh2x_8_exe.wav,,TRUE,FALSE,,,,,,,,,,,,,,f,0.3167,space,0.4331,,,,,,,,0,137,137,109,1,,
60575f42c2d3d51a122da250,2023-06-16_10h22.57.948,phx_ver10,2022.2.5,Win32,60.13952369,,,,,,,,,,,,18,testing_2,zh2x,au,zh2x_au,zh2x_8_auxau.wav,zh2x_8_auxau.wav,,TRUE,FALSE,,,,,,,,,,,,,,f,0.3667,space,0.5332,,,,,,,,0,138,138,17,1,,
60575f42c2d3d51a122da250,2023-06-16_10h22.57.948,phx_ver10,2022.2.5,Win32,60.13952369,,,,,,,,,,,,72,testing_3,zh2j,i,zh2j_i,zh2j_8_iji.wav,zh2j_1_izhi.wav,,FALSE,FALSE,,,,,,,,,,,,,,f,0.3003,space,0.433,,,,,,,,0,139,139,71,1,,
60575f42c2d3d51a122da250,2023-06-16_10h22.57.948,phx_ver10,2022.2.5,Win32,60.13952369,,,,,,,,,,,,66,testing_3,zh2j,ei,zh2j_ei,zh2j_8_eijei.wav,zh2j_8_eijei.wav,,TRUE,FALSE,,,,,,,,,,,,,,f,0.545,space,0.6997,,,,,,,,0,140,140,65,1,,
60575f42c2d3d51a122da250,2023-06-16_10h22.57.948,phx_ver10,2022.2.5,Win32,60.13952369,,,,,,,,,,,,105,testing_3,sh2x,au,sh2x_au,sh2x_1_aushau.wav,sh2x_1_aushau.wav,,TRUE,FALSE,,,,,,,,,,,,,,f,1.3817,space,1.5498,,,,,,,,0,141,141,104,1,,
60575f42c2d3d51a122da250,2023-06-16_10h22.57.948,phx_ver10,2022.2.5,Win32,60.13952369,,,,,,,,,,,,106,testing_3,sh2x,au,sh2x_au,sh2x_8_auxau.wav,sh2x_8_auxau.wav,,TRUE,FALSE,,,,,,,,,,,,,,f,2.5643,space,2.6813,,,,,,,,0,142,142,105,1,,
60575f42c2d3d51a122da250,2023-06-16_10h22.57.948,phx_ver10,2022.2.5,Win32,60.13952369,,,,,,,,,,,,17,testing_2,zh2x,au,zh2x_au,zh2x_1_auzhau.wav,zh2x_1_auzhau.wav,,TRUE,FALSE,,,,,,,,,,,,,,f,2.6481,space,3.0473,,,,,,,,0,143,143,16,1,,
60575f42c2d3d51a122da250,2023-06-16_10h22.57.948,phx_ver10,2022.2.5,Win32,60.13952369,,,,,,,,,,,,,,,,,,,,,,,,,,,,,,,,,,,,,,,,,,,,,,,,,,,space,2.9137
