participant,date,expName,psychopyVersion,OS,frameRate,space_1.keys,space_1.rt,space_2.keys,space_2.rt,space_train.keys,space_train.rt,training.thisRepN,training.thisTrialN,training.thisN,training.thisIndex,training.ran,token_id,task,continuum,vowel,series,sound_1,sound_2,img,same,trained,FJ_attn.keys,FJ_attn.rt,space_attn.keys,space_attn.rt,if_attn_test.thisRepN,if_attn_test.thisTrialN,if_attn_test.thisN,if_attn_test.thisIndex,if_attn_test.ran,space_trans_1.keys,space_trans_1.rt,space_trans_11.keys,space_trans_11.rt,FJ_test.keys,FJ_test.rt,space_test.keys,space_test.rt,testing_pre.thisRepN,testing_pre.thisTrialN,testing_pre.thisN,testing_pre.thisIndex,testing_pre.ran,space_trans_2.keys,space_trans_2.rt,testing_all.thisRepN,testing_all.thisTrialN,testing_all.thisN,testing_all.thisIndex,testing_all.ran,space_ending.keys,space_ending.rt
606a4f1c6e098bf633fd64db,2023-06-16_10h18.47.880,phx_ver10,2022.2.5,Linux x86_64,20.02242512,,,,,,,,,,,,,,,,,,,,,,,,,,,,,,,,,,,,,,,,,,,,,,,,,,,,
606a4f1c6e098bf633fd64db,2023-06-16_10h18.47.880,phx_ver10,2022.2.5,Linux x86_64,20.02242512,space,171.9038,,,,,,,,,,,,,,,,,,,,,,,,,,,,,,,,,,,,,,,,,,,,,,,,,,
606a4f1c6e098bf633fd64db,2023-06-16_10h18.47.880,phx_ver10,2022.2.5,Linux x86_64,20.02242512,,,space,8.1335,,,,,,,,,,,,,,,,,,,,,,,,,,,,,,,,,,,,,,,,,,,,,,,,
606a4f1c6e098bf633fd64db,2023-06-16_10h18.47.880,phx_ver10,2022.2.5,Linux x86_64,20.02242512,,,,,space,15.1784,0,0,0,17,1,18,training,zh2x,e,zh2x_e,zh2x_2_ezhe.wav,,ezhe.jpg,,,,,,,,,,,,,,,,,,,,,,,,,,,,,,,,,
606a4f1c6e098bf633fd64db,2023-06-16_10h18.47.880,phx_ver10,2022.2.5,Linux x86_64,20.02242512,,,,,space,7.8243,0,1,1,4,1,5,training,zh2x,a,zh2x_a,zh2x_2_azha.wav,,azha.jpg,,,,,,,,,,,,,,,,,,,,,,,,,,,,,,,,,
606a4f1c6e098bf633fd64db,2023-06-16_10h18.47.880,phx_ver10,2022.2.5,Linux x86_64,20.02242512,,,,,space,5.2648,0,2,2,29,1,30,training,zh2x,e,zh2x_e,zh2x_7_exe.wav,,exe.jpg,,,,,,,,,,,,,,,,,,,,,,,,,,,,,,,,,
606a4f1c6e098bf633fd64db,2023-06-16_10h18.47.880,phx_ver10,2022.2.5,Linux x86_64,20.02242512,,,,,space,1.5895,0,3,3,46,1,47,training,zh2x,i,zh2x_i,zh2x_7_ixi.wav,,ixi.jpg,,,,,,,,,,,,,,,,,,,,,,,,,,,,,,,,,
606a4f1c6e098bf633fd64db,2023-06-16_10h18.47.880,phx_ver10,2022.2.5,Linux x86_64,20.02242512,,,,,space,1.1869,0,4,4,39,1,40,training,zh2x,i,zh2x_i,zh2x_4_izhi.wav,,izhi.jpg,,,,,,,,,,,,,,,,,,,,,,,,,,,,,,,,,
606a4f1c6e098bf633fd64db,2023-06-16_10h18.47.880,phx_ver10,2022.2.5,Linux x86_64,20.02242512,,,,,space,0.6477,0,5,5,30,1,31,training,zh2x,e,zh2x_e,zh2x_7_exe.wav,,exe.jpg,,,,,,,,,,,,,,,,,,,,,,,,,,,,,,,,,
606a4f1c6e098bf633fd64db,2023-06-16_10h18.47.880,phx_ver10,2022.2.5,Linux x86_64,20.02242512,,,,,,,,,,,,,attn_test,,,,zh2x_8_exe.wav,zh2x_1_izhi.wav,izhi.jpg,RIGHT,,j,1.9223,space,3.8654,0,0,0,0,1,,,,,,,,,,,,,,,,,,,,,,
606a4f1c6e098bf633fd64db,2023-06-16_10h18.47.880,phx_ver10,2022.2.5,Linux x86_64,20.02242512,,,,,space,2.3951,0,6,6,19,1,20,training,zh2x,e,zh2x_e,zh2x_2_ezhe.wav,,ezhe.jpg,,,,,,,,,,,,,,,,,,,,,,,,,,,,,,,,,
606a4f1c6e098bf633fd64db,2023-06-16_10h18.47.880,phx_ver10,2022.2.5,Linux x86_64,20.02242512,,,,,space,0.2996,0,7,7,5,1,6,training,zh2x,a,zh2x_a,zh2x_3_azha.wav,,azha.jpg,,,,,,,,,,,,,,,,,,,,,,,,,,,,,,,,,
606a4f1c6e098bf633fd64db,2023-06-16_10h18.47.880,phx_ver10,2022.2.5,Linux x86_64,20.02242512,,,,,space,0.0417,0,8,8,14,1,15,training,zh2x,a,zh2x_a,zh2x_7_axa.wav,,axa.jpg,,,,,,,,,,,,,,,,,,,,,,,,,,,,,,,,,
606a4f1c6e098bf633fd64db,2023-06-16_10h18.47.880,phx_ver10,2022.2.5,Linux x86_64,20.02242512,,,,,space,0.4232,0,9,9,27,1,28,training,zh2x,e,zh2x_e,zh2x_7_exe.wav,,exe.jpg,,,,,,,,,,,,,,,,,,,,,,,,,,,,,,,,,
606a4f1c6e098bf633fd64db,2023-06-16_10h18.47.880,phx_ver10,2022.2.5,Linux x86_64,20.02242512,,,,,space,0.3542,0,10,10,20,1,21,training,zh2x,e,zh2x_e,zh2x_2_ezhe.wav,,ezhe.jpg,,,,,,,,,,,,,,,,,,,,,,,,,,,,,,,,,
606a4f1c6e098bf633fd64db,2023-06-16_10h18.47.880,phx_ver10,2022.2.5,Linux x86_64,20.02242512,,,,,space,1.135,0,11,11,33,1,34,training,zh2x,i,zh2x_i,zh2x_2_izhi.wav,,izhi.jpg,,,,,,,,,,,,,,,,,,,,,,,,,,,,,,,,,
606a4f1c6e098bf633fd64db,2023-06-16_10h18.47.880,phx_ver10,2022.2.5,Linux x86_64,20.02242512,,,,,,,,,,,,,attn_test,,,,zh2x_1_ezhe.wav,zh2x_1_izhi.wav,ezhe.jpg,LEFT,,f,1.4482,space,2.2501,0,0,0,0,1,,,,,,,,,,,,,,,,,,,,,,
606a4f1c6e098bf633fd64db,2023-06-16_10h18.47.880,phx_ver10,2022.2.5,Linux x86_64,20.02242512,,,,,space,2.4969,0,12,12,2,1,3,training,zh2x,a,zh2x_a,zh2x_2_azha.wav,,azha.jpg,,,,,,,,,,,,,,,,,,,,,,,,,,,,,,,,,
606a4f1c6e098bf633fd64db,2023-06-16_10h18.47.880,phx_ver10,2022.2.5,Linux x86_64,20.02242512,,,,,space,0.5879,0,13,13,38,1,39,training,zh2x,i,zh2x_i,zh2x_3_izhi.wav,,izhi.jpg,,,,,,,,,,,,,,,,,,,,,,,,,,,,,,,,,
606a4f1c6e098bf633fd64db,2023-06-16_10h18.47.880,phx_ver10,2022.2.5,Linux x86_64,20.02242512,,,,,space,0.171,0,14,14,22,1,23,training,zh2x,e,zh2x_e,zh2x_3_ezhe.wav,,ezhe.jpg,,,,,,,,,,,,,,,,,,,,,,,,,,,,,,,,,
606a4f1c6e098bf633fd64db,2023-06-16_10h18.47.880,phx_ver10,2022.2.5,Linux x86_64,20.02242512,,,,,space,0.469,0,15,15,36,1,37,training,zh2x,i,zh2x_i,zh2x_2_izhi.wav,,izhi.jpg,,,,,,,,,,,,,,,,,,,,,,,,,,,,,,,,,
606a4f1c6e098bf633fd64db,2023-06-16_10h18.47.880,phx_ver10,2022.2.5,Linux x86_64,20.02242512,,,,,space,0.5172,0,16,16,42,1,43,training,zh2x,i,zh2x_i,zh2x_6_ixi.wav,,ixi.jpg,,,,,,,,,,,,,,,,,,,,,,,,,,,,,,,,,
606a4f1c6e098bf633fd64db,2023-06-16_10h18.47.880,phx_ver10,2022.2.5,Linux x86_64,20.02242512,,,,,space,0.4146,0,17,17,47,1,48,training,zh2x,i,zh2x_i,zh2x_8_ixi.wav,,ixi.jpg,,,,,,,,,,,,,,,,,,,,,,,,,,,,,,,,,
606a4f1c6e098bf633fd64db,2023-06-16_10h18.47.880,phx_ver10,2022.2.5,Linux x86_64,20.02242512,,,,,,,,,,,,,attn_test,,,,zh2x_8_ixi.wav,zh2x_1_izhi.wav,izhi.jpg,RIGHT,,f,3.3807,space,3.8876,0,0,0,0,1,,,,,,,,,,,,,,,,,,,,,,
606a4f1c6e098bf633fd64db,2023-06-16_10h18.47.880,phx_ver10,2022.2.5,Linux x86_64,20.02242512,,,,,space,0.45,0,18,18,32,1,33,training,zh2x,i,zh2x_i,zh2x_1_izhi.wav,,izhi.jpg,,,,,,,,,,,,,,,,,,,,,,,,,,,,,,,,,
606a4f1c6e098bf633fd64db,2023-06-16_10h18.47.880,phx_ver10,2022.2.5,Linux x86_64,20.02242512,,,,,space,0.166,0,19,19,25,1,26,training,zh2x,e,zh2x_e,zh2x_6_exe.wav,,exe.jpg,,,,,,,,,,,,,,,,,,,,,,,,,,,,,,,,,
606a4f1c6e098bf633fd64db,2023-06-16_10h18.47.880,phx_ver10,2022.2.5,Linux x86_64,20.02242512,,,,,space,0.4487,0,20,20,34,1,35,training,zh2x,i,zh2x_i,zh2x_2_izhi.wav,,izhi.jpg,,,,,,,,,,,,,,,,,,,,,,,,,,,,,,,,,
606a4f1c6e098bf633fd64db,2023-06-16_10h18.47.880,phx_ver10,2022.2.5,Linux x86_64,20.02242512,,,,,space,0.0422,0,21,21,12,1,13,training,zh2x,a,zh2x_a,zh2x_7_axa.wav,,axa.jpg,,,,,,,,,,,,,,,,,,,,,,,,,,,,,,,,,
606a4f1c6e098bf633fd64db,2023-06-16_10h18.47.880,phx_ver10,2022.2.5,Linux x86_64,20.02242512,,,,,space,0.0014,0,22,22,43,1,44,training,zh2x,i,zh2x_i,zh2x_7_ixi.wav,,ixi.jpg,,,,,,,,,,,,,,,,,,,,,,,,,,,,,,,,,
606a4f1c6e098bf633fd64db,2023-06-16_10h18.47.880,phx_ver10,2022.2.5,Linux x86_64,20.02242512,,,,,space,0.1845,0,23,23,6,1,7,training,zh2x,a,zh2x_a,zh2x_3_azha.wav,,azha.jpg,,,,,,,,,,,,,,,,,,,,,,,,,,,,,,,,,
606a4f1c6e098bf633fd64db,2023-06-16_10h18.47.880,phx_ver10,2022.2.5,Linux x86_64,20.02242512,,,,,,,,,,,,,attn_test,,,,zh2x_8_ixi.wav,zh2x_1_ezhe.wav,ixi.jpg,LEFT,,f,0.3632,space,0.8694,0,0,0,0,1,,,,,,,,,,,,,,,,,,,,,,
606a4f1c6e098bf633fd64db,2023-06-16_10h18.47.880,phx_ver10,2022.2.5,Linux x86_64,20.02242512,,,,,space,1.7091,0,24,24,13,1,14,training,zh2x,a,zh2x_a,zh2x_7_axa.wav,,axa.jpg,,,,,,,,,,,,,,,,,,,,,,,,,,,,,,,,,
606a4f1c6e098bf633fd64db,2023-06-16_10h18.47.880,phx_ver10,2022.2.5,Linux x86_64,20.02242512,,,,,space,0.0381,0,25,25,23,1,24,training,zh2x,e,zh2x_e,zh2x_4_ezhe.wav,,ezhe.jpg,,,,,,,,,,,,,,,,,,,,,,,,,,,,,,,,,
606a4f1c6e098bf633fd64db,2023-06-16_10h18.47.880,phx_ver10,2022.2.5,Linux x86_64,20.02242512,,,,,space,0.249,0,26,26,7,1,8,training,zh2x,a,zh2x_a,zh2x_4_azha.wav,,azha.jpg,,,,,,,,,,,,,,,,,,,,,,,,,,,,,,,,,
606a4f1c6e098bf633fd64db,2023-06-16_10h18.47.880,phx_ver10,2022.2.5,Linux x86_64,20.02242512,,,,,space,0.0583,0,27,27,24,1,25,training,zh2x,e,zh2x_e,zh2x_5_exe.wav,,exe.jpg,,,,,,,,,,,,,,,,,,,,,,,,,,,,,,,,,
606a4f1c6e098bf633fd64db,2023-06-16_10h18.47.880,phx_ver10,2022.2.5,Linux x86_64,20.02242512,,,,,space,0.461,0,28,28,1,1,2,training,zh2x,a,zh2x_a,zh2x_2_azha.wav,,azha.jpg,,,,,,,,,,,,,,,,,,,,,,,,,,,,,,,,,
606a4f1c6e098bf633fd64db,2023-06-16_10h18.47.880,phx_ver10,2022.2.5,Linux x86_64,20.02242512,,,,,space,0.0014,0,29,29,11,1,12,training,zh2x,a,zh2x_a,zh2x_7_axa.wav,,axa.jpg,,,,,,,,,,,,,,,,,,,,,,,,,,,,,,,,,
606a4f1c6e098bf633fd64db,2023-06-16_10h18.47.880,phx_ver10,2022.2.5,Linux x86_64,20.02242512,,,,,,,,,,,,,attn_test,,,,zh2x_8_exe.wav,zh2x_1_azha.wav,exe.jpg,LEFT,,f,0.1816,space,0.6499,0,0,0,0,1,,,,,,,,,,,,,,,,,,,,,,
606a4f1c6e098bf633fd64db,2023-06-16_10h18.47.880,phx_ver10,2022.2.5,Linux x86_64,20.02242512,,,,,space,0.471,0,30,30,37,1,38,training,zh2x,i,zh2x_i,zh2x_3_izhi.wav,,izhi.jpg,,,,,,,,,,,,,,,,,,,,,,,,,,,,,,,,,
606a4f1c6e098bf633fd64db,2023-06-16_10h18.47.880,phx_ver10,2022.2.5,Linux x86_64,20.02242512,,,,,space,0.3947,0,31,31,0,1,1,training,zh2x,a,zh2x_a,zh2x_1_azha.wav,,azha.jpg,,,,,,,,,,,,,,,,,,,,,,,,,,,,,,,,,
606a4f1c6e098bf633fd64db,2023-06-16_10h18.47.880,phx_ver10,2022.2.5,Linux x86_64,20.02242512,,,,,space,0.0806,0,32,32,18,1,19,training,zh2x,e,zh2x_e,zh2x_2_ezhe.wav,,ezhe.jpg,,,,,,,,,,,,,,,,,,,,,,,,,,,,,,,,,
606a4f1c6e098bf633fd64db,2023-06-16_10h18.47.880,phx_ver10,2022.2.5,Linux x86_64,20.02242512,,,,,space,0.488,0,33,33,31,1,32,training,zh2x,e,zh2x_e,zh2x_8_exe.wav,,exe.jpg,,,,,,,,,,,,,,,,,,,,,,,,,,,,,,,,,
606a4f1c6e098bf633fd64db,2023-06-16_10h18.47.880,phx_ver10,2022.2.5,Linux x86_64,20.02242512,,,,,space,0.4965,0,34,34,10,1,11,training,zh2x,a,zh2x_a,zh2x_6_axa.wav,,axa.jpg,,,,,,,,,,,,,,,,,,,,,,,,,,,,,,,,,
606a4f1c6e098bf633fd64db,2023-06-16_10h18.47.880,phx_ver10,2022.2.5,Linux x86_64,20.02242512,,,,,space,0.3843,0,35,35,35,1,36,training,zh2x,i,zh2x_i,zh2x_2_izhi.wav,,izhi.jpg,,,,,,,,,,,,,,,,,,,,,,,,,,,,,,,,,
606a4f1c6e098bf633fd64db,2023-06-16_10h18.47.880,phx_ver10,2022.2.5,Linux x86_64,20.02242512,,,,,,,,,,,,,attn_test,,,,zh2x_1_ezhe.wav,zh2x_8_axa.wav,axa.jpg,RIGHT,,j,0.9417,space,1.2359,0,0,0,0,1,,,,,,,,,,,,,,,,,,,,,,
606a4f1c6e098bf633fd64db,2023-06-16_10h18.47.880,phx_ver10,2022.2.5,Linux x86_64,20.02242512,,,,,space,0.1292,0,36,36,40,1,41,training,zh2x,i,zh2x_i,zh2x_5_ixi.wav,,ixi.jpg,,,,,,,,,,,,,,,,,,,,,,,,,,,,,,,,,
606a4f1c6e098bf633fd64db,2023-06-16_10h18.47.880,phx_ver10,2022.2.5,Linux x86_64,20.02242512,,,,,space,0.6552,0,37,37,3,1,4,training,zh2x,a,zh2x_a,zh2x_2_azha.wav,,azha.jpg,,,,,,,,,,,,,,,,,,,,,,,,,,,,,,,,,
606a4f1c6e098bf633fd64db,2023-06-16_10h18.47.880,phx_ver10,2022.2.5,Linux x86_64,20.02242512,,,,,space,0.3457,0,38,38,21,1,22,training,zh2x,e,zh2x_e,zh2x_3_ezhe.wav,,ezhe.jpg,,,,,,,,,,,,,,,,,,,,,,,,,,,,,,,,,
606a4f1c6e098bf633fd64db,2023-06-16_10h18.47.880,phx_ver10,2022.2.5,Linux x86_64,20.02242512,,,,,space,0.0011,0,39,39,41,1,42,training,zh2x,i,zh2x_i,zh2x_6_ixi.wav,,ixi.jpg,,,,,,,,,,,,,,,,,,,,,,,,,,,,,,,,,
606a4f1c6e098bf633fd64db,2023-06-16_10h18.47.880,phx_ver10,2022.2.5,Linux x86_64,20.02242512,,,,,space,0.0655,0,40,40,28,1,29,training,zh2x,e,zh2x_e,zh2x_7_exe.wav,,exe.jpg,,,,,,,,,,,,,,,,,,,,,,,,,,,,,,,,,
606a4f1c6e098bf633fd64db,2023-06-16_10h18.47.880,phx_ver10,2022.2.5,Linux x86_64,20.02242512,,,,,space,0.388,0,41,41,8,1,9,training,zh2x,a,zh2x_a,zh2x_5_axa.wav,,axa.jpg,,,,,,,,,,,,,,,,,,,,,,,,,,,,,,,,,
606a4f1c6e098bf633fd64db,2023-06-16_10h18.47.880,phx_ver10,2022.2.5,Linux x86_64,20.02242512,,,,,,,,,,,,,attn_test,,,,zh2x_1_azha.wav,zh2x_1_ezhe.wav,ezhe.jpg,RIGHT,,j,0.4185,space,0.7022,0,0,0,0,1,,,,,,,,,,,,,,,,,,,,,,
606a4f1c6e098bf633fd64db,2023-06-16_10h18.47.880,phx_ver10,2022.2.5,Linux x86_64,20.02242512,,,,,space,0.1768,0,42,42,44,1,45,training,zh2x,i,zh2x_i,zh2x_7_ixi.wav,,ixi.jpg,,,,,,,,,,,,,,,,,,,,,,,,,,,,,,,,,
606a4f1c6e098bf633fd64db,2023-06-16_10h18.47.880,phx_ver10,2022.2.5,Linux x86_64,20.02242512,,,,,space,0.5783,0,43,43,16,1,17,training,zh2x,e,zh2x_e,zh2x_1_ezhe.wav,,ezhe.jpg,,,,,,,,,,,,,,,,,,,,,,,,,,,,,,,,,
606a4f1c6e098bf633fd64db,2023-06-16_10h18.47.880,phx_ver10,2022.2.5,Linux x86_64,20.02242512,,,,,space,2.4819,0,44,44,9,1,10,training,zh2x,a,zh2x_a,zh2x_6_axa.wav,,axa.jpg,,,,,,,,,,,,,,,,,,,,,,,,,,,,,,,,,
606a4f1c6e098bf633fd64db,2023-06-16_10h18.47.880,phx_ver10,2022.2.5,Linux x86_64,20.02242512,,,,,space,0.543,0,45,45,26,1,27,training,zh2x,e,zh2x_e,zh2x_6_exe.wav,,exe.jpg,,,,,,,,,,,,,,,,,,,,,,,,,,,,,,,,,
606a4f1c6e098bf633fd64db,2023-06-16_10h18.47.880,phx_ver10,2022.2.5,Linux x86_64,20.02242512,,,,,space,0.199,0,46,46,15,1,16,training,zh2x,a,zh2x_a,zh2x_8_axa.wav,,axa.jpg,,,,,,,,,,,,,,,,,,,,,,,,,,,,,,,,,
606a4f1c6e098bf633fd64db,2023-06-16_10h18.47.880,phx_ver10,2022.2.5,Linux x86_64,20.02242512,,,,,space,0.001,0,47,47,45,1,46,training,zh2x,i,zh2x_i,zh2x_7_ixi.wav,,ixi.jpg,,,,,,,,,,,,,,,,,,,,,,,,,,,,,,,,,
606a4f1c6e098bf633fd64db,2023-06-16_10h18.47.880,phx_ver10,2022.2.5,Linux x86_64,20.02242512,,,,,,,,,,,,,attn_test,,,,zh2x_8_axa.wav,zh2x_8_ixi.wav,axa.jpg,LEFT,,f,0.1062,space,0.5024,,,,,,,,,,,,,,,,,,,,,,,,,,,
606a4f1c6e098bf633fd64db,2023-06-16_10h18.47.880,phx_ver10,2022.2.5,Linux x86_64,20.02242512,,,,,,,,,,,,,,,,,,,,,,,,,,,,,,,space,0.9933,,,,,,,,,,,,,,,,,,,,
606a4f1c6e098bf633fd64db,2023-06-16_10h18.47.880,phx_ver10,2022.2.5,Linux x86_64,20.02242512,,,,,,,,,,,,,,,,,,,,,,,,,,,,,,,,,space,7.2938,,,,,,,,,,,,,,,,,,
606a4f1c6e098bf633fd64db,2023-06-16_10h18.47.880,phx_ver10,2022.2.5,Linux x86_64,20.02242512,,,,,,,,,,,,5,testing_pre,,,,ihi.wav,ifi.wav,,FALSE,,,,,,,,,,,,,,,j,1.8848,space,2.3109,0,0,0,4,1,,,,,,,,,
606a4f1c6e098bf633fd64db,2023-06-16_10h18.47.880,phx_ver10,2022.2.5,Linux x86_64,20.02242512,,,,,,,,,,,,1,testing_pre,,,,ifi.wav,ifi.wav,,TRUE,,,,,,,,,,,,,,,f,0.6311,space,1.0771,0,1,1,0,1,,,,,,,,,
606a4f1c6e098bf633fd64db,2023-06-16_10h18.47.880,phx_ver10,2022.2.5,Linux x86_64,20.02242512,,,,,,,,,,,,4,testing_pre,,,,eihei.wav,eihei.wav,,TRUE,,,,,,,,,,,,,,,f,0.3407,space,0.6853,0,2,2,3,1,,,,,,,,,
606a4f1c6e098bf633fd64db,2023-06-16_10h18.47.880,phx_ver10,2022.2.5,Linux x86_64,20.02242512,,,,,,,,,,,,2,testing_pre,,,,auhau.wav,aufau.wav,,FALSE,,,,,,,,,,,,,,,j,0.1679,space,0.4996,0,3,3,1,1,,,,,,,,,
606a4f1c6e098bf633fd64db,2023-06-16_10h18.47.880,phx_ver10,2022.2.5,Linux x86_64,20.02242512,,,,,,,,,,,,3,testing_pre,,,,afa.wav,aha.wav,,FALSE,,,,,,,,,,,,,,,j,0.188,space,0.5723,0,4,4,2,1,,,,,,,,,
606a4f1c6e098bf633fd64db,2023-06-16_10h18.47.880,phx_ver10,2022.2.5,Linux x86_64,20.02242512,,,,,,,,,,,,,,,,,,,,,,,,,,,,,,,,,,,,,,,,,,,,space,1.754,,,,,,,
606a4f1c6e098bf633fd64db,2023-06-16_10h18.47.880,phx_ver10,2022.2.5,Linux x86_64,20.02242512,,,,,,,,,,,,14,testing_2,zh2x,ai,zh2x_ai,zh2x_8_aixai.wav,zh2x_8_aixai.wav,,TRUE,FALSE,,,,,,,,,,,,,,f,1.8423,space,2.1793,,,,,,,,0,0,0,13,1,,
606a4f1c6e098bf633fd64db,2023-06-16_10h18.47.880,phx_ver10,2022.2.5,Linux x86_64,20.02242512,,,,,,,,,,,,24,testing_2,zh2x,ei,zh2x_ei,zh2x_8_eixei.wav,zh2x_1_eizhei.wav,,FALSE,FALSE,,,,,,,,,,,,,,j,0.1538,space,0.5359,,,,,,,,0,1,1,23,1,,
606a4f1c6e098bf633fd64db,2023-06-16_10h18.47.880,phx_ver10,2022.2.5,Linux x86_64,20.02242512,,,,,,,,,,,,75,testing_3,j2x,a,j2x_a,j2x_1_aja.wav,j2x_8_axa.wav,,FALSE,FALSE,,,,,,,,,,,,,,j,0.6988,space,1.0444,,,,,,,,0,2,2,74,1,,
606a4f1c6e098bf633fd64db,2023-06-16_10h18.47.880,phx_ver10,2022.2.5,Linux x86_64,20.02242512,,,,,,,,,,,,100,testing_3,sh2x,a,sh2x_a,sh2x_8_axa.wav,sh2x_1_asha.wav,,FALSE,FALSE,,,,,,,,,,,,,,f,0.5999,space,0.8829,,,,,,,,0,3,3,99,1,,
606a4f1c6e098bf633fd64db,2023-06-16_10h18.47.880,phx_ver10,2022.2.5,Linux x86_64,20.02242512,,,,,,,,,,,,81,testing_3,j2x,au,j2x_au,j2x_1_aujau.wav,j2x_1_aujau.wav,,TRUE,FALSE,,,,,,,,,,,,,,f,0.3653,space,0.8681,,,,,,,,0,4,4,80,1,,
606a4f1c6e098bf633fd64db,2023-06-16_10h18.47.880,phx_ver10,2022.2.5,Linux x86_64,20.02242512,,,,,,,,,,,,67,testing_3,zh2j,ei,zh2j_ei,zh2j_1_eizhei.wav,zh2j_8_eijei.wav,,FALSE,FALSE,,,,,,,,,,,,,,f,0.4159,space,0.6814,,,,,,,,0,5,5,66,1,,
606a4f1c6e098bf633fd64db,2023-06-16_10h18.47.880,phx_ver10,2022.2.5,Linux x86_64,20.02242512,,,,,,,,,,,,97,testing_3,sh2x,a,sh2x_a,sh2x_1_asha.wav,sh2x_1_asha.wav,,TRUE,FALSE,,,,,,,,,,,,,,f,0.2798,space,0.6966,,,,,,,,0,6,6,96,1,,
606a4f1c6e098bf633fd64db,2023-06-16_10h18.47.880,phx_ver10,2022.2.5,Linux x86_64,20.02242512,,,,,,,,,,,,92,testing_3,j2x,ei,j2x_ei,j2x_8_eixei.wav,j2x_1_eijei.wav,,FALSE,FALSE,,,,,,,,,,,,,,j,0.124,space,0.4417,,,,,,,,0,7,7,91,1,,
606a4f1c6e098bf633fd64db,2023-06-16_10h18.47.880,phx_ver10,2022.2.5,Linux x86_64,20.02242512,,,,,,,,,,,,51,testing_3,zh2j,a,zh2j_a,zh2j_1_azha.wav,zh2j_8_aja.wav,,FALSE,FALSE,,,,,,,,,,,,,,f,0.3553,space,0.6535,,,,,,,,0,8,8,50,1,,
606a4f1c6e098bf633fd64db,2023-06-16_10h18.47.880,phx_ver10,2022.2.5,Linux x86_64,20.02242512,,,,,,,,,,,,64,testing_3,zh2j,e,zh2j_e,zh2j_8_eje.wav,zh2j_1_ezhe.wav,,FALSE,FALSE,,,,,,,,,,,,,,f,0.4539,space,0.8506,,,,,,,,0,9,9,63,1,,
606a4f1c6e098bf633fd64db,2023-06-16_10h18.47.880,phx_ver10,2022.2.5,Linux x86_64,20.02242512,,,,,,,,,,,,2,testing_1,zh2x,a,zh2x_a,zh2x_8_axa.wav,zh2x_8_axa_copy.wav,,TRUE,TRUE,,,,,,,,,,,,,,f,0.0722,space,0.3404,,,,,,,,0,10,10,1,1,,
606a4f1c6e098bf633fd64db,2023-06-16_10h18.47.880,phx_ver10,2022.2.5,Linux x86_64,20.02242512,,,,,,,,,,,,34,testing_3,zh2sh,au,zh2sh_au,zh2sh_8_aushau.wav,zh2sh_8_aushau.wav,,TRUE,FALSE,,,,,,,,,,,,,,f,0.2004,space,0.4541,,,,,,,,0,11,11,33,1,,
606a4f1c6e098bf633fd64db,2023-06-16_10h18.47.880,phx_ver10,2022.2.5,Linux x86_64,20.02242512,,,,,,,,,,,,12,testing_1,zh2x,i,zh2x_i,zh2x_8_ixi.wav,zh2x_1_izhi.wav,,FALSE,TRUE,,,,,,,,,,,,,,j,0.3548,space,1.3173,,,,,,,,0,12,12,11,1,,
606a4f1c6e098bf633fd64db,2023-06-16_10h18.47.880,phx_ver10,2022.2.5,Linux x86_64,20.02242512,,,,,,,,,,,,80,testing_3,j2x,ai,j2x_ai,j2x_8_aixai.wav,j2x_1_aijai.wav,,FALSE,FALSE,,,,,,,,,,,,,,j,0.6482,space,0.9791,,,,,,,,0,13,13,79,1,,
606a4f1c6e098bf633fd64db,2023-06-16_10h18.47.880,phx_ver10,2022.2.5,Linux x86_64,20.02242512,,,,,,,,,,,,26,testing_3,zh2sh,a,zh2sh_a,zh2sh_8_asha.wav,zh2sh_8_asha.wav,,TRUE,FALSE,,,,,,,,,,,,,,f,0.2299,space,0.5406,,,,,,,,0,14,14,25,1,,
606a4f1c6e098bf633fd64db,2023-06-16_10h18.47.880,phx_ver10,2022.2.5,Linux x86_64,20.02242512,,,,,,,,,,,,68,testing_3,zh2j,ei,zh2j_ei,zh2j_8_eijei.wav,zh2j_1_eizhei.wav,,FALSE,FALSE,,,,,,,,,,,,,,f,0.2198,space,0.4864,,,,,,,,0,15,15,67,1,,
606a4f1c6e098bf633fd64db,2023-06-16_10h18.47.880,phx_ver10,2022.2.5,Linux x86_64,20.02242512,,,,,,,,,,,,39,testing_3,zh2sh,e,zh2sh_e,zh2sh_1_ezhe.wav,zh2sh_8_eshe.wav,,FALSE,FALSE,,,,,,,,,,,,,,j,0.5375,space,0.7869,,,,,,,,0,16,16,38,1,,
606a4f1c6e098bf633fd64db,2023-06-16_10h18.47.880,phx_ver10,2022.2.5,Linux x86_64,20.02242512,,,,,,,,,,,,88,testing_3,j2x,e,j2x_e,j2x_8_exe.wav,j2x_1_eje.wav,,FALSE,FALSE,,,,,,,,,,,,,,j,1.374,space,1.6559,,,,,,,,0,17,17,87,1,,
606a4f1c6e098bf633fd64db,2023-06-16_10h18.47.880,phx_ver10,2022.2.5,Linux x86_64,20.02242512,,,,,,,,,,,,56,testing_3,zh2j,ai,zh2j_ai,zh2j_8_aijai.wav,zh2j_1_aizhai.wav,,FALSE,FALSE,,,,,,,,,,,,,,f,0.3014,space,0.6234,,,,,,,,0,18,18,55,1,,
606a4f1c6e098bf633fd64db,2023-06-16_10h18.47.880,phx_ver10,2022.2.5,Linux x86_64,20.02242512,,,,,,,,,,,,10,testing_1,zh2x,i,zh2x_i,zh2x_8_ixi.wav,zh2x_8_ixi_copy.wav,,TRUE,TRUE,,,,,,,,,,,,,,f,0.6867,space,1.0205,,,,,,,,0,19,19,9,1,,
606a4f1c6e098bf633fd64db,2023-06-16_10h18.47.880,phx_ver10,2022.2.5,Linux x86_64,20.02242512,,,,,,,,,,,,19,testing_2,zh2x,au,zh2x_au,zh2x_1_auzhau.wav,zh2x_8_auxau.wav,,FALSE,FALSE,,,,,,,,,,,,,,j,0.2188,space,0.4997,,,,,,,,0,20,20,18,1,,
606a4f1c6e098bf633fd64db,2023-06-16_10h18.47.880,phx_ver10,2022.2.5,Linux x86_64,20.02242512,,,,,,,,,,,,128,testing_3,sh2j,ai,sh2j_ai,sh2j_8_aijai.wav,sh2j_1_aishai.wav,,FALSE,FALSE,,,,,,,,,,,,,,j,0.3305,space,0.6851,,,,,,,,0,21,21,127,1,,
606a4f1c6e098bf633fd64db,2023-06-16_10h18.47.880,phx_ver10,2022.2.5,Linux x86_64,20.02242512,,,,,,,,,,,,32,testing_3,zh2sh,ai,zh2sh_ai,zh2sh_8_aishai.wav,zh2sh_1_aizhai.wav,,FALSE,FALSE,,,,,,,,,,,,,,j,5.0436,space,5.2076,,,,,,,,0,22,22,31,1,,
606a4f1c6e098bf633fd64db,2023-06-16_10h18.47.880,phx_ver10,2022.2.5,Linux x86_64,20.02242512,,,,,,,,,,,,91,testing_3,j2x,ei,j2x_ei,j2x_1_eijei.wav,j2x_8_eixei.wav,,FALSE,FALSE,,,,,,,,,,,,,,j,0.1825,space,0.4032,,,,,,,,0,23,23,90,1,,
606a4f1c6e098bf633fd64db,2023-06-16_10h18.47.880,phx_ver10,2022.2.5,Linux x86_64,20.02242512,,,,,,,,,,,,27,testing_3,zh2sh,a,zh2sh_a,zh2sh_1_azha.wav,zh2sh_8_asha.wav,,FALSE,FALSE,,,,,,,,,,,,,,j,0.1674,space,0.4303,,,,,,,,0,24,24,26,1,,
606a4f1c6e098bf633fd64db,2023-06-16_10h18.47.880,phx_ver10,2022.2.5,Linux x86_64,20.02242512,,,,,,,,,,,,31,testing_3,zh2sh,ai,zh2sh_ai,zh2sh_1_aizhai.wav,zh2sh_8_aishai.wav,,FALSE,FALSE,,,,,,,,,,,,,,j,0.1552,space,0.4003,,,,,,,,0,25,25,30,1,,
606a4f1c6e098bf633fd64db,2023-06-16_10h18.47.880,phx_ver10,2022.2.5,Linux x86_64,20.02242512,,,,,,,,,,,,87,testing_3,j2x,e,j2x_e,j2x_1_eje.wav,j2x_8_exe.wav,,FALSE,FALSE,,,,,,,,,,,,,,j,0.3191,space,0.5068,,,,,,,,0,26,26,86,1,,
606a4f1c6e098bf633fd64db,2023-06-16_10h18.47.880,phx_ver10,2022.2.5,Linux x86_64,20.02242512,,,,,,,,,,,,47,testing_3,zh2sh,i,zh2sh_i,zh2sh_1_izhi.wav,zh2sh_8_ishi.wav,,FALSE,FALSE,,,,,,,,,,,,,,j,0.7015,space,0.9292,,,,,,,,0,27,27,46,1,,
606a4f1c6e098bf633fd64db,2023-06-16_10h18.47.880,phx_ver10,2022.2.5,Linux x86_64,20.02242512,,,,,,,,,,,,117,testing_3,sh2x,i,sh2x_i,sh2x_1_ishi.wav,sh2x_1_ishi.wav,,TRUE,FALSE,,,,,,,,,,,,,,f,0.5027,space,0.7245,,,,,,,,0,28,28,116,1,,
606a4f1c6e098bf633fd64db,2023-06-16_10h18.47.880,phx_ver10,2022.2.5,Linux x86_64,20.02242512,,,,,,,,,,,,44,testing_3,zh2sh,ei,zh2sh_ei,zh2sh_8_eishei.wav,zh2sh_1_eizhei.wav,,FALSE,FALSE,,,,,,,,,,,,,,j,0.1196,space,0.3186,,,,,,,,0,29,29,43,1,,
606a4f1c6e098bf633fd64db,2023-06-16_10h18.47.880,phx_ver10,2022.2.5,Linux x86_64,20.02242512,,,,,,,,,,,,62,testing_3,zh2j,e,zh2j_e,zh2j_8_eje.wav,zh2j_8_eje.wav,,TRUE,FALSE,,,,,,,,,,,,,,f,0.3004,space,0.5475,,,,,,,,0,30,30,61,1,,
606a4f1c6e098bf633fd64db,2023-06-16_10h18.47.880,phx_ver10,2022.2.5,Linux x86_64,20.02242512,,,,,,,,,,,,77,testing_3,j2x,ai,j2x_ai,j2x_1_aijai.wav,j2x_1_aijai.wav,,TRUE,FALSE,,,,,,,,,,,,,,f,0.2849,space,0.5311,,,,,,,,0,31,31,76,1,,
606a4f1c6e098bf633fd64db,2023-06-16_10h18.47.880,phx_ver10,2022.2.5,Linux x86_64,20.02242512,,,,,,,,,,,,13,testing_2,zh2x,ai,zh2x_ai,zh2x_1_aizhai.wav,zh2x_1_aizhai.wav,,TRUE,FALSE,,,,,,,,,,,,,,f,1.2063,space,1.5508,,,,,,,,0,32,32,12,1,,
606a4f1c6e098bf633fd64db,2023-06-16_10h18.47.880,phx_ver10,2022.2.5,Linux x86_64,20.02242512,,,,,,,,,,,,113,testing_3,sh2x,ei,sh2x_ei,sh2x_1_eishei.wav,sh2x_1_eishei.wav,,TRUE,FALSE,,,,,,,,,,,,,,f,0.1865,space,0.5352,,,,,,,,0,33,33,112,1,,
606a4f1c6e098bf633fd64db,2023-06-16_10h18.47.880,phx_ver10,2022.2.5,Linux x86_64,20.02242512,,,,,,,,,,,,60,testing_3,zh2j,au,zh2j_au,zh2j_8_aujau.wav,zh2j_1_auzhau.wav,,FALSE,FALSE,,,,,,,,,,,,,,f,1.154,space,1.4655,,,,,,,,0,34,34,59,1,,
606a4f1c6e098bf633fd64db,2023-06-16_10h18.47.880,phx_ver10,2022.2.5,Linux x86_64,20.02242512,,,,,,,,,,,,133,testing_3,sh2j,e,sh2j_e,sh2j_1_eshe.wav,sh2j_1_eshe.wav,,TRUE,FALSE,,,,,,,,,,,,,,f,0.0469,space,0.2187,,,,,,,,0,35,35,132,1,,
606a4f1c6e098bf633fd64db,2023-06-16_10h18.47.880,phx_ver10,2022.2.5,Linux x86_64,20.02242512,,,,,,,,,,,,71,testing_3,zh2j,i,zh2j_i,zh2j_1_izhi.wav,zh2j_8_iji.wav,,FALSE,FALSE,,,,,,,,,,,,,,f,0.3144,space,0.4459,,,,,,,,0,36,36,70,1,,
606a4f1c6e098bf633fd64db,2023-06-16_10h18.47.880,phx_ver10,2022.2.5,Linux x86_64,20.02242512,,,,,,,,,,,,95,testing_3,j2x,i,j2x_i,j2x_1_iji.wav,j2x_8_ixi.wav,,FALSE,FALSE,,,,,,,,,,,,,,j,0.2713,space,0.4177,,,,,,,,0,37,37,94,1,,
606a4f1c6e098bf633fd64db,2023-06-16_10h18.47.880,phx_ver10,2022.2.5,Linux x86_64,20.02242512,,,,,,,,,,,,137,testing_3,sh2j,ei,sh2j_ei,sh2j_1_eishei.wav,sh2j_1_eishei.wav,,TRUE,FALSE,,,,,,,,,,,,,,f,0.1632,space,0.3408,,,,,,,,0,38,38,136,1,,
606a4f1c6e098bf633fd64db,2023-06-16_10h18.47.880,phx_ver10,2022.2.5,Linux x86_64,20.02242512,,,,,,,,,,,,6,testing_1,zh2x,e,zh2x_e,zh2x_8_exe.wav,zh2x_8_exe_copy.wav,,TRUE,TRUE,,,,,,,,,,,,,,f,0.024,space,0.4026,,,,,,,,0,39,39,5,1,,
606a4f1c6e098bf633fd64db,2023-06-16_10h18.47.880,phx_ver10,2022.2.5,Linux x86_64,20.02242512,,,,,,,,,,,,112,testing_3,sh2x,e,sh2x_e,sh2x_8_exe.wav,sh2x_1_eshe.wav,,FALSE,FALSE,,,,,,,,,,,,,,f,0.8133,space,1.1591,,,,,,,,0,40,40,111,1,,
606a4f1c6e098bf633fd64db,2023-06-16_10h18.47.880,phx_ver10,2022.2.5,Linux x86_64,20.02242512,,,,,,,,,,,,142,testing_3,sh2j,i,sh2j_i,sh2j_8_iji.wav,sh2j_8_iji.wav,,TRUE,FALSE,,,,,,,,,,,,,,f,0.5335,space,0.8394,,,,,,,,0,41,41,141,1,,
606a4f1c6e098bf633fd64db,2023-06-16_10h18.47.880,phx_ver10,2022.2.5,Linux x86_64,20.02242512,,,,,,,,,,,,30,testing_3,zh2sh,ai,zh2sh_ai,zh2sh_8_aishai.wav,zh2sh_8_aishai.wav,,TRUE,FALSE,,,,,,,,,,,,,,f,0.0349,space,0.285,,,,,,,,0,42,42,29,1,,
606a4f1c6e098bf633fd64db,2023-06-16_10h18.47.880,phx_ver10,2022.2.5,Linux x86_64,20.02242512,,,,,,,,,,,,33,testing_3,zh2sh,au,zh2sh_au,zh2sh_1_auzhau.wav,zh2sh_1_auzhau.wav,,TRUE,FALSE,,,,,,,,,,,,,,f,0.1518,space,0.3727,,,,,,,,0,43,43,32,1,,
606a4f1c6e098bf633fd64db,2023-06-16_10h18.47.880,phx_ver10,2022.2.5,Linux x86_64,20.02242512,,,,,,,,,,,,29,testing_3,zh2sh,ai,zh2sh_ai,zh2sh_1_aizhai.wav,zh2sh_1_aizhai.wav,,TRUE,FALSE,,,,,,,,,,,,,,f,0.0698,space,0.2585,,,,,,,,0,44,44,28,1,,
606a4f1c6e098bf633fd64db,2023-06-16_10h18.47.880,phx_ver10,2022.2.5,Linux x86_64,20.02242512,,,,,,,,,,,,11,testing_1,zh2x,i,zh2x_i,zh2x_1_izhi.wav,zh2x_8_ixi.wav,,FALSE,TRUE,,,,,,,,,,,,,,j,0.1166,space,0.2648,,,,,,,,0,45,45,10,1,,
606a4f1c6e098bf633fd64db,2023-06-16_10h18.47.880,phx_ver10,2022.2.5,Linux x86_64,20.02242512,,,,,,,,,,,,8,testing_1,zh2x,e,zh2x_e,zh2x_8_exe.wav,zh2x_1_ezhe.wav,,FALSE,TRUE,,,,,,,,,,,,,,j,0.6241,space,0.8028,,,,,,,,0,46,46,7,1,,
606a4f1c6e098bf633fd64db,2023-06-16_10h18.47.880,phx_ver10,2022.2.5,Linux x86_64,20.02242512,,,,,,,,,,,,89,testing_3,j2x,ei,j2x_ei,j2x_1_eijei.wav,j2x_1_eijei.wav,,TRUE,FALSE,,,,,,,,,,,,,,f,0.092,space,0.252,,,,,,,,0,47,47,88,1,,
606a4f1c6e098bf633fd64db,2023-06-16_10h18.47.880,phx_ver10,2022.2.5,Linux x86_64,20.02242512,,,,,,,,,,,,126,testing_3,sh2j,ai,sh2j_ai,sh2j_8_aijai.wav,sh2j_8_aijai.wav,,TRUE,FALSE,,,,,,,,,,,,,,f,0.0557,space,0.1899,,,,,,,,0,48,48,125,1,,
606a4f1c6e098bf633fd64db,2023-06-16_10h18.47.880,phx_ver10,2022.2.5,Linux x86_64,20.02242512,,,,,,,,,,,,4,testing_1,zh2x,a,zh2x_a,zh2x_8_axa.wav,zh2x_1_azha.wav,,FALSE,TRUE,,,,,,,,,,,,,,j,0.9055,space,1.209,,,,,,,,0,49,49,3,1,,
606a4f1c6e098bf633fd64db,2023-06-16_10h18.47.880,phx_ver10,2022.2.5,Linux x86_64,20.02242512,,,,,,,,,,,,98,testing_3,sh2x,a,sh2x_a,sh2x_8_axa.wav,sh2x_8_axa.wav,,TRUE,FALSE,,,,,,,,,,,,,,f,0.7337,space,1.0516,,,,,,,,0,50,50,97,1,,
606a4f1c6e098bf633fd64db,2023-06-16_10h18.47.880,phx_ver10,2022.2.5,Linux x86_64,20.02242512,,,,,,,,,,,,40,testing_3,zh2sh,e,zh2sh_e,zh2sh_8_eshe.wav,zh2sh_1_ezhe.wav,,FALSE,FALSE,,,,,,,,,,,,,,j,0.7084,space,0.8894,,,,,,,,0,51,51,39,1,,
606a4f1c6e098bf633fd64db,2023-06-16_10h18.47.880,phx_ver10,2022.2.5,Linux x86_64,20.02242512,,,,,,,,,,,,135,testing_3,sh2j,e,sh2j_e,sh2j_1_eshe.wav,sh2j_8_eje.wav,,FALSE,FALSE,,,,,,,,,,,,,,j,0.4841,space,0.7672,,,,,,,,0,52,52,134,1,,
606a4f1c6e098bf633fd64db,2023-06-16_10h18.47.880,phx_ver10,2022.2.5,Linux x86_64,20.02242512,,,,,,,,,,,,106,testing_3,sh2x,au,sh2x_au,sh2x_8_auxau.wav,sh2x_8_auxau.wav,,TRUE,FALSE,,,,,,,,,,,,,,f,0.1573,space,0.4642,,,,,,,,0,53,53,105,1,,
606a4f1c6e098bf633fd64db,2023-06-16_10h18.47.880,phx_ver10,2022.2.5,Linux x86_64,20.02242512,,,,,,,,,,,,132,testing_3,sh2j,au,sh2j_au,sh2j_8_aujau.wav,sh2j_1_aushau.wav,,FALSE,FALSE,,,,,,,,,,,,,,j,0.427,space,0.6524,,,,,,,,0,54,54,131,1,,
606a4f1c6e098bf633fd64db,2023-06-16_10h18.47.880,phx_ver10,2022.2.5,Linux x86_64,20.02242512,,,,,,,,,,,,74,testing_3,j2x,a,j2x_a,j2x_8_axa.wav,j2x_8_axa.wav,,TRUE,FALSE,,,,,,,,,,,,,,f,0.1678,space,0.4165,,,,,,,,0,55,55,73,1,,
606a4f1c6e098bf633fd64db,2023-06-16_10h18.47.880,phx_ver10,2022.2.5,Linux x86_64,20.02242512,,,,,,,,,,,,143,testing_3,sh2j,i,sh2j_i,sh2j_1_ishi.wav,sh2j_8_iji.wav,,FALSE,FALSE,,,,,,,,,,,,,,j,0.3511,space,0.719,,,,,,,,0,56,56,142,1,,
606a4f1c6e098bf633fd64db,2023-06-16_10h18.47.880,phx_ver10,2022.2.5,Linux x86_64,20.02242512,,,,,,,,,,,,116,testing_3,sh2x,ei,sh2x_ei,sh2x_8_eixei.wav,sh2x_1_eishei.wav,,FALSE,FALSE,,,,,,,,,,,,,,f,0.0513,space,0.2566,,,,,,,,0,57,57,115,1,,
606a4f1c6e098bf633fd64db,2023-06-16_10h18.47.880,phx_ver10,2022.2.5,Linux x86_64,20.02242512,,,,,,,,,,,,96,testing_3,j2x,i,j2x_i,j2x_8_ixi.wav,j2x_1_iji.wav,,FALSE,FALSE,,,,,,,,,,,,,,j,0.0222,space,0.2992,,,,,,,,0,58,58,95,1,,
606a4f1c6e098bf633fd64db,2023-06-16_10h18.47.880,phx_ver10,2022.2.5,Linux x86_64,20.02242512,,,,,,,,,,,,17,testing_2,zh2x,au,zh2x_au,zh2x_1_auzhau.wav,zh2x_1_auzhau.wav,,TRUE,FALSE,,,,,,,,,,,,,,f,0.0016,space,0.1727,,,,,,,,0,59,59,16,1,,
606a4f1c6e098bf633fd64db,2023-06-16_10h18.47.880,phx_ver10,2022.2.5,Linux x86_64,20.02242512,,,,,,,,,,,,109,testing_3,sh2x,e,sh2x_e,sh2x_1_eshe.wav,sh2x_1_eshe.wav,,TRUE,FALSE,,,,,,,,,,,,,,f,0.0822,space,0.2939,,,,,,,,0,60,60,108,1,,
606a4f1c6e098bf633fd64db,2023-06-16_10h18.47.880,phx_ver10,2022.2.5,Linux x86_64,20.02242512,,,,,,,,,,,,45,testing_3,zh2sh,i,zh2sh_i,zh2sh_1_izhi.wav,zh2sh_1_izhi.wav,,TRUE,FALSE,,,,,,,,,,,,,,f,0.8123,space,1.0115,,,,,,,,0,61,61,44,1,,
606a4f1c6e098bf633fd64db,2023-06-16_10h18.47.880,phx_ver10,2022.2.5,Linux x86_64,20.02242512,,,,,,,,,,,,110,testing_3,sh2x,e,sh2x_e,sh2x_8_exe.wav,sh2x_8_exe.wav,,TRUE,FALSE,,,,,,,,,,,,,,f,0.0051,space,0.2614,,,,,,,,0,62,62,109,1,,
606a4f1c6e098bf633fd64db,2023-06-16_10h18.47.880,phx_ver10,2022.2.5,Linux x86_64,20.02242512,,,,,,,,,,,,122,testing_3,sh2j,a,sh2j_a,sh2j_8_aja.wav,sh2j_8_aja.wav,,TRUE,FALSE,,,,,,,,,,,,,,f,0.7647,space,1.0276,,,,,,,,0,63,63,121,1,,
606a4f1c6e098bf633fd64db,2023-06-16_10h18.47.880,phx_ver10,2022.2.5,Linux x86_64,20.02242512,,,,,,,,,,,,120,testing_3,sh2x,i,sh2x_i,sh2x_8_ixi.wav,sh2x_1_ishi.wav,,FALSE,FALSE,,,,,,,,,,,,,,j,0.5673,space,0.9348,,,,,,,,0,64,64,119,1,,
606a4f1c6e098bf633fd64db,2023-06-16_10h18.47.880,phx_ver10,2022.2.5,Linux x86_64,20.02242512,,,,,,,,,,,,52,testing_3,zh2j,a,zh2j_a,zh2j_8_aja.wav,zh2j_1_azha.wav,,FALSE,FALSE,,,,,,,,,,,,,,f,0.1594,space,0.4982,,,,,,,,0,65,65,51,1,,
606a4f1c6e098bf633fd64db,2023-06-16_10h18.47.880,phx_ver10,2022.2.5,Linux x86_64,20.02242512,,,,,,,,,,,,59,testing_3,zh2j,au,zh2j_au,zh2j_1_auzhau.wav,zh2j_8_aujau.wav,,FALSE,FALSE,,,,,,,,,,,,,,j,0.7412,space,1.0176,,,,,,,,0,66,66,58,1,,
606a4f1c6e098bf633fd64db,2023-06-16_10h18.47.880,phx_ver10,2022.2.5,Linux x86_64,20.02242512,,,,,,,,,,,,57,testing_3,zh2j,au,zh2j_au,zh2j_1_auzhau.wav,zh2j_1_auzhau.wav,,TRUE,FALSE,,,,,,,,,,,,,,f,0.1642,space,0.5321,,,,,,,,0,67,67,56,1,,
606a4f1c6e098bf633fd64db,2023-06-16_10h18.47.880,phx_ver10,2022.2.5,Linux x86_64,20.02242512,,,,,,,,,,,,70,testing_3,zh2j,i,zh2j_i,zh2j_8_iji.wav,zh2j_8_iji.wav,,TRUE,FALSE,,,,,,,,,,,,,,f,1.6353,space,1.8717,,,,,,,,0,68,68,69,1,,
606a4f1c6e098bf633fd64db,2023-06-16_10h18.47.880,phx_ver10,2022.2.5,Linux x86_64,20.02242512,,,,,,,,,,,,36,testing_3,zh2sh,au,zh2sh_au,zh2sh_8_aushau.wav,zh2sh_1_auzhau.wav,,FALSE,FALSE,,,,,,,,,,,,,,j,0.151,space,0.3978,,,,,,,,0,69,69,35,1,,
606a4f1c6e098bf633fd64db,2023-06-16_10h18.47.880,phx_ver10,2022.2.5,Linux x86_64,20.02242512,,,,,,,,,,,,54,testing_3,zh2j,ai,zh2j_ai,zh2j_8_aijai.wav,zh2j_8_aijai.wav,,TRUE,FALSE,,,,,,,,,,,,,,f,0.4035,space,0.7336,,,,,,,,0,70,70,53,1,,
606a4f1c6e098bf633fd64db,2023-06-16_10h18.47.880,phx_ver10,2022.2.5,Linux x86_64,20.02242512,,,,,,,,,,,,103,testing_3,sh2x,ai,sh2x_ai,sh2x_1_aishai.wav,sh2x_8_aixai.wav,,FALSE,FALSE,,,,,,,,,,,,,,f,0.0874,space,0.34,,,,,,,,0,71,71,102,1,,
606a4f1c6e098bf633fd64db,2023-06-16_10h18.47.880,phx_ver10,2022.2.5,Linux x86_64,20.02242512,,,,,,,,,,,,16,testing_2,zh2x,ai,zh2x_ai,zh2x_8_aixai.wav,zh2x_1_aizhai.wav,,FALSE,FALSE,,,,,,,,,,,,,,f,0.8739,space,1.1077,,,,,,,,0,72,72,15,1,,
606a4f1c6e098bf633fd64db,2023-06-16_10h18.47.880,phx_ver10,2022.2.5,Linux x86_64,20.02242512,,,,,,,,,,,,73,testing_3,j2x,a,j2x_a,j2x_1_aja.wav,j2x_1_aja.wav,,TRUE,FALSE,,,,,,,,,,,,,,f,0.4789,space,0.7126,,,,,,,,0,73,73,72,1,,
606a4f1c6e098bf633fd64db,2023-06-16_10h18.47.880,phx_ver10,2022.2.5,Linux x86_64,20.02242512,,,,,,,,,,,,144,testing_3,sh2j,i,sh2j_i,sh2j_8_iji.wav,sh2j_1_ishi.wav,,FALSE,FALSE,,,,,,,,,,,,,,j,0.7037,space,0.9439,,,,,,,,0,74,74,143,1,,
606a4f1c6e098bf633fd64db,2023-06-16_10h18.47.880,phx_ver10,2022.2.5,Linux x86_64,20.02242512,,,,,,,,,,,,25,testing_3,zh2sh,a,zh2sh_a,zh2sh_1_azha.wav,zh2sh_1_azha.wav,,TRUE,FALSE,,,,,,,,,,,,,,f,0.1671,space,0.4557,,,,,,,,0,75,75,24,1,,
606a4f1c6e098bf633fd64db,2023-06-16_10h18.47.880,phx_ver10,2022.2.5,Linux x86_64,20.02242512,,,,,,,,,,,,101,testing_3,sh2x,ai,sh2x_ai,sh2x_1_aishai.wav,sh2x_1_aishai.wav,,TRUE,FALSE,,,,,,,,,,,,,,f,0.2169,space,0.7296,,,,,,,,0,76,76,100,1,,
606a4f1c6e098bf633fd64db,2023-06-16_10h18.47.880,phx_ver10,2022.2.5,Linux x86_64,20.02242512,,,,,,,,,,,,94,testing_3,j2x,i,j2x_i,j2x_8_ixi.wav,j2x_8_ixi.wav,,TRUE,FALSE,,,,,,,,,,,,,,f,0.2649,space,0.6285,,,,,,,,0,77,77,93,1,,
606a4f1c6e098bf633fd64db,2023-06-16_10h18.47.880,phx_ver10,2022.2.5,Linux x86_64,20.02242512,,,,,,,,,,,,9,testing_1,zh2x,i,zh2x_i,zh2x_1_izhi.wav,zh2x_1_izhi_copy.wav,,TRUE,TRUE,,,,,,,,,,,,,,f,0.0955,space,0.4265,,,,,,,,0,78,78,8,1,,
606a4f1c6e098bf633fd64db,2023-06-16_10h18.47.880,phx_ver10,2022.2.5,Linux x86_64,20.02242512,,,,,,,,,,,,46,testing_3,zh2sh,i,zh2sh_i,zh2sh_8_ishi.wav,zh2sh_8_ishi.wav,,TRUE,FALSE,,,,,,,,,,,,,,f,0.1377,space,0.4738,,,,,,,,0,79,79,45,1,,
606a4f1c6e098bf633fd64db,2023-06-16_10h18.47.880,phx_ver10,2022.2.5,Linux x86_64,20.02242512,,,,,,,,,,,,86,testing_3,j2x,e,j2x_e,j2x_8_exe.wav,j2x_8_exe.wav,,TRUE,FALSE,,,,,,,,,,,,,,f,0.0802,space,0.4867,,,,,,,,0,80,80,85,1,,
606a4f1c6e098bf633fd64db,2023-06-16_10h18.47.880,phx_ver10,2022.2.5,Linux x86_64,20.02242512,,,,,,,,,,,,5,testing_1,zh2x,e,zh2x_e,zh2x_1_ezhe.wav,zh2x_1_ezhe_copy.wav,,TRUE,TRUE,,,,,,,,,,,,,,f,0.5621,space,0.8576,,,,,,,,0,81,81,4,1,,
606a4f1c6e098bf633fd64db,2023-06-16_10h18.47.880,phx_ver10,2022.2.5,Linux x86_64,20.02242512,,,,,,,,,,,,28,testing_3,zh2sh,a,zh2sh_a,zh2sh_8_asha.wav,zh2sh_1_azha.wav,,FALSE,FALSE,,,,,,,,,,,,,,j,0.8107,space,1.0445,,,,,,,,0,82,82,27,1,,
606a4f1c6e098bf633fd64db,2023-06-16_10h18.47.880,phx_ver10,2022.2.5,Linux x86_64,20.02242512,,,,,,,,,,,,58,testing_3,zh2j,au,zh2j_au,zh2j_8_aujau.wav,zh2j_8_aujau.wav,,TRUE,FALSE,,,,,,,,,,,,,,f,0.4613,space,0.7801,,,,,,,,0,83,83,57,1,,
606a4f1c6e098bf633fd64db,2023-06-16_10h18.47.880,phx_ver10,2022.2.5,Linux x86_64,20.02242512,,,,,,,,,,,,22,testing_2,zh2x,ei,zh2x_ei,zh2x_8_eixei.wav,zh2x_8_eixei.wav,,TRUE,FALSE,,,,,,,,,,,,,,f,0.0711,space,0.4527,,,,,,,,0,84,84,21,1,,
606a4f1c6e098bf633fd64db,2023-06-16_10h18.47.880,phx_ver10,2022.2.5,Linux x86_64,20.02242512,,,,,,,,,,,,141,testing_3,sh2j,i,sh2j_i,sh2j_1_ishi.wav,sh2j_1_ishi.wav,,TRUE,FALSE,,,,,,,,,,,,,,f,0.0323,space,0.549,,,,,,,,0,85,85,140,1,,
606a4f1c6e098bf633fd64db,2023-06-16_10h18.47.880,phx_ver10,2022.2.5,Linux x86_64,20.02242512,,,,,,,,,,,,127,testing_3,sh2j,ai,sh2j_ai,sh2j_1_aishai.wav,sh2j_8_aijai.wav,,FALSE,FALSE,,,,,,,,,,,,,,j,0.2809,space,0.666,,,,,,,,0,86,86,126,1,,
606a4f1c6e098bf633fd64db,2023-06-16_10h18.47.880,phx_ver10,2022.2.5,Linux x86_64,20.02242512,,,,,,,,,,,,119,testing_3,sh2x,i,sh2x_i,sh2x_1_ishi.wav,sh2x_8_ixi.wav,,FALSE,FALSE,,,,,,,,,,,,,,f,0.2332,space,0.5935,,,,,,,,0,87,87,118,1,,
606a4f1c6e098bf633fd64db,2023-06-16_10h18.47.880,phx_ver10,2022.2.5,Linux x86_64,20.02242512,,,,,,,,,,,,102,testing_3,sh2x,ai,sh2x_ai,sh2x_8_aixai.wav,sh2x_8_aixai.wav,,TRUE,FALSE,,,,,,,,,,,,,,f,0.184,space,0.4837,,,,,,,,0,88,88,101,1,,
606a4f1c6e098bf633fd64db,2023-06-16_10h18.47.880,phx_ver10,2022.2.5,Linux x86_64,20.02242512,,,,,,,,,,,,15,testing_2,zh2x,ai,zh2x_ai,zh2x_1_aizhai.wav,zh2x_8_aixai.wav,,FALSE,FALSE,,,,,,,,,,,,,,j,0.3167,space,0.5557,,,,,,,,0,89,89,14,1,,
606a4f1c6e098bf633fd64db,2023-06-16_10h18.47.880,phx_ver10,2022.2.5,Linux x86_64,20.02242512,,,,,,,,,,,,84,testing_3,j2x,au,j2x_au,j2x_8_auxau.wav,j2x_1_aujau.wav,,FALSE,FALSE,,,,,,,,,,,,,,j,0.2686,space,0.4702,,,,,,,,0,90,90,83,1,,
606a4f1c6e098bf633fd64db,2023-06-16_10h18.47.880,phx_ver10,2022.2.5,Linux x86_64,20.02242512,,,,,,,,,,,,118,testing_3,sh2x,i,sh2x_i,sh2x_8_ixi.wav,sh2x_8_ixi.wav,,TRUE,FALSE,,,,,,,,,,,,,,f,0.0597,space,0.3532,,,,,,,,0,91,91,117,1,,
606a4f1c6e098bf633fd64db,2023-06-16_10h18.47.880,phx_ver10,2022.2.5,Linux x86_64,20.02242512,,,,,,,,,,,,18,testing_2,zh2x,au,zh2x_au,zh2x_8_auxau.wav,zh2x_8_auxau.wav,,TRUE,FALSE,,,,,,,,,,,,,,f,0.0392,space,0.3172,,,,,,,,0,92,92,17,1,,
606a4f1c6e098bf633fd64db,2023-06-16_10h18.47.880,phx_ver10,2022.2.5,Linux x86_64,20.02242512,,,,,,,,,,,,114,testing_3,sh2x,ei,sh2x_ei,sh2x_8_eixei.wav,sh2x_8_eixei.wav,,TRUE,FALSE,,,,,,,,,,,,,,f,0.0341,space,0.3028,,,,,,,,0,93,93,113,1,,
606a4f1c6e098bf633fd64db,2023-06-16_10h18.47.880,phx_ver10,2022.2.5,Linux x86_64,20.02242512,,,,,,,,,,,,23,testing_2,zh2x,ei,zh2x_ei,zh2x_1_eizhei.wav,zh2x_8_eixei.wav,,FALSE,FALSE,,,,,,,,,,,,,,j,0.9485,space,1.1345,,,,,,,,0,94,94,22,1,,
606a4f1c6e098bf633fd64db,2023-06-16_10h18.47.880,phx_ver10,2022.2.5,Linux x86_64,20.02242512,,,,,,,,,,,,139,testing_3,sh2j,ei,sh2j_ei,sh2j_1_eishei.wav,sh2j_8_eijei.wav,,FALSE,FALSE,,,,,,,,,,,,,,j,0.1184,space,0.3162,,,,,,,,0,95,95,138,1,,
606a4f1c6e098bf633fd64db,2023-06-16_10h18.47.880,phx_ver10,2022.2.5,Linux x86_64,20.02242512,,,,,,,,,,,,83,testing_3,j2x,au,j2x_au,j2x_1_aujau.wav,j2x_8_auxau.wav,,FALSE,FALSE,,,,,,,,,,,,,,j,0.4673,space,0.6663,,,,,,,,0,96,96,82,1,,
606a4f1c6e098bf633fd64db,2023-06-16_10h18.47.880,phx_ver10,2022.2.5,Linux x86_64,20.02242512,,,,,,,,,,,,43,testing_3,zh2sh,ei,zh2sh_ei,zh2sh_1_eizhei.wav,zh2sh_8_eishei.wav,,FALSE,FALSE,,,,,,,,,,,,,,j,0.4468,space,0.6683,,,,,,,,0,97,97,42,1,,
606a4f1c6e098bf633fd64db,2023-06-16_10h18.47.880,phx_ver10,2022.2.5,Linux x86_64,20.02242512,,,,,,,,,,,,136,testing_3,sh2j,e,sh2j_e,sh2j_8_eje.wav,sh2j_1_eshe.wav,,FALSE,FALSE,,,,,,,,,,,,,,f,0.0707,space,0.3188,,,,,,,,0,98,98,135,1,,
606a4f1c6e098bf633fd64db,2023-06-16_10h18.47.880,phx_ver10,2022.2.5,Linux x86_64,20.02242512,,,,,,,,,,,,3,testing_1,zh2x,a,zh2x_a,zh2x_1_azha.wav,zh2x_8_axa.wav,,FALSE,TRUE,,,,,,,,,,,,,,j,0.4208,space,0.617,,,,,,,,0,99,99,2,1,,
606a4f1c6e098bf633fd64db,2023-06-16_10h18.47.880,phx_ver10,2022.2.5,Linux x86_64,20.02242512,,,,,,,,,,,,93,testing_3,j2x,i,j2x_i,j2x_1_iji.wav,j2x_1_iji.wav,,TRUE,FALSE,,,,,,,,,,,,,,f,0.5704,space,0.8707,,,,,,,,0,100,100,92,1,,
606a4f1c6e098bf633fd64db,2023-06-16_10h18.47.880,phx_ver10,2022.2.5,Linux x86_64,20.02242512,,,,,,,,,,,,50,testing_3,zh2j,a,zh2j_a,zh2j_8_aja.wav,zh2j_8_aja.wav,,TRUE,FALSE,,,,,,,,,,,,,,f,1.002,space,1.2287,,,,,,,,0,101,101,49,1,,
606a4f1c6e098bf633fd64db,2023-06-16_10h18.47.880,phx_ver10,2022.2.5,Linux x86_64,20.02242512,,,,,,,,,,,,79,testing_3,j2x,ai,j2x_ai,j2x_1_aijai.wav,j2x_8_aixai.wav,,FALSE,FALSE,,,,,,,,,,,,,,j,0.1057,space,0.2711,,,,,,,,0,102,102,78,1,,
606a4f1c6e098bf633fd64db,2023-06-16_10h18.47.880,phx_ver10,2022.2.5,Linux x86_64,20.02242512,,,,,,,,,,,,61,testing_3,zh2j,e,zh2j_e,zh2j_1_ezhe.wav,zh2j_1_ezhe.wav,,TRUE,FALSE,,,,,,,,,,,,,,f,0.3134,space,0.5804,,,,,,,,0,103,103,60,1,,
606a4f1c6e098bf633fd64db,2023-06-16_10h18.47.880,phx_ver10,2022.2.5,Linux x86_64,20.02242512,,,,,,,,,,,,37,testing_3,zh2sh,e,zh2sh_e,zh2sh_1_ezhe.wav,zh2sh_1_ezhe.wav,,TRUE,FALSE,,,,,,,,,,,,,,f,0.7169,space,0.9748,,,,,,,,0,104,104,36,1,,
606a4f1c6e098bf633fd64db,2023-06-16_10h18.47.880,phx_ver10,2022.2.5,Linux x86_64,20.02242512,,,,,,,,,,,,123,testing_3,sh2j,a,sh2j_a,sh2j_1_asha.wav,sh2j_8_aja.wav,,FALSE,FALSE,,,,,,,,,,,,,,j,0.1957,space,0.5537,,,,,,,,0,105,105,122,1,,
606a4f1c6e098bf633fd64db,2023-06-16_10h18.47.880,phx_ver10,2022.2.5,Linux x86_64,20.02242512,,,,,,,,,,,,21,testing_2,zh2x,ei,zh2x_ei,zh2x_1_eizhei.wav,zh2x_1_eizhei.wav,,TRUE,FALSE,,,,,,,,,,,,,,f,0.4344,space,0.7175,,,,,,,,0,106,106,20,1,,
606a4f1c6e098bf633fd64db,2023-06-16_10h18.47.880,phx_ver10,2022.2.5,Linux x86_64,20.02242512,,,,,,,,,,,,38,testing_3,zh2sh,e,zh2sh_e,zh2sh_8_eshe.wav,zh2sh_8_eshe.wav,,TRUE,FALSE,,,,,,,,,,,,,,f,0.3414,space,0.6309,,,,,,,,0,107,107,37,1,,
606a4f1c6e098bf633fd64db,2023-06-16_10h18.47.880,phx_ver10,2022.2.5,Linux x86_64,20.02242512,,,,,,,,,,,,138,testing_3,sh2j,ei,sh2j_ei,sh2j_8_eijei.wav,sh2j_8_eijei.wav,,TRUE,FALSE,,,,,,,,,,,,,,f,0.0014,space,0.386,,,,,,,,0,108,108,137,1,,
606a4f1c6e098bf633fd64db,2023-06-16_10h18.47.880,phx_ver10,2022.2.5,Linux x86_64,20.02242512,,,,,,,,,,,,131,testing_3,sh2j,au,sh2j_au,sh2j_1_aushau.wav,sh2j_8_aujau.wav,,FALSE,FALSE,,,,,,,,,,,,,,j,0.1957,space,0.4663,,,,,,,,0,109,109,130,1,,
606a4f1c6e098bf633fd64db,2023-06-16_10h18.47.880,phx_ver10,2022.2.5,Linux x86_64,20.02242512,,,,,,,,,,,,69,testing_3,zh2j,i,zh2j_i,zh2j_1_izhi.wav,zh2j_1_izhi.wav,,TRUE,FALSE,,,,,,,,,,,,,,f,0.225,space,0.61,,,,,,,,0,110,110,68,1,,
606a4f1c6e098bf633fd64db,2023-06-16_10h18.47.880,phx_ver10,2022.2.5,Linux x86_64,20.02242512,,,,,,,,,,,,108,testing_3,sh2x,au,sh2x_au,sh2x_8_auxau.wav,sh2x_1_aushau.wav,,FALSE,FALSE,,,,,,,,,,,,,,f,0.0607,space,0.4437,,,,,,,,0,111,111,107,1,,
606a4f1c6e098bf633fd64db,2023-06-16_10h18.47.880,phx_ver10,2022.2.5,Linux x86_64,20.02242512,,,,,,,,,,,,121,testing_3,sh2j,a,sh2j_a,sh2j_1_asha.wav,sh2j_1_asha.wav,,TRUE,FALSE,,,,,,,,,,,,,,f,0.105,space,0.4859,,,,,,,,0,112,112,120,1,,
606a4f1c6e098bf633fd64db,2023-06-16_10h18.47.880,phx_ver10,2022.2.5,Linux x86_64,20.02242512,,,,,,,,,,,,78,testing_3,j2x,ai,j2x_ai,j2x_8_aixai.wav,j2x_8_aixai.wav,,TRUE,FALSE,,,,,,,,,,,,,,f,0.6527,space,1.0341,,,,,,,,0,113,113,77,1,,
606a4f1c6e098bf633fd64db,2023-06-16_10h18.47.880,phx_ver10,2022.2.5,Linux x86_64,20.02242512,,,,,,,,,,,,82,testing_3,j2x,au,j2x_au,j2x_8_auxau.wav,j2x_8_auxau.wav,,TRUE,FALSE,,,,,,,,,,,,,,f,0.0469,space,0.4659,,,,,,,,0,114,114,81,1,,
606a4f1c6e098bf633fd64db,2023-06-16_10h18.47.880,phx_ver10,2022.2.5,Linux x86_64,20.02242512,,,,,,,,,,,,104,testing_3,sh2x,ai,sh2x_ai,sh2x_8_aixai.wav,sh2x_1_aishai.wav,,FALSE,FALSE,,,,,,,,,,,,,,f,0.2503,space,0.5902,,,,,,,,0,115,115,103,1,,
606a4f1c6e098bf633fd64db,2023-06-16_10h18.47.880,phx_ver10,2022.2.5,Linux x86_64,20.02242512,,,,,,,,,,,,140,testing_3,sh2j,ei,sh2j_ei,sh2j_8_eijei.wav,sh2j_1_eishei.wav,,FALSE,FALSE,,,,,,,,,,,,,,j,0.3515,space,0.5351,,,,,,,,0,116,116,139,1,,
606a4f1c6e098bf633fd64db,2023-06-16_10h18.47.880,phx_ver10,2022.2.5,Linux x86_64,20.02242512,,,,,,,,,,,,20,testing_2,zh2x,au,zh2x_au,zh2x_8_auxau.wav,zh2x_1_auzhau.wav,,FALSE,FALSE,,,,,,,,,,,,,,j,0.7679,space,0.9626,,,,,,,,0,117,117,19,1,,
606a4f1c6e098bf633fd64db,2023-06-16_10h18.47.880,phx_ver10,2022.2.5,Linux x86_64,20.02242512,,,,,,,,,,,,41,testing_3,zh2sh,ei,zh2sh_ei,zh2sh_1_eizhei.wav,zh2sh_1_eizhei.wav,,TRUE,FALSE,,,,,,,,,,,,,,f,0.1771,space,0.5128,,,,,,,,0,118,118,40,1,,
606a4f1c6e098bf633fd64db,2023-06-16_10h18.47.880,phx_ver10,2022.2.5,Linux x86_64,20.02242512,,,,,,,,,,,,42,testing_3,zh2sh,ei,zh2sh_ei,zh2sh_8_eishei.wav,zh2sh_8_eishei.wav,,TRUE,FALSE,,,,,,,,,,,,,,f,0.3705,space,0.687,,,,,,,,0,119,119,41,1,,
606a4f1c6e098bf633fd64db,2023-06-16_10h18.47.880,phx_ver10,2022.2.5,Linux x86_64,20.02242512,,,,,,,,,,,,55,testing_3,zh2j,ai,zh2j_ai,zh2j_1_aizhai.wav,zh2j_8_aijai.wav,,FALSE,FALSE,,,,,,,,,,,,,,f,0.3292,space,0.645,,,,,,,,0,120,120,54,1,,
606a4f1c6e098bf633fd64db,2023-06-16_10h18.47.880,phx_ver10,2022.2.5,Linux x86_64,20.02242512,,,,,,,,,,,,1,testing_1,zh2x,a,zh2x_a,zh2x_1_azha.wav,zh2x_1_azha_copy.wav,,TRUE,TRUE,,,,,,,,,,,,,,f,0.1349,space,0.5143,,,,,,,,0,121,121,0,1,,
606a4f1c6e098bf633fd64db,2023-06-16_10h18.47.880,phx_ver10,2022.2.5,Linux x86_64,20.02242512,,,,,,,,,,,,65,testing_3,zh2j,ei,zh2j_ei,zh2j_1_eizhei.wav,zh2j_1_eizhei.wav,,TRUE,FALSE,,,,,,,,,,,,,,f,0.2808,space,0.6344,,,,,,,,0,122,122,64,1,,
606a4f1c6e098bf633fd64db,2023-06-16_10h18.47.880,phx_ver10,2022.2.5,Linux x86_64,20.02242512,,,,,,,,,,,,7,testing_1,zh2x,e,zh2x_e,zh2x_1_ezhe.wav,zh2x_8_exe.wav,,FALSE,TRUE,,,,,,,,,,,,,,j,0.6672,space,0.9569,,,,,,,,0,123,123,6,1,,
606a4f1c6e098bf633fd64db,2023-06-16_10h18.47.880,phx_ver10,2022.2.5,Linux x86_64,20.02242512,,,,,,,,,,,,85,testing_3,j2x,e,j2x_e,j2x_1_eje.wav,j2x_1_eje.wav,,TRUE,FALSE,,,,,,,,,,,,,,f,0.4481,space,0.6981,,,,,,,,0,124,124,84,1,,
606a4f1c6e098bf633fd64db,2023-06-16_10h18.47.880,phx_ver10,2022.2.5,Linux x86_64,20.02242512,,,,,,,,,,,,111,testing_3,sh2x,e,sh2x_e,sh2x_1_eshe.wav,sh2x_8_exe.wav,,FALSE,FALSE,,,,,,,,,,,,,,j,0.5707,space,0.7715,,,,,,,,0,125,125,110,1,,
606a4f1c6e098bf633fd64db,2023-06-16_10h18.47.880,phx_ver10,2022.2.5,Linux x86_64,20.02242512,,,,,,,,,,,,105,testing_3,sh2x,au,sh2x_au,sh2x_1_aushau.wav,sh2x_1_aushau.wav,,TRUE,FALSE,,,,,,,,,,,,,,f,0.2087,space,0.5583,,,,,,,,0,126,126,104,1,,
606a4f1c6e098bf633fd64db,2023-06-16_10h18.47.880,phx_ver10,2022.2.5,Linux x86_64,20.02242512,,,,,,,,,,,,49,testing_3,zh2j,a,zh2j_a,zh2j_1_azha.wav,zh2j_1_azha.wav,,TRUE,FALSE,,,,,,,,,,,,,,f,0.4198,space,0.6985,,,,,,,,0,127,127,48,1,,
606a4f1c6e098bf633fd64db,2023-06-16_10h18.47.880,phx_ver10,2022.2.5,Linux x86_64,20.02242512,,,,,,,,,,,,130,testing_3,sh2j,au,sh2j_au,sh2j_8_aujau.wav,sh2j_8_aujau.wav,,TRUE,FALSE,,,,,,,,,,,,,,f,6.9219,space,7.1283,,,,,,,,0,128,128,129,1,,
606a4f1c6e098bf633fd64db,2023-06-16_10h18.47.880,phx_ver10,2022.2.5,Linux x86_64,20.02242512,,,,,,,,,,,,48,testing_3,zh2sh,i,zh2sh_i,zh2sh_8_ishi.wav,zh2sh_1_izhi.wav,,FALSE,FALSE,,,,,,,,,,,,,,j,0.4754,space,0.6375,,,,,,,,0,129,129,47,1,,
606a4f1c6e098bf633fd64db,2023-06-16_10h18.47.880,phx_ver10,2022.2.5,Linux x86_64,20.02242512,,,,,,,,,,,,134,testing_3,sh2j,e,sh2j_e,sh2j_8_eje.wav,sh2j_8_eje.wav,,TRUE,FALSE,,,,,,,,,,,,,,f,0.3014,space,0.5879,,,,,,,,0,130,130,133,1,,
606a4f1c6e098bf633fd64db,2023-06-16_10h18.47.880,phx_ver10,2022.2.5,Linux x86_64,20.02242512,,,,,,,,,,,,63,testing_3,zh2j,e,zh2j_e,zh2j_1_ezhe.wav,zh2j_8_eje.wav,,FALSE,FALSE,,,,,,,,,,,,,,j,0.7597,space,0.931,,,,,,,,0,131,131,62,1,,
606a4f1c6e098bf633fd64db,2023-06-16_10h18.47.880,phx_ver10,2022.2.5,Linux x86_64,20.02242512,,,,,,,,,,,,76,testing_3,j2x,a,j2x_a,j2x_8_axa.wav,j2x_1_aja.wav,,FALSE,FALSE,,,,,,,,,,,,,,f,0.5123,space,0.7459,,,,,,,,0,132,132,75,1,,
606a4f1c6e098bf633fd64db,2023-06-16_10h18.47.880,phx_ver10,2022.2.5,Linux x86_64,20.02242512,,,,,,,,,,,,99,testing_3,sh2x,a,sh2x_a,sh2x_1_asha.wav,sh2x_8_axa.wav,,FALSE,FALSE,,,,,,,,,,,,,,j,0.4884,space,0.7197,,,,,,,,0,133,133,98,1,,
606a4f1c6e098bf633fd64db,2023-06-16_10h18.47.880,phx_ver10,2022.2.5,Linux x86_64,20.02242512,,,,,,,,,,,,90,testing_3,j2x,ei,j2x_ei,j2x_8_eixei.wav,j2x_8_eixei.wav,,TRUE,FALSE,,,,,,,,,,,,,,f,0.3049,space,0.6226,,,,,,,,0,134,134,89,1,,
606a4f1c6e098bf633fd64db,2023-06-16_10h18.47.880,phx_ver10,2022.2.5,Linux x86_64,20.02242512,,,,,,,,,,,,129,testing_3,sh2j,au,sh2j_au,sh2j_1_aushau.wav,sh2j_1_aushau.wav,,TRUE,FALSE,,,,,,,,,,,,,,f,0.2838,space,0.6639,,,,,,,,0,135,135,128,1,,
606a4f1c6e098bf633fd64db,2023-06-16_10h18.47.880,phx_ver10,2022.2.5,Linux x86_64,20.02242512,,,,,,,,,,,,125,testing_3,sh2j,ai,sh2j_ai,sh2j_1_aishai.wav,sh2j_1_aishai.wav,,TRUE,FALSE,,,,,,,,,,,,,,f,0.0915,space,0.4101,,,,,,,,0,136,136,124,1,,
606a4f1c6e098bf633fd64db,2023-06-16_10h18.47.880,phx_ver10,2022.2.5,Linux x86_64,20.02242512,,,,,,,,,,,,124,testing_3,sh2j,a,sh2j_a,sh2j_8_aja.wav,sh2j_1_asha.wav,,FALSE,FALSE,,,,,,,,,,,,,,j,0.4698,space,0.6643,,,,,,,,0,137,137,123,1,,
606a4f1c6e098bf633fd64db,2023-06-16_10h18.47.880,phx_ver10,2022.2.5,Linux x86_64,20.02242512,,,,,,,,,,,,72,testing_3,zh2j,i,zh2j_i,zh2j_8_iji.wav,zh2j_1_izhi.wav,,FALSE,FALSE,,,,,,,,,,,,,,j,1.9013,space,2.1032,,,,,,,,0,138,138,71,1,,
606a4f1c6e098bf633fd64db,2023-06-16_10h18.47.880,phx_ver10,2022.2.5,Linux x86_64,20.02242512,,,,,,,,,,,,53,testing_3,zh2j,ai,zh2j_ai,zh2j_1_aizhai.wav,zh2j_1_aizhai.wav,,TRUE,FALSE,,,,,,,,,,,,,,f,0.5998,space,0.8405,,,,,,,,0,139,139,52,1,,
606a4f1c6e098bf633fd64db,2023-06-16_10h18.47.880,phx_ver10,2022.2.5,Linux x86_64,20.02242512,,,,,,,,,,,,35,testing_3,zh2sh,au,zh2sh_au,zh2sh_1_auzhau.wav,zh2sh_8_aushau.wav,,FALSE,FALSE,,,,,,,,,,,,,,j,0.053,space,0.2248,,,,,,,,0,140,140,34,1,,
606a4f1c6e098bf633fd64db,2023-06-16_10h18.47.880,phx_ver10,2022.2.5,Linux x86_64,20.02242512,,,,,,,,,,,,115,testing_3,sh2x,ei,sh2x_ei,sh2x_1_eishei.wav,sh2x_8_eixei.wav,,FALSE,FALSE,,,,,,,,,,,,,,j,0.2671,space,0.4456,,,,,,,,0,141,141,114,1,,
606a4f1c6e098bf633fd64db,2023-06-16_10h18.47.880,phx_ver10,2022.2.5,Linux x86_64,20.02242512,,,,,,,,,,,,107,testing_3,sh2x,au,sh2x_au,sh2x_1_aushau.wav,sh2x_8_auxau.wav,,FALSE,FALSE,,,,,,,,,,,,,,f,0.5349,space,0.7221,,,,,,,,0,142,142,106,1,,
606a4f1c6e098bf633fd64db,2023-06-16_10h18.47.880,phx_ver10,2022.2.5,Linux x86_64,20.02242512,,,,,,,,,,,,66,testing_3,zh2j,ei,zh2j_ei,zh2j_8_eijei.wav,zh2j_8_eijei.wav,,TRUE,FALSE,,,,,,,,,,,,,,f,1.6007,space,1.8885,,,,,,,,0,143,143,65,1,,
606a4f1c6e098bf633fd64db,2023-06-16_10h18.47.880,phx_ver10,2022.2.5,Linux x86_64,20.02242512,,,,,,,,,,,,,,,,,,,,,,,,,,,,,,,,,,,,,,,,,,,,,,,,,,,space,3.5281
