participant,date,expName,psychopyVersion,OS,frameRate,space_1.keys,space_1.rt,space_2.keys,space_2.rt,space_train.keys,space_train.rt,training.thisRepN,training.thisTrialN,training.thisN,training.thisIndex,training.ran,token_id,task,continuum,vowel,series,sound_1,sound_2,img,same,trained,FJ_attn.keys,FJ_attn.rt,space_attn.keys,space_attn.rt,if_attn_test.thisRepN,if_attn_test.thisTrialN,if_attn_test.thisN,if_attn_test.thisIndex,if_attn_test.ran,space_trans_1.keys,space_trans_1.rt,space_trans_11.keys,space_trans_11.rt,FJ_test.keys,FJ_test.rt,space_test.keys,space_test.rt,testing_pre.thisRepN,testing_pre.thisTrialN,testing_pre.thisN,testing_pre.thisIndex,testing_pre.ran,space_trans_2.keys,space_trans_2.rt,testing_all.thisRepN,testing_all.thisTrialN,testing_all.thisN,testing_all.thisIndex,testing_all.ran,space_ending.keys,space_ending.rt
60977fd69248772da45d3bd3,2023-06-16_20h44.53.851,phx_ver10,2022.2.5,MacIntel,59.95203837,,,,,,,,,,,,,,,,,,,,,,,,,,,,,,,,,,,,,,,,,,,,,,,,,,,,
60977fd69248772da45d3bd3,2023-06-16_20h44.53.851,phx_ver10,2022.2.5,MacIntel,59.95203837,space,6.654,,,,,,,,,,,,,,,,,,,,,,,,,,,,,,,,,,,,,,,,,,,,,,,,,,
60977fd69248772da45d3bd3,2023-06-16_20h44.53.851,phx_ver10,2022.2.5,MacIntel,59.95203837,,,space,4.097,,,,,,,,,,,,,,,,,,,,,,,,,,,,,,,,,,,,,,,,,,,,,,,,
60977fd69248772da45d3bd3,2023-06-16_20h44.53.851,phx_ver10,2022.2.5,MacIntel,59.95203837,,,,,space,4.343,0,0,0,6,1,7,training,zh2x,a,zh2x_a,zh2x_3_azha.wav,,azha.jpg,,,,,,,,,,,,,,,,,,,,,,,,,,,,,,,,,
60977fd69248772da45d3bd3,2023-06-16_20h44.53.851,phx_ver10,2022.2.5,MacIntel,59.95203837,,,,,space,2.402,0,1,1,21,1,22,training,zh2x,e,zh2x_e,zh2x_3_ezhe.wav,,ezhe.jpg,,,,,,,,,,,,,,,,,,,,,,,,,,,,,,,,,
60977fd69248772da45d3bd3,2023-06-16_20h44.53.851,phx_ver10,2022.2.5,MacIntel,59.95203837,,,,,space,1.452,0,2,2,20,1,21,training,zh2x,e,zh2x_e,zh2x_2_ezhe.wav,,ezhe.jpg,,,,,,,,,,,,,,,,,,,,,,,,,,,,,,,,,
60977fd69248772da45d3bd3,2023-06-16_20h44.53.851,phx_ver10,2022.2.5,MacIntel,59.95203837,,,,,space,2.154,0,3,3,41,1,42,training,zh2x,i,zh2x_i,zh2x_6_ixi.wav,,ixi.jpg,,,,,,,,,,,,,,,,,,,,,,,,,,,,,,,,,
60977fd69248772da45d3bd3,2023-06-16_20h44.53.851,phx_ver10,2022.2.5,MacIntel,59.95203837,,,,,space,1.952,0,4,4,35,1,36,training,zh2x,i,zh2x_i,zh2x_2_izhi.wav,,izhi.jpg,,,,,,,,,,,,,,,,,,,,,,,,,,,,,,,,,
60977fd69248772da45d3bd3,2023-06-16_20h44.53.851,phx_ver10,2022.2.5,MacIntel,59.95203837,,,,,space,0.971,0,5,5,38,1,39,training,zh2x,i,zh2x_i,zh2x_3_izhi.wav,,izhi.jpg,,,,,,,,,,,,,,,,,,,,,,,,,,,,,,,,,
60977fd69248772da45d3bd3,2023-06-16_20h44.53.851,phx_ver10,2022.2.5,MacIntel,59.95203837,,,,,,,,,,,,,attn_test,,,,zh2x_1_azha.wav,zh2x_1_ezhe.wav,ezhe.jpg,RIGHT,,j,6.782,space,8.278,0,0,0,0,1,,,,,,,,,,,,,,,,,,,,,,
60977fd69248772da45d3bd3,2023-06-16_20h44.53.851,phx_ver10,2022.2.5,MacIntel,59.95203837,,,,,space,1.952,0,6,6,9,1,10,training,zh2x,a,zh2x_a,zh2x_6_axa.wav,,axa.jpg,,,,,,,,,,,,,,,,,,,,,,,,,,,,,,,,,
60977fd69248772da45d3bd3,2023-06-16_20h44.53.851,phx_ver10,2022.2.5,MacIntel,59.95203837,,,,,space,1.789,0,7,7,5,1,6,training,zh2x,a,zh2x_a,zh2x_3_azha.wav,,azha.jpg,,,,,,,,,,,,,,,,,,,,,,,,,,,,,,,,,
60977fd69248772da45d3bd3,2023-06-16_20h44.53.851,phx_ver10,2022.2.5,MacIntel,59.95203837,,,,,space,1.452,0,8,8,33,1,34,training,zh2x,i,zh2x_i,zh2x_2_izhi.wav,,izhi.jpg,,,,,,,,,,,,,,,,,,,,,,,,,,,,,,,,,
60977fd69248772da45d3bd3,2023-06-16_20h44.53.851,phx_ver10,2022.2.5,MacIntel,59.95203837,,,,,space,1.719,0,9,9,8,1,9,training,zh2x,a,zh2x_a,zh2x_5_axa.wav,,axa.jpg,,,,,,,,,,,,,,,,,,,,,,,,,,,,,,,,,
60977fd69248772da45d3bd3,2023-06-16_20h44.53.851,phx_ver10,2022.2.5,MacIntel,59.95203837,,,,,space,1.003,0,10,10,44,1,45,training,zh2x,i,zh2x_i,zh2x_7_ixi.wav,,ixi.jpg,,,,,,,,,,,,,,,,,,,,,,,,,,,,,,,,,
60977fd69248772da45d3bd3,2023-06-16_20h44.53.851,phx_ver10,2022.2.5,MacIntel,59.95203837,,,,,space,0.601,0,11,11,4,1,5,training,zh2x,a,zh2x_a,zh2x_2_azha.wav,,azha.jpg,,,,,,,,,,,,,,,,,,,,,,,,,,,,,,,,,
60977fd69248772da45d3bd3,2023-06-16_20h44.53.851,phx_ver10,2022.2.5,MacIntel,59.95203837,,,,,,,,,,,,,attn_test,,,,zh2x_1_azha.wav,zh2x_8_ixi.wav,azha.jpg,LEFT,,f,0.002,space,0.69,0,0,0,0,1,,,,,,,,,,,,,,,,,,,,,,
60977fd69248772da45d3bd3,2023-06-16_20h44.53.851,phx_ver10,2022.2.5,MacIntel,59.95203837,,,,,space,1.066,0,12,12,23,1,24,training,zh2x,e,zh2x_e,zh2x_4_ezhe.wav,,ezhe.jpg,,,,,,,,,,,,,,,,,,,,,,,,,,,,,,,,,
60977fd69248772da45d3bd3,2023-06-16_20h44.53.851,phx_ver10,2022.2.5,MacIntel,59.95203837,,,,,space,1.11,0,13,13,28,1,29,training,zh2x,e,zh2x_e,zh2x_7_exe.wav,,exe.jpg,,,,,,,,,,,,,,,,,,,,,,,,,,,,,,,,,
60977fd69248772da45d3bd3,2023-06-16_20h44.53.851,phx_ver10,2022.2.5,MacIntel,59.95203837,,,,,space,0.553,0,14,14,7,1,8,training,zh2x,a,zh2x_a,zh2x_4_azha.wav,,azha.jpg,,,,,,,,,,,,,,,,,,,,,,,,,,,,,,,,,
60977fd69248772da45d3bd3,2023-06-16_20h44.53.851,phx_ver10,2022.2.5,MacIntel,59.95203837,,,,,space,0.12,0,15,15,14,1,15,training,zh2x,a,zh2x_a,zh2x_7_axa.wav,,axa.jpg,,,,,,,,,,,,,,,,,,,,,,,,,,,,,,,,,
60977fd69248772da45d3bd3,2023-06-16_20h44.53.851,phx_ver10,2022.2.5,MacIntel,59.95203837,,,,,space,0.686,0,16,16,42,1,43,training,zh2x,i,zh2x_i,zh2x_6_ixi.wav,,ixi.jpg,,,,,,,,,,,,,,,,,,,,,,,,,,,,,,,,,
60977fd69248772da45d3bd3,2023-06-16_20h44.53.851,phx_ver10,2022.2.5,MacIntel,59.95203837,,,,,space,0.403,0,17,17,37,1,38,training,zh2x,i,zh2x_i,zh2x_3_izhi.wav,,izhi.jpg,,,,,,,,,,,,,,,,,,,,,,,,,,,,,,,,,
60977fd69248772da45d3bd3,2023-06-16_20h44.53.851,phx_ver10,2022.2.5,MacIntel,59.95203837,,,,,,,,,,,,,attn_test,,,,zh2x_8_exe.wav,zh2x_1_ezhe.wav,ezhe.jpg,RIGHT,,j,3.186,space,3.584,0,0,0,0,1,,,,,,,,,,,,,,,,,,,,,,
60977fd69248772da45d3bd3,2023-06-16_20h44.53.851,phx_ver10,2022.2.5,MacIntel,59.95203837,,,,,space,0.602,0,18,18,2,1,3,training,zh2x,a,zh2x_a,zh2x_2_azha.wav,,azha.jpg,,,,,,,,,,,,,,,,,,,,,,,,,,,,,,,,,
60977fd69248772da45d3bd3,2023-06-16_20h44.53.851,phx_ver10,2022.2.5,MacIntel,59.95203837,,,,,space,0.185,0,19,19,36,1,37,training,zh2x,i,zh2x_i,zh2x_2_izhi.wav,,izhi.jpg,,,,,,,,,,,,,,,,,,,,,,,,,,,,,,,,,
60977fd69248772da45d3bd3,2023-06-16_20h44.53.851,phx_ver10,2022.2.5,MacIntel,59.95203837,,,,,space,0.017,0,20,20,43,1,44,training,zh2x,i,zh2x_i,zh2x_7_ixi.wav,,ixi.jpg,,,,,,,,,,,,,,,,,,,,,,,,,,,,,,,,,
60977fd69248772da45d3bd3,2023-06-16_20h44.53.851,phx_ver10,2022.2.5,MacIntel,59.95203837,,,,,space,1.386,0,21,21,39,1,40,training,zh2x,i,zh2x_i,zh2x_4_izhi.wav,,izhi.jpg,,,,,,,,,,,,,,,,,,,,,,,,,,,,,,,,,
60977fd69248772da45d3bd3,2023-06-16_20h44.53.851,phx_ver10,2022.2.5,MacIntel,59.95203837,,,,,space,1.004,0,22,22,30,1,31,training,zh2x,e,zh2x_e,zh2x_7_exe.wav,,exe.jpg,,,,,,,,,,,,,,,,,,,,,,,,,,,,,,,,,
60977fd69248772da45d3bd3,2023-06-16_20h44.53.851,phx_ver10,2022.2.5,MacIntel,59.95203837,,,,,space,0.573,0,23,23,3,1,4,training,zh2x,a,zh2x_a,zh2x_2_azha.wav,,azha.jpg,,,,,,,,,,,,,,,,,,,,,,,,,,,,,,,,,
60977fd69248772da45d3bd3,2023-06-16_20h44.53.851,phx_ver10,2022.2.5,MacIntel,59.95203837,,,,,,,,,,,,,attn_test,,,,zh2x_1_izhi.wav,zh2x_1_ezhe.wav,izhi.jpg,LEFT,,f,1.51,space,3.601,0,0,0,0,1,,,,,,,,,,,,,,,,,,,,,,
60977fd69248772da45d3bd3,2023-06-16_20h44.53.851,phx_ver10,2022.2.5,MacIntel,59.95203837,,,,,space,7.566,0,24,24,15,1,16,training,zh2x,a,zh2x_a,zh2x_8_axa.wav,,axa.jpg,,,,,,,,,,,,,,,,,,,,,,,,,,,,,,,,,
60977fd69248772da45d3bd3,2023-06-16_20h44.53.851,phx_ver10,2022.2.5,MacIntel,59.95203837,,,,,space,0.583,0,25,25,32,1,33,training,zh2x,i,zh2x_i,zh2x_1_izhi.wav,,izhi.jpg,,,,,,,,,,,,,,,,,,,,,,,,,,,,,,,,,
60977fd69248772da45d3bd3,2023-06-16_20h44.53.851,phx_ver10,2022.2.5,MacIntel,59.95203837,,,,,space,0.588,0,26,26,0,1,1,training,zh2x,a,zh2x_a,zh2x_1_azha.wav,,azha.jpg,,,,,,,,,,,,,,,,,,,,,,,,,,,,,,,,,
60977fd69248772da45d3bd3,2023-06-16_20h44.53.851,phx_ver10,2022.2.5,MacIntel,59.95203837,,,,,space,0.39,0,27,27,31,1,32,training,zh2x,e,zh2x_e,zh2x_8_exe.wav,,exe.jpg,,,,,,,,,,,,,,,,,,,,,,,,,,,,,,,,,
60977fd69248772da45d3bd3,2023-06-16_20h44.53.851,phx_ver10,2022.2.5,MacIntel,59.95203837,,,,,space,0.318,0,28,28,45,1,46,training,zh2x,i,zh2x_i,zh2x_7_ixi.wav,,ixi.jpg,,,,,,,,,,,,,,,,,,,,,,,,,,,,,,,,,
60977fd69248772da45d3bd3,2023-06-16_20h44.53.851,phx_ver10,2022.2.5,MacIntel,59.95203837,,,,,space,0.169,0,29,29,27,1,28,training,zh2x,e,zh2x_e,zh2x_7_exe.wav,,exe.jpg,,,,,,,,,,,,,,,,,,,,,,,,,,,,,,,,,
60977fd69248772da45d3bd3,2023-06-16_20h44.53.851,phx_ver10,2022.2.5,MacIntel,59.95203837,,,,,,,,,,,,,attn_test,,,,zh2x_8_ixi.wav,zh2x_8_exe.wav,exe.jpg,RIGHT,,j,0.199,space,0.918,0,0,0,0,1,,,,,,,,,,,,,,,,,,,,,,
60977fd69248772da45d3bd3,2023-06-16_20h44.53.851,phx_ver10,2022.2.5,MacIntel,59.95203837,,,,,space,0.519,0,30,30,26,1,27,training,zh2x,e,zh2x_e,zh2x_6_exe.wav,,exe.jpg,,,,,,,,,,,,,,,,,,,,,,,,,,,,,,,,,
60977fd69248772da45d3bd3,2023-06-16_20h44.53.851,phx_ver10,2022.2.5,MacIntel,59.95203837,,,,,space,0.354,0,31,31,13,1,14,training,zh2x,a,zh2x_a,zh2x_7_axa.wav,,axa.jpg,,,,,,,,,,,,,,,,,,,,,,,,,,,,,,,,,
60977fd69248772da45d3bd3,2023-06-16_20h44.53.851,phx_ver10,2022.2.5,MacIntel,59.95203837,,,,,space,0.638,0,32,32,16,1,17,training,zh2x,e,zh2x_e,zh2x_1_ezhe.wav,,ezhe.jpg,,,,,,,,,,,,,,,,,,,,,,,,,,,,,,,,,
60977fd69248772da45d3bd3,2023-06-16_20h44.53.851,phx_ver10,2022.2.5,MacIntel,59.95203837,,,,,space,0.417,0,33,33,47,1,48,training,zh2x,i,zh2x_i,zh2x_8_ixi.wav,,ixi.jpg,,,,,,,,,,,,,,,,,,,,,,,,,,,,,,,,,
60977fd69248772da45d3bd3,2023-06-16_20h44.53.851,phx_ver10,2022.2.5,MacIntel,59.95203837,,,,,space,0.484,0,34,34,19,1,20,training,zh2x,e,zh2x_e,zh2x_2_ezhe.wav,,ezhe.jpg,,,,,,,,,,,,,,,,,,,,,,,,,,,,,,,,,
60977fd69248772da45d3bd3,2023-06-16_20h44.53.851,phx_ver10,2022.2.5,MacIntel,59.95203837,,,,,space,0.561,0,35,35,22,1,23,training,zh2x,e,zh2x_e,zh2x_3_ezhe.wav,,ezhe.jpg,,,,,,,,,,,,,,,,,,,,,,,,,,,,,,,,,
60977fd69248772da45d3bd3,2023-06-16_20h44.53.851,phx_ver10,2022.2.5,MacIntel,59.95203837,,,,,,,,,,,,,attn_test,,,,zh2x_1_ezhe.wav,zh2x_8_exe.wav,ezhe.jpg,LEFT,,f,0.82,space,1.434,0,0,0,0,1,,,,,,,,,,,,,,,,,,,,,,
60977fd69248772da45d3bd3,2023-06-16_20h44.53.851,phx_ver10,2022.2.5,MacIntel,59.95203837,,,,,space,0.42,0,36,36,40,1,41,training,zh2x,i,zh2x_i,zh2x_5_ixi.wav,,ixi.jpg,,,,,,,,,,,,,,,,,,,,,,,,,,,,,,,,,
60977fd69248772da45d3bd3,2023-06-16_20h44.53.851,phx_ver10,2022.2.5,MacIntel,59.95203837,,,,,space,0.519,0,37,37,29,1,30,training,zh2x,e,zh2x_e,zh2x_7_exe.wav,,exe.jpg,,,,,,,,,,,,,,,,,,,,,,,,,,,,,,,,,
60977fd69248772da45d3bd3,2023-06-16_20h44.53.851,phx_ver10,2022.2.5,MacIntel,59.95203837,,,,,space,1.25,0,38,38,17,1,18,training,zh2x,e,zh2x_e,zh2x_2_ezhe.wav,,ezhe.jpg,,,,,,,,,,,,,,,,,,,,,,,,,,,,,,,,,
60977fd69248772da45d3bd3,2023-06-16_20h44.53.851,phx_ver10,2022.2.5,MacIntel,59.95203837,,,,,space,0.87,0,39,39,25,1,26,training,zh2x,e,zh2x_e,zh2x_6_exe.wav,,exe.jpg,,,,,,,,,,,,,,,,,,,,,,,,,,,,,,,,,
60977fd69248772da45d3bd3,2023-06-16_20h44.53.851,phx_ver10,2022.2.5,MacIntel,59.95203837,,,,,space,0.408,0,40,40,10,1,11,training,zh2x,a,zh2x_a,zh2x_6_axa.wav,,axa.jpg,,,,,,,,,,,,,,,,,,,,,,,,,,,,,,,,,
60977fd69248772da45d3bd3,2023-06-16_20h44.53.851,phx_ver10,2022.2.5,MacIntel,59.95203837,,,,,space,0.474,0,41,41,24,1,25,training,zh2x,e,zh2x_e,zh2x_5_exe.wav,,exe.jpg,,,,,,,,,,,,,,,,,,,,,,,,,,,,,,,,,
60977fd69248772da45d3bd3,2023-06-16_20h44.53.851,phx_ver10,2022.2.5,MacIntel,59.95203837,,,,,,,,,,,,,attn_test,,,,zh2x_8_exe.wav,zh2x_8_axa.wav,exe.jpg,LEFT,,f,1.003,space,1.705,0,0,0,0,1,,,,,,,,,,,,,,,,,,,,,,
60977fd69248772da45d3bd3,2023-06-16_20h44.53.851,phx_ver10,2022.2.5,MacIntel,59.95203837,,,,,space,0.481,0,42,42,18,1,19,training,zh2x,e,zh2x_e,zh2x_2_ezhe.wav,,ezhe.jpg,,,,,,,,,,,,,,,,,,,,,,,,,,,,,,,,,
60977fd69248772da45d3bd3,2023-06-16_20h44.53.851,phx_ver10,2022.2.5,MacIntel,59.95203837,,,,,space,0.318,0,43,43,11,1,12,training,zh2x,a,zh2x_a,zh2x_7_axa.wav,,axa.jpg,,,,,,,,,,,,,,,,,,,,,,,,,,,,,,,,,
60977fd69248772da45d3bd3,2023-06-16_20h44.53.851,phx_ver10,2022.2.5,MacIntel,59.95203837,,,,,space,3.339,0,44,44,1,1,2,training,zh2x,a,zh2x_a,zh2x_2_azha.wav,,azha.jpg,,,,,,,,,,,,,,,,,,,,,,,,,,,,,,,,,
60977fd69248772da45d3bd3,2023-06-16_20h44.53.851,phx_ver10,2022.2.5,MacIntel,59.95203837,,,,,space,0.687,0,45,45,46,1,47,training,zh2x,i,zh2x_i,zh2x_7_ixi.wav,,ixi.jpg,,,,,,,,,,,,,,,,,,,,,,,,,,,,,,,,,
60977fd69248772da45d3bd3,2023-06-16_20h44.53.851,phx_ver10,2022.2.5,MacIntel,59.95203837,,,,,space,1.099,0,46,46,34,1,35,training,zh2x,i,zh2x_i,zh2x_2_izhi.wav,,izhi.jpg,,,,,,,,,,,,,,,,,,,,,,,,,,,,,,,,,
60977fd69248772da45d3bd3,2023-06-16_20h44.53.851,phx_ver10,2022.2.5,MacIntel,59.95203837,,,,,space,0.982,0,47,47,12,1,13,training,zh2x,a,zh2x_a,zh2x_7_axa.wav,,axa.jpg,,,,,,,,,,,,,,,,,,,,,,,,,,,,,,,,,
60977fd69248772da45d3bd3,2023-06-16_20h44.53.851,phx_ver10,2022.2.5,MacIntel,59.95203837,,,,,,,,,,,,,attn_test,,,,zh2x_1_azha.wav,zh2x_1_izhi.wav,azha.jpg,LEFT,,f,1.103,space,1.467,,,,,,,,,,,,,,,,,,,,,,,,,,,
60977fd69248772da45d3bd3,2023-06-16_20h44.53.851,phx_ver10,2022.2.5,MacIntel,59.95203837,,,,,,,,,,,,,,,,,,,,,,,,,,,,,,,space,4.178,,,,,,,,,,,,,,,,,,,,
60977fd69248772da45d3bd3,2023-06-16_20h44.53.851,phx_ver10,2022.2.5,MacIntel,59.95203837,,,,,,,,,,,,,,,,,,,,,,,,,,,,,,,,,space,9.567,,,,,,,,,,,,,,,,,,
60977fd69248772da45d3bd3,2023-06-16_20h44.53.851,phx_ver10,2022.2.5,MacIntel,59.95203837,,,,,,,,,,,,5,testing_pre,,,,ihi.wav,ifi.wav,,FALSE,,,,,,,,,,,,,,,j,6.242,space,6.927,0,0,0,4,1,,,,,,,,,
60977fd69248772da45d3bd3,2023-06-16_20h44.53.851,phx_ver10,2022.2.5,MacIntel,59.95203837,,,,,,,,,,,,1,testing_pre,,,,ifi.wav,ifi.wav,,TRUE,,,,,,,,,,,,,,,f,0.569,space,0.874,0,1,1,0,1,,,,,,,,,
60977fd69248772da45d3bd3,2023-06-16_20h44.53.851,phx_ver10,2022.2.5,MacIntel,59.95203837,,,,,,,,,,,,2,testing_pre,,,,auhau.wav,aufau.wav,,FALSE,,,,,,,,,,,,,,,j,0.683,space,0.935,0,2,2,1,1,,,,,,,,,
60977fd69248772da45d3bd3,2023-06-16_20h44.53.851,phx_ver10,2022.2.5,MacIntel,59.95203837,,,,,,,,,,,,4,testing_pre,,,,eihei.wav,eihei.wav,,TRUE,,,,,,,,,,,,,,,f,0.534,space,0.851,0,3,3,3,1,,,,,,,,,
60977fd69248772da45d3bd3,2023-06-16_20h44.53.851,phx_ver10,2022.2.5,MacIntel,59.95203837,,,,,,,,,,,,3,testing_pre,,,,afa.wav,aha.wav,,FALSE,,,,,,,,,,,,,,,j,0.488,space,0.803,0,4,4,2,1,,,,,,,,,
60977fd69248772da45d3bd3,2023-06-16_20h44.53.851,phx_ver10,2022.2.5,MacIntel,59.95203837,,,,,,,,,,,,,,,,,,,,,,,,,,,,,,,,,,,,,,,,,,,,space,0.646,,,,,,,
60977fd69248772da45d3bd3,2023-06-16_20h44.53.851,phx_ver10,2022.2.5,MacIntel,59.95203837,,,,,,,,,,,,63,testing_3,zh2j,e,zh2j_e,zh2j_1_ezhe.wav,zh2j_8_eje.wav,,FALSE,FALSE,,,,,,,,,,,,,,f,0.806,space,1.086,,,,,,,,0,0,0,62,1,,
60977fd69248772da45d3bd3,2023-06-16_20h44.53.851,phx_ver10,2022.2.5,MacIntel,59.95203837,,,,,,,,,,,,133,testing_3,sh2j,e,sh2j_e,sh2j_1_eshe.wav,sh2j_1_eshe.wav,,TRUE,FALSE,,,,,,,,,,,,,,f,0.572,space,0.888,,,,,,,,0,1,1,132,1,,
60977fd69248772da45d3bd3,2023-06-16_20h44.53.851,phx_ver10,2022.2.5,MacIntel,59.95203837,,,,,,,,,,,,121,testing_3,sh2j,a,sh2j_a,sh2j_1_asha.wav,sh2j_1_asha.wav,,TRUE,FALSE,,,,,,,,,,,,,,f,0.131,space,0.416,,,,,,,,0,2,2,120,1,,
60977fd69248772da45d3bd3,2023-06-16_20h44.53.851,phx_ver10,2022.2.5,MacIntel,59.95203837,,,,,,,,,,,,84,testing_3,j2x,au,j2x_au,j2x_8_auxau.wav,j2x_1_aujau.wav,,FALSE,FALSE,,,,,,,,,,,,,,j,0.589,space,0.855,,,,,,,,0,3,3,83,1,,
60977fd69248772da45d3bd3,2023-06-16_20h44.53.851,phx_ver10,2022.2.5,MacIntel,59.95203837,,,,,,,,,,,,51,testing_3,zh2j,a,zh2j_a,zh2j_1_azha.wav,zh2j_8_aja.wav,,FALSE,FALSE,,,,,,,,,,,,,,f,0.317,space,0.618,,,,,,,,0,4,4,50,1,,
60977fd69248772da45d3bd3,2023-06-16_20h44.53.851,phx_ver10,2022.2.5,MacIntel,59.95203837,,,,,,,,,,,,15,testing_2,zh2x,ai,zh2x_ai,zh2x_1_aizhai.wav,zh2x_8_aixai.wav,,FALSE,FALSE,,,,,,,,,,,,,,j,0.636,space,0.917,,,,,,,,0,5,5,14,1,,
60977fd69248772da45d3bd3,2023-06-16_20h44.53.851,phx_ver10,2022.2.5,MacIntel,59.95203837,,,,,,,,,,,,59,testing_3,zh2j,au,zh2j_au,zh2j_1_auzhau.wav,zh2j_8_aujau.wav,,FALSE,FALSE,,,,,,,,,,,,,,f,0.484,space,0.802,,,,,,,,0,6,6,58,1,,
60977fd69248772da45d3bd3,2023-06-16_20h44.53.851,phx_ver10,2022.2.5,MacIntel,59.95203837,,,,,,,,,,,,74,testing_3,j2x,a,j2x_a,j2x_8_axa.wav,j2x_8_axa.wav,,TRUE,FALSE,,,,,,,,,,,,,,f,0.451,space,0.718,,,,,,,,0,7,7,73,1,,
60977fd69248772da45d3bd3,2023-06-16_20h44.53.851,phx_ver10,2022.2.5,MacIntel,59.95203837,,,,,,,,,,,,57,testing_3,zh2j,au,zh2j_au,zh2j_1_auzhau.wav,zh2j_1_auzhau.wav,,TRUE,FALSE,,,,,,,,,,,,,,f,0.32,space,0.586,,,,,,,,0,8,8,56,1,,
60977fd69248772da45d3bd3,2023-06-16_20h44.53.851,phx_ver10,2022.2.5,MacIntel,59.95203837,,,,,,,,,,,,90,testing_3,j2x,ei,j2x_ei,j2x_8_eixei.wav,j2x_8_eixei.wav,,TRUE,FALSE,,,,,,,,,,,,,,f,0.539,space,0.821,,,,,,,,0,9,9,89,1,,
60977fd69248772da45d3bd3,2023-06-16_20h44.53.851,phx_ver10,2022.2.5,MacIntel,59.95203837,,,,,,,,,,,,8,testing_1,zh2x,e,zh2x_e,zh2x_8_exe.wav,zh2x_1_ezhe.wav,,FALSE,TRUE,,,,,,,,,,,,,,j,1.521,space,1.82,,,,,,,,0,10,10,7,1,,
60977fd69248772da45d3bd3,2023-06-16_20h44.53.851,phx_ver10,2022.2.5,MacIntel,59.95203837,,,,,,,,,,,,65,testing_3,zh2j,ei,zh2j_ei,zh2j_1_eizhei.wav,zh2j_1_eizhei.wav,,TRUE,FALSE,,,,,,,,,,,,,,f,0.807,space,1.104,,,,,,,,0,11,11,64,1,,
60977fd69248772da45d3bd3,2023-06-16_20h44.53.851,phx_ver10,2022.2.5,MacIntel,59.95203837,,,,,,,,,,,,26,testing_3,zh2sh,a,zh2sh_a,zh2sh_8_asha.wav,zh2sh_8_asha.wav,,TRUE,FALSE,,,,,,,,,,,,,,f,0.286,space,0.537,,,,,,,,0,12,12,25,1,,
60977fd69248772da45d3bd3,2023-06-16_20h44.53.851,phx_ver10,2022.2.5,MacIntel,59.95203837,,,,,,,,,,,,71,testing_3,zh2j,i,zh2j_i,zh2j_1_izhi.wav,zh2j_8_iji.wav,,FALSE,FALSE,,,,,,,,,,,,,,j,1.924,space,2.206,,,,,,,,0,13,13,70,1,,
60977fd69248772da45d3bd3,2023-06-16_20h44.53.851,phx_ver10,2022.2.5,MacIntel,59.95203837,,,,,,,,,,,,38,testing_3,zh2sh,e,zh2sh_e,zh2sh_8_eshe.wav,zh2sh_8_eshe.wav,,TRUE,FALSE,,,,,,,,,,,,,,f,0.351,space,0.604,,,,,,,,0,14,14,37,1,,
60977fd69248772da45d3bd3,2023-06-16_20h44.53.851,phx_ver10,2022.2.5,MacIntel,59.95203837,,,,,,,,,,,,86,testing_3,j2x,e,j2x_e,j2x_8_exe.wav,j2x_8_exe.wav,,TRUE,FALSE,,,,,,,,,,,,,,f,0.136,space,0.385,,,,,,,,0,15,15,85,1,,
60977fd69248772da45d3bd3,2023-06-16_20h44.53.851,phx_ver10,2022.2.5,MacIntel,59.95203837,,,,,,,,,,,,143,testing_3,sh2j,i,sh2j_i,sh2j_1_ishi.wav,sh2j_8_iji.wav,,FALSE,FALSE,,,,,,,,,,,,,,j,0.57,space,1.008,,,,,,,,0,16,16,142,1,,
60977fd69248772da45d3bd3,2023-06-16_20h44.53.851,phx_ver10,2022.2.5,MacIntel,59.95203837,,,,,,,,,,,,1,testing_1,zh2x,a,zh2x_a,zh2x_1_azha.wav,zh2x_1_azha_copy.wav,,TRUE,TRUE,,,,,,,,,,,,,,f,0.351,space,0.64,,,,,,,,0,17,17,0,1,,
60977fd69248772da45d3bd3,2023-06-16_20h44.53.851,phx_ver10,2022.2.5,MacIntel,59.95203837,,,,,,,,,,,,4,testing_1,zh2x,a,zh2x_a,zh2x_8_axa.wav,zh2x_1_azha.wav,,FALSE,TRUE,,,,,,,,,,,,,,j,0.121,space,0.433,,,,,,,,0,18,18,3,1,,
60977fd69248772da45d3bd3,2023-06-16_20h44.53.851,phx_ver10,2022.2.5,MacIntel,59.95203837,,,,,,,,,,,,100,testing_3,sh2x,a,sh2x_a,sh2x_8_axa.wav,sh2x_1_asha.wav,,FALSE,FALSE,,,,,,,,,,,,,,f,0.784,space,1.085,,,,,,,,0,19,19,99,1,,
60977fd69248772da45d3bd3,2023-06-16_20h44.53.851,phx_ver10,2022.2.5,MacIntel,59.95203837,,,,,,,,,,,,7,testing_1,zh2x,e,zh2x_e,zh2x_1_ezhe.wav,zh2x_8_exe.wav,,FALSE,TRUE,,,,,,,,,,,,,,j,0.223,space,0.504,,,,,,,,0,20,20,6,1,,
60977fd69248772da45d3bd3,2023-06-16_20h44.53.851,phx_ver10,2022.2.5,MacIntel,59.95203837,,,,,,,,,,,,32,testing_3,zh2sh,ai,zh2sh_ai,zh2sh_8_aishai.wav,zh2sh_1_aizhai.wav,,FALSE,FALSE,,,,,,,,,,,,,,j,0.487,space,0.787,,,,,,,,0,21,21,31,1,,
60977fd69248772da45d3bd3,2023-06-16_20h44.53.851,phx_ver10,2022.2.5,MacIntel,59.95203837,,,,,,,,,,,,41,testing_3,zh2sh,ei,zh2sh_ei,zh2sh_1_eizhei.wav,zh2sh_1_eizhei.wav,,TRUE,FALSE,,,,,,,,,,,,,,j,3.752,space,4.051,,,,,,,,0,22,22,40,1,,
60977fd69248772da45d3bd3,2023-06-16_20h44.53.851,phx_ver10,2022.2.5,MacIntel,59.95203837,,,,,,,,,,,,75,testing_3,j2x,a,j2x_a,j2x_1_aja.wav,j2x_8_axa.wav,,FALSE,FALSE,,,,,,,,,,,,,,j,0.222,space,0.457,,,,,,,,0,23,23,74,1,,
60977fd69248772da45d3bd3,2023-06-16_20h44.53.851,phx_ver10,2022.2.5,MacIntel,59.95203837,,,,,,,,,,,,34,testing_3,zh2sh,au,zh2sh_au,zh2sh_8_aushau.wav,zh2sh_8_aushau.wav,,TRUE,FALSE,,,,,,,,,,,,,,f,0.65,space,0.972,,,,,,,,0,24,24,33,1,,
60977fd69248772da45d3bd3,2023-06-16_20h44.53.851,phx_ver10,2022.2.5,MacIntel,59.95203837,,,,,,,,,,,,60,testing_3,zh2j,au,zh2j_au,zh2j_8_aujau.wav,zh2j_1_auzhau.wav,,FALSE,FALSE,,,,,,,,,,,,,,f,0.152,space,0.415,,,,,,,,0,25,25,59,1,,
60977fd69248772da45d3bd3,2023-06-16_20h44.53.851,phx_ver10,2022.2.5,MacIntel,59.95203837,,,,,,,,,,,,30,testing_3,zh2sh,ai,zh2sh_ai,zh2sh_8_aishai.wav,zh2sh_8_aishai.wav,,TRUE,FALSE,,,,,,,,,,,,,,f,0.167,space,0.433,,,,,,,,0,26,26,29,1,,
60977fd69248772da45d3bd3,2023-06-16_20h44.53.851,phx_ver10,2022.2.5,MacIntel,59.95203837,,,,,,,,,,,,140,testing_3,sh2j,ei,sh2j_ei,sh2j_8_eijei.wav,sh2j_1_eishei.wav,,FALSE,FALSE,,,,,,,,,,,,,,j,0.437,space,0.69,,,,,,,,0,27,27,139,1,,
60977fd69248772da45d3bd3,2023-06-16_20h44.53.851,phx_ver10,2022.2.5,MacIntel,59.95203837,,,,,,,,,,,,120,testing_3,sh2x,i,sh2x_i,sh2x_8_ixi.wav,sh2x_1_ishi.wav,,FALSE,FALSE,,,,,,,,,,,,,,j,1.186,space,1.492,,,,,,,,0,28,28,119,1,,
60977fd69248772da45d3bd3,2023-06-16_20h44.53.851,phx_ver10,2022.2.5,MacIntel,59.95203837,,,,,,,,,,,,129,testing_3,sh2j,au,sh2j_au,sh2j_1_aushau.wav,sh2j_1_aushau.wav,,TRUE,FALSE,,,,,,,,,,,,,,f,0.285,space,0.589,,,,,,,,0,29,29,128,1,,
60977fd69248772da45d3bd3,2023-06-16_20h44.53.851,phx_ver10,2022.2.5,MacIntel,59.95203837,,,,,,,,,,,,105,testing_3,sh2x,au,sh2x_au,sh2x_1_aushau.wav,sh2x_1_aushau.wav,,TRUE,FALSE,,,,,,,,,,,,,,f,0.185,space,0.49,,,,,,,,0,30,30,104,1,,
60977fd69248772da45d3bd3,2023-06-16_20h44.53.851,phx_ver10,2022.2.5,MacIntel,59.95203837,,,,,,,,,,,,47,testing_3,zh2sh,i,zh2sh_i,zh2sh_1_izhi.wav,zh2sh_8_ishi.wav,,FALSE,FALSE,,,,,,,,,,,,,,j,0.117,space,0.405,,,,,,,,0,31,31,46,1,,
60977fd69248772da45d3bd3,2023-06-16_20h44.53.851,phx_ver10,2022.2.5,MacIntel,59.95203837,,,,,,,,,,,,82,testing_3,j2x,au,j2x_au,j2x_8_auxau.wav,j2x_8_auxau.wav,,TRUE,FALSE,,,,,,,,,,,,,,f,0.866,space,1.181,,,,,,,,0,32,32,81,1,,
60977fd69248772da45d3bd3,2023-06-16_20h44.53.851,phx_ver10,2022.2.5,MacIntel,59.95203837,,,,,,,,,,,,21,testing_2,zh2x,ei,zh2x_ei,zh2x_1_eizhei.wav,zh2x_1_eizhei.wav,,TRUE,FALSE,,,,,,,,,,,,,,f,0.435,space,0.734,,,,,,,,0,33,33,20,1,,
60977fd69248772da45d3bd3,2023-06-16_20h44.53.851,phx_ver10,2022.2.5,MacIntel,59.95203837,,,,,,,,,,,,61,testing_3,zh2j,e,zh2j_e,zh2j_1_ezhe.wav,zh2j_1_ezhe.wav,,TRUE,FALSE,,,,,,,,,,,,,,f,0.068,space,0.386,,,,,,,,0,34,34,60,1,,
60977fd69248772da45d3bd3,2023-06-16_20h44.53.851,phx_ver10,2022.2.5,MacIntel,59.95203837,,,,,,,,,,,,62,testing_3,zh2j,e,zh2j_e,zh2j_8_eje.wav,zh2j_8_eje.wav,,TRUE,FALSE,,,,,,,,,,,,,,f,0.038,space,0.371,,,,,,,,0,35,35,61,1,,
60977fd69248772da45d3bd3,2023-06-16_20h44.53.851,phx_ver10,2022.2.5,MacIntel,59.95203837,,,,,,,,,,,,125,testing_3,sh2j,ai,sh2j_ai,sh2j_1_aishai.wav,sh2j_1_aishai.wav,,TRUE,FALSE,,,,,,,,,,,,,,f,0.24,space,0.569,,,,,,,,0,36,36,124,1,,
60977fd69248772da45d3bd3,2023-06-16_20h44.53.851,phx_ver10,2022.2.5,MacIntel,59.95203837,,,,,,,,,,,,99,testing_3,sh2x,a,sh2x_a,sh2x_1_asha.wav,sh2x_8_axa.wav,,FALSE,FALSE,,,,,,,,,,,,,,f,0.457,space,0.754,,,,,,,,0,37,37,98,1,,
60977fd69248772da45d3bd3,2023-06-16_20h44.53.851,phx_ver10,2022.2.5,MacIntel,59.95203837,,,,,,,,,,,,39,testing_3,zh2sh,e,zh2sh_e,zh2sh_1_ezhe.wav,zh2sh_8_eshe.wav,,FALSE,FALSE,,,,,,,,,,,,,,j,0.2,space,0.483,,,,,,,,0,38,38,38,1,,
60977fd69248772da45d3bd3,2023-06-16_20h44.53.851,phx_ver10,2022.2.5,MacIntel,59.95203837,,,,,,,,,,,,45,testing_3,zh2sh,i,zh2sh_i,zh2sh_1_izhi.wav,zh2sh_1_izhi.wav,,TRUE,FALSE,,,,,,,,,,,,,,f,0.552,space,0.92,,,,,,,,0,39,39,44,1,,
60977fd69248772da45d3bd3,2023-06-16_20h44.53.851,phx_ver10,2022.2.5,MacIntel,59.95203837,,,,,,,,,,,,138,testing_3,sh2j,ei,sh2j_ei,sh2j_8_eijei.wav,sh2j_8_eijei.wav,,TRUE,FALSE,,,,,,,,,,,,,,f,0.101,space,0.419,,,,,,,,0,40,40,137,1,,
60977fd69248772da45d3bd3,2023-06-16_20h44.53.851,phx_ver10,2022.2.5,MacIntel,59.95203837,,,,,,,,,,,,24,testing_2,zh2x,ei,zh2x_ei,zh2x_8_eixei.wav,zh2x_1_eizhei.wav,,FALSE,FALSE,,,,,,,,,,,,,,j,0.15,space,0.434,,,,,,,,0,41,41,23,1,,
60977fd69248772da45d3bd3,2023-06-16_20h44.53.851,phx_ver10,2022.2.5,MacIntel,59.95203837,,,,,,,,,,,,81,testing_3,j2x,au,j2x_au,j2x_1_aujau.wav,j2x_1_aujau.wav,,TRUE,FALSE,,,,,,,,,,,,,,f,0.271,space,0.606,,,,,,,,0,42,42,80,1,,
60977fd69248772da45d3bd3,2023-06-16_20h44.53.851,phx_ver10,2022.2.5,MacIntel,59.95203837,,,,,,,,,,,,88,testing_3,j2x,e,j2x_e,j2x_8_exe.wav,j2x_1_eje.wav,,FALSE,FALSE,,,,,,,,,,,,,,j,0.634,space,0.882,,,,,,,,0,43,43,87,1,,
60977fd69248772da45d3bd3,2023-06-16_20h44.53.851,phx_ver10,2022.2.5,MacIntel,59.95203837,,,,,,,,,,,,128,testing_3,sh2j,ai,sh2j_ai,sh2j_8_aijai.wav,sh2j_1_aishai.wav,,FALSE,FALSE,,,,,,,,,,,,,,j,0.418,space,0.724,,,,,,,,0,44,44,127,1,,
60977fd69248772da45d3bd3,2023-06-16_20h44.53.851,phx_ver10,2022.2.5,MacIntel,59.95203837,,,,,,,,,,,,9,testing_1,zh2x,i,zh2x_i,zh2x_1_izhi.wav,zh2x_1_izhi_copy.wav,,TRUE,TRUE,,,,,,,,,,,,,,f,0.268,space,0.567,,,,,,,,0,45,45,8,1,,
60977fd69248772da45d3bd3,2023-06-16_20h44.53.851,phx_ver10,2022.2.5,MacIntel,59.95203837,,,,,,,,,,,,132,testing_3,sh2j,au,sh2j_au,sh2j_8_aujau.wav,sh2j_1_aushau.wav,,FALSE,FALSE,,,,,,,,,,,,,,j,0.155,space,0.434,,,,,,,,0,46,46,131,1,,
60977fd69248772da45d3bd3,2023-06-16_20h44.53.851,phx_ver10,2022.2.5,MacIntel,59.95203837,,,,,,,,,,,,67,testing_3,zh2j,ei,zh2j_ei,zh2j_1_eizhei.wav,zh2j_8_eijei.wav,,FALSE,FALSE,,,,,,,,,,,,,,f,0.199,space,0.485,,,,,,,,0,47,47,66,1,,
60977fd69248772da45d3bd3,2023-06-16_20h44.53.851,phx_ver10,2022.2.5,MacIntel,59.95203837,,,,,,,,,,,,5,testing_1,zh2x,e,zh2x_e,zh2x_1_ezhe.wav,zh2x_1_ezhe_copy.wav,,TRUE,TRUE,,,,,,,,,,,,,,f,0.051,space,0.321,,,,,,,,0,48,48,4,1,,
60977fd69248772da45d3bd3,2023-06-16_20h44.53.851,phx_ver10,2022.2.5,MacIntel,59.95203837,,,,,,,,,,,,28,testing_3,zh2sh,a,zh2sh_a,zh2sh_8_asha.wav,zh2sh_1_azha.wav,,FALSE,FALSE,,,,,,,,,,,,,,j,0.203,space,0.437,,,,,,,,0,49,49,27,1,,
60977fd69248772da45d3bd3,2023-06-16_20h44.53.851,phx_ver10,2022.2.5,MacIntel,59.95203837,,,,,,,,,,,,139,testing_3,sh2j,ei,sh2j_ei,sh2j_1_eishei.wav,sh2j_8_eijei.wav,,FALSE,FALSE,,,,,,,,,,,,,,j,2.303,space,2.77,,,,,,,,0,50,50,138,1,,
60977fd69248772da45d3bd3,2023-06-16_20h44.53.851,phx_ver10,2022.2.5,MacIntel,59.95203837,,,,,,,,,,,,118,testing_3,sh2x,i,sh2x_i,sh2x_8_ixi.wav,sh2x_8_ixi.wav,,TRUE,FALSE,,,,,,,,,,,,,,f,0.337,space,0.652,,,,,,,,0,51,51,117,1,,
60977fd69248772da45d3bd3,2023-06-16_20h44.53.851,phx_ver10,2022.2.5,MacIntel,59.95203837,,,,,,,,,,,,64,testing_3,zh2j,e,zh2j_e,zh2j_8_eje.wav,zh2j_1_ezhe.wav,,FALSE,FALSE,,,,,,,,,,,,,,f,0.185,space,0.449,,,,,,,,0,52,52,63,1,,
60977fd69248772da45d3bd3,2023-06-16_20h44.53.851,phx_ver10,2022.2.5,MacIntel,59.95203837,,,,,,,,,,,,16,testing_2,zh2x,ai,zh2x_ai,zh2x_8_aixai.wav,zh2x_1_aizhai.wav,,FALSE,FALSE,,,,,,,,,,,,,,j,0.221,space,0.553,,,,,,,,0,53,53,15,1,,
60977fd69248772da45d3bd3,2023-06-16_20h44.53.851,phx_ver10,2022.2.5,MacIntel,59.95203837,,,,,,,,,,,,53,testing_3,zh2j,ai,zh2j_ai,zh2j_1_aizhai.wav,zh2j_1_aizhai.wav,,TRUE,FALSE,,,,,,,,,,,,,,f,2.851,space,3.452,,,,,,,,0,54,54,52,1,,
60977fd69248772da45d3bd3,2023-06-16_20h44.53.851,phx_ver10,2022.2.5,MacIntel,59.95203837,,,,,,,,,,,,6,testing_1,zh2x,e,zh2x_e,zh2x_8_exe.wav,zh2x_8_exe_copy.wav,,TRUE,TRUE,,,,,,,,,,,,,,f,0.348,space,0.604,,,,,,,,0,55,55,5,1,,
60977fd69248772da45d3bd3,2023-06-16_20h44.53.851,phx_ver10,2022.2.5,MacIntel,59.95203837,,,,,,,,,,,,127,testing_3,sh2j,ai,sh2j_ai,sh2j_1_aishai.wav,sh2j_8_aijai.wav,,FALSE,FALSE,,,,,,,,,,,,,,j,0.19,space,0.456,,,,,,,,0,56,56,126,1,,
60977fd69248772da45d3bd3,2023-06-16_20h44.53.851,phx_ver10,2022.2.5,MacIntel,59.95203837,,,,,,,,,,,,83,testing_3,j2x,au,j2x_au,j2x_1_aujau.wav,j2x_8_auxau.wav,,FALSE,FALSE,,,,,,,,,,,,,,j,0.038,space,0.268,,,,,,,,0,57,57,82,1,,
60977fd69248772da45d3bd3,2023-06-16_20h44.53.851,phx_ver10,2022.2.5,MacIntel,59.95203837,,,,,,,,,,,,17,testing_2,zh2x,au,zh2x_au,zh2x_1_auzhau.wav,zh2x_1_auzhau.wav,,TRUE,FALSE,,,,,,,,,,,,,,f,0.303,space,0.571,,,,,,,,0,58,58,16,1,,
60977fd69248772da45d3bd3,2023-06-16_20h44.53.851,phx_ver10,2022.2.5,MacIntel,59.95203837,,,,,,,,,,,,104,testing_3,sh2x,ai,sh2x_ai,sh2x_8_aixai.wav,sh2x_1_aishai.wav,,FALSE,FALSE,,,,,,,,,,,,,,f,3.337,space,3.617,,,,,,,,0,59,59,103,1,,
60977fd69248772da45d3bd3,2023-06-16_20h44.53.851,phx_ver10,2022.2.5,MacIntel,59.95203837,,,,,,,,,,,,33,testing_3,zh2sh,au,zh2sh_au,zh2sh_1_auzhau.wav,zh2sh_1_auzhau.wav,,TRUE,FALSE,,,,,,,,,,,,,,f,0.42,space,0.688,,,,,,,,0,60,60,32,1,,
60977fd69248772da45d3bd3,2023-06-16_20h44.53.851,phx_ver10,2022.2.5,MacIntel,59.95203837,,,,,,,,,,,,18,testing_2,zh2x,au,zh2x_au,zh2x_8_auxau.wav,zh2x_8_auxau.wav,,TRUE,FALSE,,,,,,,,,,,,,,f,0.106,space,0.354,,,,,,,,0,61,61,17,1,,
60977fd69248772da45d3bd3,2023-06-16_20h44.53.851,phx_ver10,2022.2.5,MacIntel,59.95203837,,,,,,,,,,,,56,testing_3,zh2j,ai,zh2j_ai,zh2j_8_aijai.wav,zh2j_1_aizhai.wav,,FALSE,FALSE,,,,,,,,,,,,,,f,1.667,space,2.199,,,,,,,,0,62,62,55,1,,
60977fd69248772da45d3bd3,2023-06-16_20h44.53.851,phx_ver10,2022.2.5,MacIntel,59.95203837,,,,,,,,,,,,55,testing_3,zh2j,ai,zh2j_ai,zh2j_1_aizhai.wav,zh2j_8_aijai.wav,,FALSE,FALSE,,,,,,,,,,,,,,f,1.634,space,1.903,,,,,,,,0,63,63,54,1,,
60977fd69248772da45d3bd3,2023-06-16_20h44.53.851,phx_ver10,2022.2.5,MacIntel,59.95203837,,,,,,,,,,,,135,testing_3,sh2j,e,sh2j_e,sh2j_1_eshe.wav,sh2j_8_eje.wav,,FALSE,FALSE,,,,,,,,,,,,,,j,0.271,space,0.583,,,,,,,,0,64,64,134,1,,
60977fd69248772da45d3bd3,2023-06-16_20h44.53.851,phx_ver10,2022.2.5,MacIntel,59.95203837,,,,,,,,,,,,43,testing_3,zh2sh,ei,zh2sh_ei,zh2sh_1_eizhei.wav,zh2sh_8_eishei.wav,,FALSE,FALSE,,,,,,,,,,,,,,j,0.535,space,0.819,,,,,,,,0,65,65,42,1,,
60977fd69248772da45d3bd3,2023-06-16_20h44.53.851,phx_ver10,2022.2.5,MacIntel,59.95203837,,,,,,,,,,,,119,testing_3,sh2x,i,sh2x_i,sh2x_1_ishi.wav,sh2x_8_ixi.wav,,FALSE,FALSE,,,,,,,,,,,,,,j,5.336,space,5.573,,,,,,,,0,66,66,118,1,,
60977fd69248772da45d3bd3,2023-06-16_20h44.53.851,phx_ver10,2022.2.5,MacIntel,59.95203837,,,,,,,,,,,,142,testing_3,sh2j,i,sh2j_i,sh2j_8_iji.wav,sh2j_8_iji.wav,,TRUE,FALSE,,,,,,,,,,,,,,f,0.254,space,0.589,,,,,,,,0,67,67,141,1,,
60977fd69248772da45d3bd3,2023-06-16_20h44.53.851,phx_ver10,2022.2.5,MacIntel,59.95203837,,,,,,,,,,,,20,testing_2,zh2x,au,zh2x_au,zh2x_8_auxau.wav,zh2x_1_auzhau.wav,,FALSE,FALSE,,,,,,,,,,,,,,j,0.335,space,0.567,,,,,,,,0,68,68,19,1,,
60977fd69248772da45d3bd3,2023-06-16_20h44.53.851,phx_ver10,2022.2.5,MacIntel,59.95203837,,,,,,,,,,,,107,testing_3,sh2x,au,sh2x_au,sh2x_1_aushau.wav,sh2x_8_auxau.wav,,FALSE,FALSE,,,,,,,,,,,,,,f,0.201,space,0.454,,,,,,,,0,69,69,106,1,,
60977fd69248772da45d3bd3,2023-06-16_20h44.53.851,phx_ver10,2022.2.5,MacIntel,59.95203837,,,,,,,,,,,,111,testing_3,sh2x,e,sh2x_e,sh2x_1_eshe.wav,sh2x_8_exe.wav,,FALSE,FALSE,,,,,,,,,,,,,,f,0.284,space,0.55,,,,,,,,0,70,70,110,1,,
60977fd69248772da45d3bd3,2023-06-16_20h44.53.851,phx_ver10,2022.2.5,MacIntel,59.95203837,,,,,,,,,,,,27,testing_3,zh2sh,a,zh2sh_a,zh2sh_1_azha.wav,zh2sh_8_asha.wav,,FALSE,FALSE,,,,,,,,,,,,,,j,0.104,space,0.373,,,,,,,,0,71,71,26,1,,
60977fd69248772da45d3bd3,2023-06-16_20h44.53.851,phx_ver10,2022.2.5,MacIntel,59.95203837,,,,,,,,,,,,52,testing_3,zh2j,a,zh2j_a,zh2j_8_aja.wav,zh2j_1_azha.wav,,FALSE,FALSE,,,,,,,,,,,,,,f,0.171,space,0.418,,,,,,,,0,72,72,51,1,,
60977fd69248772da45d3bd3,2023-06-16_20h44.53.851,phx_ver10,2022.2.5,MacIntel,59.95203837,,,,,,,,,,,,54,testing_3,zh2j,ai,zh2j_ai,zh2j_8_aijai.wav,zh2j_8_aijai.wav,,TRUE,FALSE,,,,,,,,,,,,,,f,1.72,space,2.247,,,,,,,,0,73,73,53,1,,
60977fd69248772da45d3bd3,2023-06-16_20h44.53.851,phx_ver10,2022.2.5,MacIntel,59.95203837,,,,,,,,,,,,44,testing_3,zh2sh,ei,zh2sh_ei,zh2sh_8_eishei.wav,zh2sh_1_eizhei.wav,,FALSE,FALSE,,,,,,,,,,,,,,j,0.336,space,0.607,,,,,,,,0,74,74,43,1,,
60977fd69248772da45d3bd3,2023-06-16_20h44.53.851,phx_ver10,2022.2.5,MacIntel,59.95203837,,,,,,,,,,,,79,testing_3,j2x,ai,j2x_ai,j2x_1_aijai.wav,j2x_8_aixai.wav,,FALSE,FALSE,,,,,,,,,,,,,,j,0.104,space,0.353,,,,,,,,0,75,75,78,1,,
60977fd69248772da45d3bd3,2023-06-16_20h44.53.851,phx_ver10,2022.2.5,MacIntel,59.95203837,,,,,,,,,,,,73,testing_3,j2x,a,j2x_a,j2x_1_aja.wav,j2x_1_aja.wav,,TRUE,FALSE,,,,,,,,,,,,,,f,0.069,space,0.343,,,,,,,,0,76,76,72,1,,
60977fd69248772da45d3bd3,2023-06-16_20h44.53.851,phx_ver10,2022.2.5,MacIntel,59.95203837,,,,,,,,,,,,11,testing_1,zh2x,i,zh2x_i,zh2x_1_izhi.wav,zh2x_8_ixi.wav,,FALSE,TRUE,,,,,,,,,,,,,,j,0.233,space,0.485,,,,,,,,0,77,77,10,1,,
60977fd69248772da45d3bd3,2023-06-16_20h44.53.851,phx_ver10,2022.2.5,MacIntel,59.95203837,,,,,,,,,,,,50,testing_3,zh2j,a,zh2j_a,zh2j_8_aja.wav,zh2j_8_aja.wav,,TRUE,FALSE,,,,,,,,,,,,,,f,0.121,space,0.338,,,,,,,,0,78,78,49,1,,
60977fd69248772da45d3bd3,2023-06-16_20h44.53.851,phx_ver10,2022.2.5,MacIntel,59.95203837,,,,,,,,,,,,144,testing_3,sh2j,i,sh2j_i,sh2j_8_iji.wav,sh2j_1_ishi.wav,,FALSE,FALSE,,,,,,,,,,,,,,j,0.402,space,0.72,,,,,,,,0,79,79,143,1,,
60977fd69248772da45d3bd3,2023-06-16_20h44.53.851,phx_ver10,2022.2.5,MacIntel,59.95203837,,,,,,,,,,,,108,testing_3,sh2x,au,sh2x_au,sh2x_8_auxau.wav,sh2x_1_aushau.wav,,FALSE,FALSE,,,,,,,,,,,,,,f,0.434,space,0.688,,,,,,,,0,80,80,107,1,,
60977fd69248772da45d3bd3,2023-06-16_20h44.53.851,phx_ver10,2022.2.5,MacIntel,59.95203837,,,,,,,,,,,,95,testing_3,j2x,i,j2x_i,j2x_1_iji.wav,j2x_8_ixi.wav,,FALSE,FALSE,,,,,,,,,,,,,,f,0.67,space,0.919,,,,,,,,0,81,81,94,1,,
60977fd69248772da45d3bd3,2023-06-16_20h44.53.851,phx_ver10,2022.2.5,MacIntel,59.95203837,,,,,,,,,,,,2,testing_1,zh2x,a,zh2x_a,zh2x_8_axa.wav,zh2x_8_axa_copy.wav,,TRUE,TRUE,,,,,,,,,,,,,,f,0.217,space,0.435,,,,,,,,0,82,82,1,1,,
60977fd69248772da45d3bd3,2023-06-16_20h44.53.851,phx_ver10,2022.2.5,MacIntel,59.95203837,,,,,,,,,,,,46,testing_3,zh2sh,i,zh2sh_i,zh2sh_8_ishi.wav,zh2sh_8_ishi.wav,,TRUE,FALSE,,,,,,,,,,,,,,f,0.132,space,0.35,,,,,,,,0,83,83,45,1,,
60977fd69248772da45d3bd3,2023-06-16_20h44.53.851,phx_ver10,2022.2.5,MacIntel,59.95203837,,,,,,,,,,,,10,testing_1,zh2x,i,zh2x_i,zh2x_8_ixi.wav,zh2x_8_ixi_copy.wav,,TRUE,TRUE,,,,,,,,,,,,,,f,0.253,space,0.502,,,,,,,,0,84,84,9,1,,
60977fd69248772da45d3bd3,2023-06-16_20h44.53.851,phx_ver10,2022.2.5,MacIntel,59.95203837,,,,,,,,,,,,92,testing_3,j2x,ei,j2x_ei,j2x_8_eixei.wav,j2x_1_eijei.wav,,FALSE,FALSE,,,,,,,,,,,,,,j,0.519,space,0.769,,,,,,,,0,85,85,91,1,,
60977fd69248772da45d3bd3,2023-06-16_20h44.53.851,phx_ver10,2022.2.5,MacIntel,59.95203837,,,,,,,,,,,,22,testing_2,zh2x,ei,zh2x_ei,zh2x_8_eixei.wav,zh2x_8_eixei.wav,,TRUE,FALSE,,,,,,,,,,,,,,f,0.088,space,0.301,,,,,,,,0,86,86,21,1,,
60977fd69248772da45d3bd3,2023-06-16_20h44.53.851,phx_ver10,2022.2.5,MacIntel,59.95203837,,,,,,,,,,,,126,testing_3,sh2j,ai,sh2j_ai,sh2j_8_aijai.wav,sh2j_8_aijai.wav,,TRUE,FALSE,,,,,,,,,,,,,,f,1.884,space,2.171,,,,,,,,0,87,87,125,1,,
60977fd69248772da45d3bd3,2023-06-16_20h44.53.851,phx_ver10,2022.2.5,MacIntel,59.95203837,,,,,,,,,,,,91,testing_3,j2x,ei,j2x_ei,j2x_1_eijei.wav,j2x_8_eixei.wav,,FALSE,FALSE,,,,,,,,,,,,,,j,4.087,space,4.468,,,,,,,,0,88,88,90,1,,
60977fd69248772da45d3bd3,2023-06-16_20h44.53.851,phx_ver10,2022.2.5,MacIntel,59.95203837,,,,,,,,,,,,80,testing_3,j2x,ai,j2x_ai,j2x_8_aixai.wav,j2x_1_aijai.wav,,FALSE,FALSE,,,,,,,,,,,,,,j,0.556,space,0.803,,,,,,,,0,89,89,79,1,,
60977fd69248772da45d3bd3,2023-06-16_20h44.53.851,phx_ver10,2022.2.5,MacIntel,59.95203837,,,,,,,,,,,,69,testing_3,zh2j,i,zh2j_i,zh2j_1_izhi.wav,zh2j_1_izhi.wav,,TRUE,FALSE,,,,,,,,,,,,,,f,0.274,space,0.521,,,,,,,,0,90,90,68,1,,
60977fd69248772da45d3bd3,2023-06-16_20h44.53.851,phx_ver10,2022.2.5,MacIntel,59.95203837,,,,,,,,,,,,14,testing_2,zh2x,ai,zh2x_ai,zh2x_8_aixai.wav,zh2x_8_aixai.wav,,TRUE,FALSE,,,,,,,,,,,,,,f,2.265,space,2.589,,,,,,,,0,91,91,13,1,,
60977fd69248772da45d3bd3,2023-06-16_20h44.53.851,phx_ver10,2022.2.5,MacIntel,59.95203837,,,,,,,,,,,,35,testing_3,zh2sh,au,zh2sh_au,zh2sh_1_auzhau.wav,zh2sh_8_aushau.wav,,FALSE,FALSE,,,,,,,,,,,,,,j,0.31,space,0.523,,,,,,,,0,92,92,34,1,,
60977fd69248772da45d3bd3,2023-06-16_20h44.53.851,phx_ver10,2022.2.5,MacIntel,59.95203837,,,,,,,,,,,,109,testing_3,sh2x,e,sh2x_e,sh2x_1_eshe.wav,sh2x_1_eshe.wav,,TRUE,FALSE,,,,,,,,,,,,,,f,0.07,space,0.336,,,,,,,,0,93,93,108,1,,
60977fd69248772da45d3bd3,2023-06-16_20h44.53.851,phx_ver10,2022.2.5,MacIntel,59.95203837,,,,,,,,,,,,110,testing_3,sh2x,e,sh2x_e,sh2x_8_exe.wav,sh2x_8_exe.wav,,TRUE,FALSE,,,,,,,,,,,,,,f,0.003,space,0.317,,,,,,,,0,94,94,109,1,,
60977fd69248772da45d3bd3,2023-06-16_20h44.53.851,phx_ver10,2022.2.5,MacIntel,59.95203837,,,,,,,,,,,,98,testing_3,sh2x,a,sh2x_a,sh2x_8_axa.wav,sh2x_8_axa.wav,,TRUE,FALSE,,,,,,,,,,,,,,f,0.24,space,0.508,,,,,,,,0,95,95,97,1,,
60977fd69248772da45d3bd3,2023-06-16_20h44.53.851,phx_ver10,2022.2.5,MacIntel,59.95203837,,,,,,,,,,,,40,testing_3,zh2sh,e,zh2sh_e,zh2sh_8_eshe.wav,zh2sh_1_ezhe.wav,,FALSE,FALSE,,,,,,,,,,,,,,j,0.624,space,0.887,,,,,,,,0,96,96,39,1,,
60977fd69248772da45d3bd3,2023-06-16_20h44.53.851,phx_ver10,2022.2.5,MacIntel,59.95203837,,,,,,,,,,,,89,testing_3,j2x,ei,j2x_ei,j2x_1_eijei.wav,j2x_1_eijei.wav,,TRUE,FALSE,,,,,,,,,,,,,,f,0.771,space,1.022,,,,,,,,0,97,97,88,1,,
60977fd69248772da45d3bd3,2023-06-16_20h44.53.851,phx_ver10,2022.2.5,MacIntel,59.95203837,,,,,,,,,,,,137,testing_3,sh2j,ei,sh2j_ei,sh2j_1_eishei.wav,sh2j_1_eishei.wav,,TRUE,FALSE,,,,,,,,,,,,,,f,1.217,space,1.449,,,,,,,,0,98,98,136,1,,
60977fd69248772da45d3bd3,2023-06-16_20h44.53.851,phx_ver10,2022.2.5,MacIntel,59.95203837,,,,,,,,,,,,124,testing_3,sh2j,a,sh2j_a,sh2j_8_aja.wav,sh2j_1_asha.wav,,FALSE,FALSE,,,,,,,,,,,,,,j,0.301,space,0.518,,,,,,,,0,99,99,123,1,,
60977fd69248772da45d3bd3,2023-06-16_20h44.53.851,phx_ver10,2022.2.5,MacIntel,59.95203837,,,,,,,,,,,,72,testing_3,zh2j,i,zh2j_i,zh2j_8_iji.wav,zh2j_1_izhi.wav,,FALSE,FALSE,,,,,,,,,,,,,,f,0.604,space,0.834,,,,,,,,0,100,100,71,1,,
60977fd69248772da45d3bd3,2023-06-16_20h44.53.851,phx_ver10,2022.2.5,MacIntel,59.95203837,,,,,,,,,,,,66,testing_3,zh2j,ei,zh2j_ei,zh2j_8_eijei.wav,zh2j_8_eijei.wav,,TRUE,FALSE,,,,,,,,,,,,,,f,0.131,space,0.336,,,,,,,,0,101,101,65,1,,
60977fd69248772da45d3bd3,2023-06-16_20h44.53.851,phx_ver10,2022.2.5,MacIntel,59.95203837,,,,,,,,,,,,85,testing_3,j2x,e,j2x_e,j2x_1_eje.wav,j2x_1_eje.wav,,TRUE,FALSE,,,,,,,,,,,,,,f,0.137,space,0.349,,,,,,,,0,102,102,84,1,,
60977fd69248772da45d3bd3,2023-06-16_20h44.53.851,phx_ver10,2022.2.5,MacIntel,59.95203837,,,,,,,,,,,,76,testing_3,j2x,a,j2x_a,j2x_8_axa.wav,j2x_1_aja.wav,,FALSE,FALSE,,,,,,,,,,,,,,j,0.401,space,0.659,,,,,,,,0,103,103,75,1,,
60977fd69248772da45d3bd3,2023-06-16_20h44.53.851,phx_ver10,2022.2.5,MacIntel,59.95203837,,,,,,,,,,,,97,testing_3,sh2x,a,sh2x_a,sh2x_1_asha.wav,sh2x_1_asha.wav,,TRUE,FALSE,,,,,,,,,,,,,,f,0.033,space,0.252,,,,,,,,0,104,104,96,1,,
60977fd69248772da45d3bd3,2023-06-16_20h44.53.851,phx_ver10,2022.2.5,MacIntel,59.95203837,,,,,,,,,,,,115,testing_3,sh2x,ei,sh2x_ei,sh2x_1_eishei.wav,sh2x_8_eixei.wav,,FALSE,FALSE,,,,,,,,,,,,,,f,0.056,space,0.268,,,,,,,,0,105,105,114,1,,
60977fd69248772da45d3bd3,2023-06-16_20h44.53.851,phx_ver10,2022.2.5,MacIntel,59.95203837,,,,,,,,,,,,130,testing_3,sh2j,au,sh2j_au,sh2j_8_aujau.wav,sh2j_8_aujau.wav,,TRUE,FALSE,,,,,,,,,,,,,,f,2.087,space,2.49,,,,,,,,0,106,106,129,1,,
60977fd69248772da45d3bd3,2023-06-16_20h44.53.851,phx_ver10,2022.2.5,MacIntel,59.95203837,,,,,,,,,,,,123,testing_3,sh2j,a,sh2j_a,sh2j_1_asha.wav,sh2j_8_aja.wav,,FALSE,FALSE,,,,,,,,,,,,,,j,1.214,space,1.581,,,,,,,,0,107,107,122,1,,
60977fd69248772da45d3bd3,2023-06-16_20h44.53.851,phx_ver10,2022.2.5,MacIntel,59.95203837,,,,,,,,,,,,23,testing_2,zh2x,ei,zh2x_ei,zh2x_1_eizhei.wav,zh2x_8_eixei.wav,,FALSE,FALSE,,,,,,,,,,,,,,j,0.354,space,0.8,,,,,,,,0,108,108,22,1,,
60977fd69248772da45d3bd3,2023-06-16_20h44.53.851,phx_ver10,2022.2.5,MacIntel,59.95203837,,,,,,,,,,,,3,testing_1,zh2x,a,zh2x_a,zh2x_1_azha.wav,zh2x_8_axa.wav,,FALSE,TRUE,,,,,,,,,,,,,,j,0.333,space,0.602,,,,,,,,0,109,109,2,1,,
60977fd69248772da45d3bd3,2023-06-16_20h44.53.851,phx_ver10,2022.2.5,MacIntel,59.95203837,,,,,,,,,,,,68,testing_3,zh2j,ei,zh2j_ei,zh2j_8_eijei.wav,zh2j_1_eizhei.wav,,FALSE,FALSE,,,,,,,,,,,,,,f,0.301,space,0.684,,,,,,,,0,110,110,67,1,,
60977fd69248772da45d3bd3,2023-06-16_20h44.53.851,phx_ver10,2022.2.5,MacIntel,59.95203837,,,,,,,,,,,,58,testing_3,zh2j,au,zh2j_au,zh2j_8_aujau.wav,zh2j_8_aujau.wav,,TRUE,FALSE,,,,,,,,,,,,,,f,0.27,space,0.62,,,,,,,,0,111,111,57,1,,
60977fd69248772da45d3bd3,2023-06-16_20h44.53.851,phx_ver10,2022.2.5,MacIntel,59.95203837,,,,,,,,,,,,122,testing_3,sh2j,a,sh2j_a,sh2j_8_aja.wav,sh2j_8_aja.wav,,TRUE,FALSE,,,,,,,,,,,,,,f,0.006,space,0.401,,,,,,,,0,112,112,121,1,,
60977fd69248772da45d3bd3,2023-06-16_20h44.53.851,phx_ver10,2022.2.5,MacIntel,59.95203837,,,,,,,,,,,,29,testing_3,zh2sh,ai,zh2sh_ai,zh2sh_1_aizhai.wav,zh2sh_1_aizhai.wav,,TRUE,FALSE,,,,,,,,,,,,,,f,1.688,space,2.035,,,,,,,,0,113,113,28,1,,
60977fd69248772da45d3bd3,2023-06-16_20h44.53.851,phx_ver10,2022.2.5,MacIntel,59.95203837,,,,,,,,,,,,141,testing_3,sh2j,i,sh2j_i,sh2j_1_ishi.wav,sh2j_1_ishi.wav,,TRUE,FALSE,,,,,,,,,,,,,,f,0.372,space,0.704,,,,,,,,0,114,114,140,1,,
60977fd69248772da45d3bd3,2023-06-16_20h44.53.851,phx_ver10,2022.2.5,MacIntel,59.95203837,,,,,,,,,,,,12,testing_1,zh2x,i,zh2x_i,zh2x_8_ixi.wav,zh2x_1_izhi.wav,,FALSE,TRUE,,,,,,,,,,,,,,j,0.419,space,0.702,,,,,,,,0,115,115,11,1,,
60977fd69248772da45d3bd3,2023-06-16_20h44.53.851,phx_ver10,2022.2.5,MacIntel,59.95203837,,,,,,,,,,,,78,testing_3,j2x,ai,j2x_ai,j2x_8_aixai.wav,j2x_8_aixai.wav,,TRUE,FALSE,,,,,,,,,,,,,,f,0.683,space,1.001,,,,,,,,0,116,116,77,1,,
60977fd69248772da45d3bd3,2023-06-16_20h44.53.851,phx_ver10,2022.2.5,MacIntel,59.95203837,,,,,,,,,,,,116,testing_3,sh2x,ei,sh2x_ei,sh2x_8_eixei.wav,sh2x_1_eishei.wav,,FALSE,FALSE,,,,,,,,,,,,,,j,0.287,space,0.602,,,,,,,,0,117,117,115,1,,
60977fd69248772da45d3bd3,2023-06-16_20h44.53.851,phx_ver10,2022.2.5,MacIntel,59.95203837,,,,,,,,,,,,117,testing_3,sh2x,i,sh2x_i,sh2x_1_ishi.wav,sh2x_1_ishi.wav,,TRUE,FALSE,,,,,,,,,,,,,,f,0.217,space,0.601,,,,,,,,0,118,118,116,1,,
60977fd69248772da45d3bd3,2023-06-16_20h44.53.851,phx_ver10,2022.2.5,MacIntel,59.95203837,,,,,,,,,,,,106,testing_3,sh2x,au,sh2x_au,sh2x_8_auxau.wav,sh2x_8_auxau.wav,,TRUE,FALSE,,,,,,,,,,,,,,f,0.316,space,0.654,,,,,,,,0,119,119,105,1,,
60977fd69248772da45d3bd3,2023-06-16_20h44.53.851,phx_ver10,2022.2.5,MacIntel,59.95203837,,,,,,,,,,,,136,testing_3,sh2j,e,sh2j_e,sh2j_8_eje.wav,sh2j_1_eshe.wav,,FALSE,FALSE,,,,,,,,,,,,,,j,0.154,space,0.473,,,,,,,,0,120,120,135,1,,
60977fd69248772da45d3bd3,2023-06-16_20h44.53.851,phx_ver10,2022.2.5,MacIntel,59.95203837,,,,,,,,,,,,131,testing_3,sh2j,au,sh2j_au,sh2j_1_aushau.wav,sh2j_8_aujau.wav,,FALSE,FALSE,,,,,,,,,,,,,,j,0.303,space,0.584,,,,,,,,0,121,121,130,1,,
60977fd69248772da45d3bd3,2023-06-16_20h44.53.851,phx_ver10,2022.2.5,MacIntel,59.95203837,,,,,,,,,,,,70,testing_3,zh2j,i,zh2j_i,zh2j_8_iji.wav,zh2j_8_iji.wav,,TRUE,FALSE,,,,,,,,,,,,,,f,0.47,space,0.837,,,,,,,,0,122,122,69,1,,
60977fd69248772da45d3bd3,2023-06-16_20h44.53.851,phx_ver10,2022.2.5,MacIntel,59.95203837,,,,,,,,,,,,112,testing_3,sh2x,e,sh2x_e,sh2x_8_exe.wav,sh2x_1_eshe.wav,,FALSE,FALSE,,,,,,,,,,,,,,f,0.419,space,0.735,,,,,,,,0,123,123,111,1,,
60977fd69248772da45d3bd3,2023-06-16_20h44.53.851,phx_ver10,2022.2.5,MacIntel,59.95203837,,,,,,,,,,,,114,testing_3,sh2x,ei,sh2x_ei,sh2x_8_eixei.wav,sh2x_8_eixei.wav,,TRUE,FALSE,,,,,,,,,,,,,,f,0.334,space,0.635,,,,,,,,0,124,124,113,1,,
60977fd69248772da45d3bd3,2023-06-16_20h44.53.851,phx_ver10,2022.2.5,MacIntel,59.95203837,,,,,,,,,,,,37,testing_3,zh2sh,e,zh2sh_e,zh2sh_1_ezhe.wav,zh2sh_1_ezhe.wav,,TRUE,FALSE,,,,,,,,,,,,,,f,0.148,space,0.649,,,,,,,,0,125,125,36,1,,
60977fd69248772da45d3bd3,2023-06-16_20h44.53.851,phx_ver10,2022.2.5,MacIntel,59.95203837,,,,,,,,,,,,31,testing_3,zh2sh,ai,zh2sh_ai,zh2sh_1_aizhai.wav,zh2sh_8_aishai.wav,,FALSE,FALSE,,,,,,,,,,,,,,j,0.235,space,0.701,,,,,,,,0,126,126,30,1,,
60977fd69248772da45d3bd3,2023-06-16_20h44.53.851,phx_ver10,2022.2.5,MacIntel,59.95203837,,,,,,,,,,,,101,testing_3,sh2x,ai,sh2x_ai,sh2x_1_aishai.wav,sh2x_1_aishai.wav,,TRUE,FALSE,,,,,,,,,,,,,,f,0.084,space,0.387,,,,,,,,0,127,127,100,1,,
60977fd69248772da45d3bd3,2023-06-16_20h44.53.851,phx_ver10,2022.2.5,MacIntel,59.95203837,,,,,,,,,,,,113,testing_3,sh2x,ei,sh2x_ei,sh2x_1_eishei.wav,sh2x_1_eishei.wav,,TRUE,FALSE,,,,,,,,,,,,,,f,0.022,space,0.335,,,,,,,,0,128,128,112,1,,
60977fd69248772da45d3bd3,2023-06-16_20h44.53.851,phx_ver10,2022.2.5,MacIntel,59.95203837,,,,,,,,,,,,36,testing_3,zh2sh,au,zh2sh_au,zh2sh_8_aushau.wav,zh2sh_1_auzhau.wav,,FALSE,FALSE,,,,,,,,,,,,,,j,0.339,space,0.751,,,,,,,,0,129,129,35,1,,
60977fd69248772da45d3bd3,2023-06-16_20h44.53.851,phx_ver10,2022.2.5,MacIntel,59.95203837,,,,,,,,,,,,96,testing_3,j2x,i,j2x_i,j2x_8_ixi.wav,j2x_1_iji.wav,,FALSE,FALSE,,,,,,,,,,,,,,f,0.039,space,0.657,,,,,,,,0,130,130,95,1,,
60977fd69248772da45d3bd3,2023-06-16_20h44.53.851,phx_ver10,2022.2.5,MacIntel,59.95203837,,,,,,,,,,,,19,testing_2,zh2x,au,zh2x_au,zh2x_1_auzhau.wav,zh2x_8_auxau.wav,,FALSE,FALSE,,,,,,,,,,,,,,j,0.439,space,0.87,,,,,,,,0,131,131,18,1,,
60977fd69248772da45d3bd3,2023-06-16_20h44.53.851,phx_ver10,2022.2.5,MacIntel,59.95203837,,,,,,,,,,,,102,testing_3,sh2x,ai,sh2x_ai,sh2x_8_aixai.wav,sh2x_8_aixai.wav,,TRUE,FALSE,,,,,,,,,,,,,,f,0.122,space,0.604,,,,,,,,0,132,132,101,1,,
60977fd69248772da45d3bd3,2023-06-16_20h44.53.851,phx_ver10,2022.2.5,MacIntel,59.95203837,,,,,,,,,,,,48,testing_3,zh2sh,i,zh2sh_i,zh2sh_8_ishi.wav,zh2sh_1_izhi.wav,,FALSE,FALSE,,,,,,,,,,,,,,j,0.284,space,0.718,,,,,,,,0,133,133,47,1,,
60977fd69248772da45d3bd3,2023-06-16_20h44.53.851,phx_ver10,2022.2.5,MacIntel,59.95203837,,,,,,,,,,,,134,testing_3,sh2j,e,sh2j_e,sh2j_8_eje.wav,sh2j_8_eje.wav,,TRUE,FALSE,,,,,,,,,,,,,,f,0.137,space,0.652,,,,,,,,0,134,134,133,1,,
60977fd69248772da45d3bd3,2023-06-16_20h44.53.851,phx_ver10,2022.2.5,MacIntel,59.95203837,,,,,,,,,,,,87,testing_3,j2x,e,j2x_e,j2x_1_eje.wav,j2x_8_exe.wav,,FALSE,FALSE,,,,,,,,,,,,,,j,0.36,space,0.769,,,,,,,,0,135,135,86,1,,
60977fd69248772da45d3bd3,2023-06-16_20h44.53.851,phx_ver10,2022.2.5,MacIntel,59.95203837,,,,,,,,,,,,103,testing_3,sh2x,ai,sh2x_ai,sh2x_1_aishai.wav,sh2x_8_aixai.wav,,FALSE,FALSE,,,,,,,,,,,,,,f,0.557,space,0.872,,,,,,,,0,136,136,102,1,,
60977fd69248772da45d3bd3,2023-06-16_20h44.53.851,phx_ver10,2022.2.5,MacIntel,59.95203837,,,,,,,,,,,,49,testing_3,zh2j,a,zh2j_a,zh2j_1_azha.wav,zh2j_1_azha.wav,,TRUE,FALSE,,,,,,,,,,,,,,f,0.093,space,0.955,,,,,,,,0,137,137,48,1,,
60977fd69248772da45d3bd3,2023-06-16_20h44.53.851,phx_ver10,2022.2.5,MacIntel,59.95203837,,,,,,,,,,,,77,testing_3,j2x,ai,j2x_ai,j2x_1_aijai.wav,j2x_1_aijai.wav,,TRUE,FALSE,,,,,,,,,,,,,,f,0.167,space,0.618,,,,,,,,0,138,138,76,1,,
60977fd69248772da45d3bd3,2023-06-16_20h44.53.851,phx_ver10,2022.2.5,MacIntel,59.95203837,,,,,,,,,,,,25,testing_3,zh2sh,a,zh2sh_a,zh2sh_1_azha.wav,zh2sh_1_azha.wav,,TRUE,FALSE,,,,,,,,,,,,,,f,0.035,space,0.537,,,,,,,,0,139,139,24,1,,
60977fd69248772da45d3bd3,2023-06-16_20h44.53.851,phx_ver10,2022.2.5,MacIntel,59.95203837,,,,,,,,,,,,94,testing_3,j2x,i,j2x_i,j2x_8_ixi.wav,j2x_8_ixi.wav,,TRUE,FALSE,,,,,,,,,,,,,,f,0.22,space,0.754,,,,,,,,0,140,140,93,1,,
60977fd69248772da45d3bd3,2023-06-16_20h44.53.851,phx_ver10,2022.2.5,MacIntel,59.95203837,,,,,,,,,,,,93,testing_3,j2x,i,j2x_i,j2x_1_iji.wav,j2x_1_iji.wav,,TRUE,FALSE,,,,,,,,,,,,,,f,0.1,space,0.484,,,,,,,,0,141,141,92,1,,
60977fd69248772da45d3bd3,2023-06-16_20h44.53.851,phx_ver10,2022.2.5,MacIntel,59.95203837,,,,,,,,,,,,42,testing_3,zh2sh,ei,zh2sh_ei,zh2sh_8_eishei.wav,zh2sh_8_eishei.wav,,TRUE,FALSE,,,,,,,,,,,,,,j,0.506,space,1.135,,,,,,,,0,142,142,41,1,,
60977fd69248772da45d3bd3,2023-06-16_20h44.53.851,phx_ver10,2022.2.5,MacIntel,59.95203837,,,,,,,,,,,,13,testing_2,zh2x,ai,zh2x_ai,zh2x_1_aizhai.wav,zh2x_1_aizhai.wav,,TRUE,FALSE,,,,,,,,,,,,,,f,0.316,space,0.691,,,,,,,,0,143,143,12,1,,
60977fd69248772da45d3bd3,2023-06-16_20h44.53.851,phx_ver10,2022.2.5,MacIntel,59.95203837,,,,,,,,,,,,,,,,,,,,,,,,,,,,,,,,,,,,,,,,,,,,,,,,,,,space,4.59
