participant,date,expName,psychopyVersion,OS,frameRate,space_1.keys,space_1.rt,space_2.keys,space_2.rt,space_train.keys,space_train.rt,training.thisRepN,training.thisTrialN,training.thisN,training.thisIndex,training.ran,token_id,task,continuum,vowel,series,sound_1,sound_2,img,same,trained,FJ_attn.keys,FJ_attn.rt,space_attn.keys,space_attn.rt,if_attn_test.thisRepN,if_attn_test.thisTrialN,if_attn_test.thisN,if_attn_test.thisIndex,if_attn_test.ran,space_trans_1.keys,space_trans_1.rt,space_trans_11.keys,space_trans_11.rt,FJ_test.keys,FJ_test.rt,space_test.keys,space_test.rt,testing_pre.thisRepN,testing_pre.thisTrialN,testing_pre.thisN,testing_pre.thisIndex,testing_pre.ran,space_trans_2.keys,space_trans_2.rt,testing_all.thisRepN,testing_all.thisTrialN,testing_all.thisN,testing_all.thisIndex,testing_all.ran,space_ending.keys,space_ending.rt
60c9b0886e03c28f26d97b19,2023-06-16_10h14.26.973,phx_ver10,2022.2.5,Win32,60.0060006,,,,,,,,,,,,,,,,,,,,,,,,,,,,,,,,,,,,,,,,,,,,,,,,,,,,
60c9b0886e03c28f26d97b19,2023-06-16_10h14.26.973,phx_ver10,2022.2.5,Win32,60.0060006,space,6.3753,,,,,,,,,,,,,,,,,,,,,,,,,,,,,,,,,,,,,,,,,,,,,,,,,,
60c9b0886e03c28f26d97b19,2023-06-16_10h14.26.973,phx_ver10,2022.2.5,Win32,60.0060006,,,space,0.889,,,,,,,,,,,,,,,,,,,,,,,,,,,,,,,,,,,,,,,,,,,,,,,,
60c9b0886e03c28f26d97b19,2023-06-16_10h14.26.973,phx_ver10,2022.2.5,Win32,60.0060006,,,,,space,1.2129,0,0,0,44,1,45,training,zh2x,i,zh2x_i,zh2x_7_ixi.wav,,ixi.jpg,,,,,,,,,,,,,,,,,,,,,,,,,,,,,,,,,
60c9b0886e03c28f26d97b19,2023-06-16_10h14.26.973,phx_ver10,2022.2.5,Win32,60.0060006,,,,,space,1.7364,0,1,1,26,1,27,training,zh2x,e,zh2x_e,zh2x_6_exe.wav,,exe.jpg,,,,,,,,,,,,,,,,,,,,,,,,,,,,,,,,,
60c9b0886e03c28f26d97b19,2023-06-16_10h14.26.973,phx_ver10,2022.2.5,Win32,60.0060006,,,,,space,1.332700001,0,2,2,37,1,38,training,zh2x,i,zh2x_i,zh2x_3_izhi.wav,,izhi.jpg,,,,,,,,,,,,,,,,,,,,,,,,,,,,,,,,,
60c9b0886e03c28f26d97b19,2023-06-16_10h14.26.973,phx_ver10,2022.2.5,Win32,60.0060006,,,,,space,1.4223,0,3,3,6,1,7,training,zh2x,a,zh2x_a,zh2x_3_azha.wav,,azha.jpg,,,,,,,,,,,,,,,,,,,,,,,,,,,,,,,,,
60c9b0886e03c28f26d97b19,2023-06-16_10h14.26.973,phx_ver10,2022.2.5,Win32,60.0060006,,,,,space,0.8834,0,4,4,2,1,3,training,zh2x,a,zh2x_a,zh2x_2_azha.wav,,azha.jpg,,,,,,,,,,,,,,,,,,,,,,,,,,,,,,,,,
60c9b0886e03c28f26d97b19,2023-06-16_10h14.26.973,phx_ver10,2022.2.5,Win32,60.0060006,,,,,space,0.6167,0,5,5,5,1,6,training,zh2x,a,zh2x_a,zh2x_3_azha.wav,,azha.jpg,,,,,,,,,,,,,,,,,,,,,,,,,,,,,,,,,
60c9b0886e03c28f26d97b19,2023-06-16_10h14.26.973,phx_ver10,2022.2.5,Win32,60.0060006,,,,,,,,,,,,,attn_test,,,,zh2x_8_exe.wav,zh2x_1_azha.wav,azha.jpg,RIGHT,,j,0.5457,space,1.4143,0,0,0,0,1,,,,,,,,,,,,,,,,,,,,,,
60c9b0886e03c28f26d97b19,2023-06-16_10h14.26.973,phx_ver10,2022.2.5,Win32,60.0060006,,,,,space,0.8479,0,6,6,27,1,28,training,zh2x,e,zh2x_e,zh2x_7_exe.wav,,exe.jpg,,,,,,,,,,,,,,,,,,,,,,,,,,,,,,,,,
60c9b0886e03c28f26d97b19,2023-06-16_10h14.26.973,phx_ver10,2022.2.5,Win32,60.0060006,,,,,space,0.9217,0,7,7,13,1,14,training,zh2x,a,zh2x_a,zh2x_7_axa.wav,,axa.jpg,,,,,,,,,,,,,,,,,,,,,,,,,,,,,,,,,
60c9b0886e03c28f26d97b19,2023-06-16_10h14.26.973,phx_ver10,2022.2.5,Win32,60.0060006,,,,,space,0.7646,0,8,8,40,1,41,training,zh2x,i,zh2x_i,zh2x_5_ixi.wav,,ixi.jpg,,,,,,,,,,,,,,,,,,,,,,,,,,,,,,,,,
60c9b0886e03c28f26d97b19,2023-06-16_10h14.26.973,phx_ver10,2022.2.5,Win32,60.0060006,,,,,space,0.8368,0,9,9,38,1,39,training,zh2x,i,zh2x_i,zh2x_3_izhi.wav,,izhi.jpg,,,,,,,,,,,,,,,,,,,,,,,,,,,,,,,,,
60c9b0886e03c28f26d97b19,2023-06-16_10h14.26.973,phx_ver10,2022.2.5,Win32,60.0060006,,,,,space,0.9036,0,10,10,21,1,22,training,zh2x,e,zh2x_e,zh2x_3_ezhe.wav,,ezhe.jpg,,,,,,,,,,,,,,,,,,,,,,,,,,,,,,,,,
60c9b0886e03c28f26d97b19,2023-06-16_10h14.26.973,phx_ver10,2022.2.5,Win32,60.0060006,,,,,space,0.4341,0,11,11,19,1,20,training,zh2x,e,zh2x_e,zh2x_2_ezhe.wav,,ezhe.jpg,,,,,,,,,,,,,,,,,,,,,,,,,,,,,,,,,
60c9b0886e03c28f26d97b19,2023-06-16_10h14.26.973,phx_ver10,2022.2.5,Win32,60.0060006,,,,,,,,,,,,,attn_test,,,,zh2x_1_ezhe.wav,zh2x_8_axa.wav,ezhe.jpg,LEFT,,f,0.3326,space,0.9397,0,0,0,0,1,,,,,,,,,,,,,,,,,,,,,,
60c9b0886e03c28f26d97b19,2023-06-16_10h14.26.973,phx_ver10,2022.2.5,Win32,60.0060006,,,,,space,0.4987,0,12,12,43,1,44,training,zh2x,i,zh2x_i,zh2x_7_ixi.wav,,ixi.jpg,,,,,,,,,,,,,,,,,,,,,,,,,,,,,,,,,
60c9b0886e03c28f26d97b19,2023-06-16_10h14.26.973,phx_ver10,2022.2.5,Win32,60.0060006,,,,,space,1.3172,0,13,13,39,1,40,training,zh2x,i,zh2x_i,zh2x_4_izhi.wav,,izhi.jpg,,,,,,,,,,,,,,,,,,,,,,,,,,,,,,,,,
60c9b0886e03c28f26d97b19,2023-06-16_10h14.26.973,phx_ver10,2022.2.5,Win32,60.0060006,,,,,space,0.4868,0,14,14,32,1,33,training,zh2x,i,zh2x_i,zh2x_1_izhi.wav,,izhi.jpg,,,,,,,,,,,,,,,,,,,,,,,,,,,,,,,,,
60c9b0886e03c28f26d97b19,2023-06-16_10h14.26.973,phx_ver10,2022.2.5,Win32,60.0060006,,,,,space,0.1749,0,15,15,17,1,18,training,zh2x,e,zh2x_e,zh2x_2_ezhe.wav,,ezhe.jpg,,,,,,,,,,,,,,,,,,,,,,,,,,,,,,,,,
60c9b0886e03c28f26d97b19,2023-06-16_10h14.26.973,phx_ver10,2022.2.5,Win32,60.0060006,,,,,space,0.188099999,0,16,16,22,1,23,training,zh2x,e,zh2x_e,zh2x_3_ezhe.wav,,ezhe.jpg,,,,,,,,,,,,,,,,,,,,,,,,,,,,,,,,,
60c9b0886e03c28f26d97b19,2023-06-16_10h14.26.973,phx_ver10,2022.2.5,Win32,60.0060006,,,,,space,0.5665,0,17,17,29,1,30,training,zh2x,e,zh2x_e,zh2x_7_exe.wav,,exe.jpg,,,,,,,,,,,,,,,,,,,,,,,,,,,,,,,,,
60c9b0886e03c28f26d97b19,2023-06-16_10h14.26.973,phx_ver10,2022.2.5,Win32,60.0060006,,,,,,,,,,,,,attn_test,,,,zh2x_8_ixi.wav,zh2x_1_ezhe.wav,ezhe.jpg,RIGHT,,j,0.2229,space,0.839,0,0,0,0,1,,,,,,,,,,,,,,,,,,,,,,
60c9b0886e03c28f26d97b19,2023-06-16_10h14.26.973,phx_ver10,2022.2.5,Win32,60.0060006,,,,,space,0.4033,0,18,18,46,1,47,training,zh2x,i,zh2x_i,zh2x_7_ixi.wav,,ixi.jpg,,,,,,,,,,,,,,,,,,,,,,,,,,,,,,,,,
60c9b0886e03c28f26d97b19,2023-06-16_10h14.26.973,phx_ver10,2022.2.5,Win32,60.0060006,,,,,space,0.100599999,0,19,19,36,1,37,training,zh2x,i,zh2x_i,zh2x_2_izhi.wav,,izhi.jpg,,,,,,,,,,,,,,,,,,,,,,,,,,,,,,,,,
60c9b0886e03c28f26d97b19,2023-06-16_10h14.26.973,phx_ver10,2022.2.5,Win32,60.0060006,,,,,space,0.4475,0,20,20,33,1,34,training,zh2x,i,zh2x_i,zh2x_2_izhi.wav,,izhi.jpg,,,,,,,,,,,,,,,,,,,,,,,,,,,,,,,,,
60c9b0886e03c28f26d97b19,2023-06-16_10h14.26.973,phx_ver10,2022.2.5,Win32,60.0060006,,,,,space,0.1545,0,21,21,31,1,32,training,zh2x,e,zh2x_e,zh2x_8_exe.wav,,exe.jpg,,,,,,,,,,,,,,,,,,,,,,,,,,,,,,,,,
60c9b0886e03c28f26d97b19,2023-06-16_10h14.26.973,phx_ver10,2022.2.5,Win32,60.0060006,,,,,space,0.423200001,0,22,22,20,1,21,training,zh2x,e,zh2x_e,zh2x_2_ezhe.wav,,ezhe.jpg,,,,,,,,,,,,,,,,,,,,,,,,,,,,,,,,,
60c9b0886e03c28f26d97b19,2023-06-16_10h14.26.973,phx_ver10,2022.2.5,Win32,60.0060006,,,,,space,0.1873,0,23,23,4,1,5,training,zh2x,a,zh2x_a,zh2x_2_azha.wav,,azha.jpg,,,,,,,,,,,,,,,,,,,,,,,,,,,,,,,,,
60c9b0886e03c28f26d97b19,2023-06-16_10h14.26.973,phx_ver10,2022.2.5,Win32,60.0060006,,,,,,,,,,,,,attn_test,,,,zh2x_8_ixi.wav,zh2x_1_ezhe.wav,ixi.jpg,LEFT,,f,0.8019,space,1.1522,0,0,0,0,1,,,,,,,,,,,,,,,,,,,,,,
60c9b0886e03c28f26d97b19,2023-06-16_10h14.26.973,phx_ver10,2022.2.5,Win32,60.0060006,,,,,space,1.1662,0,24,24,30,1,31,training,zh2x,e,zh2x_e,zh2x_7_exe.wav,,exe.jpg,,,,,,,,,,,,,,,,,,,,,,,,,,,,,,,,,
60c9b0886e03c28f26d97b19,2023-06-16_10h14.26.973,phx_ver10,2022.2.5,Win32,60.0060006,,,,,space,0.1567,0,25,25,47,1,48,training,zh2x,i,zh2x_i,zh2x_8_ixi.wav,,ixi.jpg,,,,,,,,,,,,,,,,,,,,,,,,,,,,,,,,,
60c9b0886e03c28f26d97b19,2023-06-16_10h14.26.973,phx_ver10,2022.2.5,Win32,60.0060006,,,,,space,0.0366,0,26,26,41,1,42,training,zh2x,i,zh2x_i,zh2x_6_ixi.wav,,ixi.jpg,,,,,,,,,,,,,,,,,,,,,,,,,,,,,,,,,
60c9b0886e03c28f26d97b19,2023-06-16_10h14.26.973,phx_ver10,2022.2.5,Win32,60.0060006,,,,,space,0.468099999,0,27,27,9,1,10,training,zh2x,a,zh2x_a,zh2x_6_axa.wav,,axa.jpg,,,,,,,,,,,,,,,,,,,,,,,,,,,,,,,,,
60c9b0886e03c28f26d97b19,2023-06-16_10h14.26.973,phx_ver10,2022.2.5,Win32,60.0060006,,,,,space,0.1206,0,28,28,8,1,9,training,zh2x,a,zh2x_a,zh2x_5_axa.wav,,axa.jpg,,,,,,,,,,,,,,,,,,,,,,,,,,,,,,,,,
60c9b0886e03c28f26d97b19,2023-06-16_10h14.26.973,phx_ver10,2022.2.5,Win32,60.0060006,,,,,space,0.1367,0,29,29,18,1,19,training,zh2x,e,zh2x_e,zh2x_2_ezhe.wav,,ezhe.jpg,,,,,,,,,,,,,,,,,,,,,,,,,,,,,,,,,
60c9b0886e03c28f26d97b19,2023-06-16_10h14.26.973,phx_ver10,2022.2.5,Win32,60.0060006,,,,,,,,,,,,,attn_test,,,,zh2x_8_axa.wav,zh2x_1_izhi.wav,axa.jpg,LEFT,,f,0.238900001,space,0.5862,0,0,0,0,1,,,,,,,,,,,,,,,,,,,,,,
60c9b0886e03c28f26d97b19,2023-06-16_10h14.26.973,phx_ver10,2022.2.5,Win32,60.0060006,,,,,space,0.284,0,30,30,14,1,15,training,zh2x,a,zh2x_a,zh2x_7_axa.wav,,axa.jpg,,,,,,,,,,,,,,,,,,,,,,,,,,,,,,,,,
60c9b0886e03c28f26d97b19,2023-06-16_10h14.26.973,phx_ver10,2022.2.5,Win32,60.0060006,,,,,space,0.0675,0,31,31,28,1,29,training,zh2x,e,zh2x_e,zh2x_7_exe.wav,,exe.jpg,,,,,,,,,,,,,,,,,,,,,,,,,,,,,,,,,
60c9b0886e03c28f26d97b19,2023-06-16_10h14.26.973,phx_ver10,2022.2.5,Win32,60.0060006,,,,,space,0.1003,0,32,32,42,1,43,training,zh2x,i,zh2x_i,zh2x_6_ixi.wav,,ixi.jpg,,,,,,,,,,,,,,,,,,,,,,,,,,,,,,,,,
60c9b0886e03c28f26d97b19,2023-06-16_10h14.26.973,phx_ver10,2022.2.5,Win32,60.0060006,,,,,space,0.1341,0,33,33,25,1,26,training,zh2x,e,zh2x_e,zh2x_6_exe.wav,,exe.jpg,,,,,,,,,,,,,,,,,,,,,,,,,,,,,,,,,
60c9b0886e03c28f26d97b19,2023-06-16_10h14.26.973,phx_ver10,2022.2.5,Win32,60.0060006,,,,,space,0.0712,0,34,34,24,1,25,training,zh2x,e,zh2x_e,zh2x_5_exe.wav,,exe.jpg,,,,,,,,,,,,,,,,,,,,,,,,,,,,,,,,,
60c9b0886e03c28f26d97b19,2023-06-16_10h14.26.973,phx_ver10,2022.2.5,Win32,60.0060006,,,,,space,0.3846,0,35,35,45,1,46,training,zh2x,i,zh2x_i,zh2x_7_ixi.wav,,ixi.jpg,,,,,,,,,,,,,,,,,,,,,,,,,,,,,,,,,
60c9b0886e03c28f26d97b19,2023-06-16_10h14.26.973,phx_ver10,2022.2.5,Win32,60.0060006,,,,,,,,,,,,,attn_test,,,,zh2x_1_azha.wav,zh2x_8_exe.wav,exe.jpg,RIGHT,,j,0.7166,space,1.0666,0,0,0,0,1,,,,,,,,,,,,,,,,,,,,,,
60c9b0886e03c28f26d97b19,2023-06-16_10h14.26.973,phx_ver10,2022.2.5,Win32,60.0060006,,,,,space,0.2673,0,36,36,35,1,36,training,zh2x,i,zh2x_i,zh2x_2_izhi.wav,,izhi.jpg,,,,,,,,,,,,,,,,,,,,,,,,,,,,,,,,,
60c9b0886e03c28f26d97b19,2023-06-16_10h14.26.973,phx_ver10,2022.2.5,Win32,60.0060006,,,,,space,0.0965,0,37,37,11,1,12,training,zh2x,a,zh2x_a,zh2x_7_axa.wav,,axa.jpg,,,,,,,,,,,,,,,,,,,,,,,,,,,,,,,,,
60c9b0886e03c28f26d97b19,2023-06-16_10h14.26.973,phx_ver10,2022.2.5,Win32,60.0060006,,,,,space,0.9339,0,38,38,12,1,13,training,zh2x,a,zh2x_a,zh2x_7_axa.wav,,axa.jpg,,,,,,,,,,,,,,,,,,,,,,,,,,,,,,,,,
60c9b0886e03c28f26d97b19,2023-06-16_10h14.26.973,phx_ver10,2022.2.5,Win32,60.0060006,,,,,space,0.0335,0,39,39,1,1,2,training,zh2x,a,zh2x_a,zh2x_2_azha.wav,,azha.jpg,,,,,,,,,,,,,,,,,,,,,,,,,,,,,,,,,
60c9b0886e03c28f26d97b19,2023-06-16_10h14.26.973,phx_ver10,2022.2.5,Win32,60.0060006,,,,,space,0.200599999,0,40,40,10,1,11,training,zh2x,a,zh2x_a,zh2x_6_axa.wav,,axa.jpg,,,,,,,,,,,,,,,,,,,,,,,,,,,,,,,,,
60c9b0886e03c28f26d97b19,2023-06-16_10h14.26.973,phx_ver10,2022.2.5,Win32,60.0060006,,,,,space,0.102900001,0,41,41,3,1,4,training,zh2x,a,zh2x_a,zh2x_2_azha.wav,,azha.jpg,,,,,,,,,,,,,,,,,,,,,,,,,,,,,,,,,
60c9b0886e03c28f26d97b19,2023-06-16_10h14.26.973,phx_ver10,2022.2.5,Win32,60.0060006,,,,,,,,,,,,,attn_test,,,,zh2x_8_axa.wav,zh2x_8_exe.wav,axa.jpg,LEFT,,f,3.232599999,space,3.6304,0,0,0,0,1,,,,,,,,,,,,,,,,,,,,,,
60c9b0886e03c28f26d97b19,2023-06-16_10h14.26.973,phx_ver10,2022.2.5,Win32,60.0060006,,,,,space,0.2481,0,42,42,0,1,1,training,zh2x,a,zh2x_a,zh2x_1_azha.wav,,azha.jpg,,,,,,,,,,,,,,,,,,,,,,,,,,,,,,,,,
60c9b0886e03c28f26d97b19,2023-06-16_10h14.26.973,phx_ver10,2022.2.5,Win32,60.0060006,,,,,space,0.251,0,43,43,16,1,17,training,zh2x,e,zh2x_e,zh2x_1_ezhe.wav,,ezhe.jpg,,,,,,,,,,,,,,,,,,,,,,,,,,,,,,,,,
60c9b0886e03c28f26d97b19,2023-06-16_10h14.26.973,phx_ver10,2022.2.5,Win32,60.0060006,,,,,space,1.0023,0,44,44,34,1,35,training,zh2x,i,zh2x_i,zh2x_2_izhi.wav,,izhi.jpg,,,,,,,,,,,,,,,,,,,,,,,,,,,,,,,,,
60c9b0886e03c28f26d97b19,2023-06-16_10h14.26.973,phx_ver10,2022.2.5,Win32,60.0060006,,,,,space,0.1009,0,45,45,7,1,8,training,zh2x,a,zh2x_a,zh2x_4_azha.wav,,azha.jpg,,,,,,,,,,,,,,,,,,,,,,,,,,,,,,,,,
60c9b0886e03c28f26d97b19,2023-06-16_10h14.26.973,phx_ver10,2022.2.5,Win32,60.0060006,,,,,space,0.050299999,0,46,46,23,1,24,training,zh2x,e,zh2x_e,zh2x_4_ezhe.wav,,ezhe.jpg,,,,,,,,,,,,,,,,,,,,,,,,,,,,,,,,,
60c9b0886e03c28f26d97b19,2023-06-16_10h14.26.973,phx_ver10,2022.2.5,Win32,60.0060006,,,,,space,0.159799999,0,47,47,15,1,16,training,zh2x,a,zh2x_a,zh2x_8_axa.wav,,axa.jpg,,,,,,,,,,,,,,,,,,,,,,,,,,,,,,,,,
60c9b0886e03c28f26d97b19,2023-06-16_10h14.26.973,phx_ver10,2022.2.5,Win32,60.0060006,,,,,,,,,,,,,attn_test,,,,zh2x_8_ixi.wav,zh2x_8_axa.wav,axa.jpg,RIGHT,,j,1.000900001,space,1.4008,,,,,,,,,,,,,,,,,,,,,,,,,,,
60c9b0886e03c28f26d97b19,2023-06-16_10h14.26.973,phx_ver10,2022.2.5,Win32,60.0060006,,,,,,,,,,,,,,,,,,,,,,,,,,,,,,,space,0.8365,,,,,,,,,,,,,,,,,,,,
60c9b0886e03c28f26d97b19,2023-06-16_10h14.26.973,phx_ver10,2022.2.5,Win32,60.0060006,,,,,,,,,,,,,,,,,,,,,,,,,,,,,,,,,space,3.0698,,,,,,,,,,,,,,,,,,
60c9b0886e03c28f26d97b19,2023-06-16_10h14.26.973,phx_ver10,2022.2.5,Win32,60.0060006,,,,,,,,,,,,2,testing_pre,,,,auhau.wav,aufau.wav,,FALSE,,,,,,,,,,,,,,,j,11.339,space,11.7437,0,0,0,1,1,,,,,,,,,
60c9b0886e03c28f26d97b19,2023-06-16_10h14.26.973,phx_ver10,2022.2.5,Win32,60.0060006,,,,,,,,,,,,4,testing_pre,,,,eihei.wav,eihei.wav,,TRUE,,,,,,,,,,,,,,,f,0.400799999,space,0.758799999,0,1,1,3,1,,,,,,,,,
60c9b0886e03c28f26d97b19,2023-06-16_10h14.26.973,phx_ver10,2022.2.5,Win32,60.0060006,,,,,,,,,,,,3,testing_pre,,,,afa.wav,aha.wav,,FALSE,,,,,,,,,,,,,,,j,0.669400001,space,0.9997,0,2,2,2,1,,,,,,,,,
60c9b0886e03c28f26d97b19,2023-06-16_10h14.26.973,phx_ver10,2022.2.5,Win32,60.0060006,,,,,,,,,,,,1,testing_pre,,,,ifi.wav,ifi.wav,,TRUE,,,,,,,,,,,,,,,f,0.4592,space,0.7708,0,3,3,0,1,,,,,,,,,
60c9b0886e03c28f26d97b19,2023-06-16_10h14.26.973,phx_ver10,2022.2.5,Win32,60.0060006,,,,,,,,,,,,5,testing_pre,,,,ihi.wav,ifi.wav,,FALSE,,,,,,,,,,,,,,,j,0.598299999,space,0.9347,0,4,4,4,1,,,,,,,,,
60c9b0886e03c28f26d97b19,2023-06-16_10h14.26.973,phx_ver10,2022.2.5,Win32,60.0060006,,,,,,,,,,,,,,,,,,,,,,,,,,,,,,,,,,,,,,,,,,,,space,0.6709,,,,,,,
60c9b0886e03c28f26d97b19,2023-06-16_10h14.26.973,phx_ver10,2022.2.5,Win32,60.0060006,,,,,,,,,,,,11,testing_1,zh2x,i,zh2x_i,zh2x_1_izhi.wav,zh2x_8_ixi.wav,,FALSE,TRUE,,,,,,,,,,,,,,j,0.934,space,1.2343,,,,,,,,0,0,0,10,1,,
60c9b0886e03c28f26d97b19,2023-06-16_10h14.26.973,phx_ver10,2022.2.5,Win32,60.0060006,,,,,,,,,,,,27,testing_3,zh2sh,a,zh2sh_a,zh2sh_1_azha.wav,zh2sh_8_asha.wav,,FALSE,FALSE,,,,,,,,,,,,,,j,0.567099999,space,0.8868,,,,,,,,0,1,1,26,1,,
60c9b0886e03c28f26d97b19,2023-06-16_10h14.26.973,phx_ver10,2022.2.5,Win32,60.0060006,,,,,,,,,,,,42,testing_3,zh2sh,ei,zh2sh_ei,zh2sh_8_eishei.wav,zh2sh_8_eishei.wav,,TRUE,FALSE,,,,,,,,,,,,,,f,0.2438,space,0.567,,,,,,,,0,2,2,41,1,,
60c9b0886e03c28f26d97b19,2023-06-16_10h14.26.973,phx_ver10,2022.2.5,Win32,60.0060006,,,,,,,,,,,,83,testing_3,j2x,au,j2x_au,j2x_1_aujau.wav,j2x_8_auxau.wav,,FALSE,FALSE,,,,,,,,,,,,,,f,0.7135,space,1.0388,,,,,,,,0,3,3,82,1,,
60c9b0886e03c28f26d97b19,2023-06-16_10h14.26.973,phx_ver10,2022.2.5,Win32,60.0060006,,,,,,,,,,,,86,testing_3,j2x,e,j2x_e,j2x_8_exe.wav,j2x_8_exe.wav,,TRUE,FALSE,,,,,,,,,,,,,,f,0.3715,space,0.6996,,,,,,,,0,4,4,85,1,,
60c9b0886e03c28f26d97b19,2023-06-16_10h14.26.973,phx_ver10,2022.2.5,Win32,60.0060006,,,,,,,,,,,,16,testing_2,zh2x,ai,zh2x_ai,zh2x_8_aixai.wav,zh2x_1_aizhai.wav,,FALSE,FALSE,,,,,,,,,,,,,,j,0.2683,space,0.5719,,,,,,,,0,5,5,15,1,,
60c9b0886e03c28f26d97b19,2023-06-16_10h14.26.973,phx_ver10,2022.2.5,Win32,60.0060006,,,,,,,,,,,,39,testing_3,zh2sh,e,zh2sh_e,zh2sh_1_ezhe.wav,zh2sh_8_eshe.wav,,FALSE,FALSE,,,,,,,,,,,,,,j,0.5582,space,0.8502,,,,,,,,0,6,6,38,1,,
60c9b0886e03c28f26d97b19,2023-06-16_10h14.26.973,phx_ver10,2022.2.5,Win32,60.0060006,,,,,,,,,,,,5,testing_1,zh2x,e,zh2x_e,zh2x_1_ezhe.wav,zh2x_1_ezhe_copy.wav,,TRUE,TRUE,,,,,,,,,,,,,,f,0.4358,space,0.7373,,,,,,,,0,7,7,4,1,,
60c9b0886e03c28f26d97b19,2023-06-16_10h14.26.973,phx_ver10,2022.2.5,Win32,60.0060006,,,,,,,,,,,,48,testing_3,zh2sh,i,zh2sh_i,zh2sh_8_ishi.wav,zh2sh_1_izhi.wav,,FALSE,FALSE,,,,,,,,,,,,,,f,0.905,space,1.649700001,,,,,,,,0,8,8,47,1,,
60c9b0886e03c28f26d97b19,2023-06-16_10h14.26.973,phx_ver10,2022.2.5,Win32,60.0060006,,,,,,,,,,,,79,testing_3,j2x,ai,j2x_ai,j2x_1_aijai.wav,j2x_8_aixai.wav,,FALSE,FALSE,,,,,,,,,,,,,,j,0.5341,space,0.8194,,,,,,,,0,9,9,78,1,,
60c9b0886e03c28f26d97b19,2023-06-16_10h14.26.973,phx_ver10,2022.2.5,Win32,60.0060006,,,,,,,,,,,,18,testing_2,zh2x,au,zh2x_au,zh2x_8_auxau.wav,zh2x_8_auxau.wav,,TRUE,FALSE,,,,,,,,,,,,,,f,0.5481,space,0.8014,,,,,,,,0,10,10,17,1,,
60c9b0886e03c28f26d97b19,2023-06-16_10h14.26.973,phx_ver10,2022.2.5,Win32,60.0060006,,,,,,,,,,,,89,testing_3,j2x,ei,j2x_ei,j2x_1_eijei.wav,j2x_1_eijei.wav,,TRUE,FALSE,,,,,,,,,,,,,,f,0.4833,space,0.7331,,,,,,,,0,11,11,88,1,,
60c9b0886e03c28f26d97b19,2023-06-16_10h14.26.973,phx_ver10,2022.2.5,Win32,60.0060006,,,,,,,,,,,,53,testing_3,zh2j,ai,zh2j_ai,zh2j_1_aizhai.wav,zh2j_1_aizhai.wav,,TRUE,FALSE,,,,,,,,,,,,,,f,0.8716,space,1.1527,,,,,,,,0,12,12,52,1,,
60c9b0886e03c28f26d97b19,2023-06-16_10h14.26.973,phx_ver10,2022.2.5,Win32,60.0060006,,,,,,,,,,,,104,testing_3,sh2x,ai,sh2x_ai,sh2x_8_aixai.wav,sh2x_1_aishai.wav,,FALSE,FALSE,,,,,,,,,,,,,,j,0.233900001,space,0.5196,,,,,,,,0,13,13,103,1,,
60c9b0886e03c28f26d97b19,2023-06-16_10h14.26.973,phx_ver10,2022.2.5,Win32,60.0060006,,,,,,,,,,,,108,testing_3,sh2x,au,sh2x_au,sh2x_8_auxau.wav,sh2x_1_aushau.wav,,FALSE,FALSE,,,,,,,,,,,,,,j,0.856,space,1.1683,,,,,,,,0,14,14,107,1,,
60c9b0886e03c28f26d97b19,2023-06-16_10h14.26.973,phx_ver10,2022.2.5,Win32,60.0060006,,,,,,,,,,,,134,testing_3,sh2j,e,sh2j_e,sh2j_8_eje.wav,sh2j_8_eje.wav,,TRUE,FALSE,,,,,,,,,,,,,,f,0.187700001,space,0.433200001,,,,,,,,0,15,15,133,1,,
60c9b0886e03c28f26d97b19,2023-06-16_10h14.26.973,phx_ver10,2022.2.5,Win32,60.0060006,,,,,,,,,,,,44,testing_3,zh2sh,ei,zh2sh_ei,zh2sh_8_eishei.wav,zh2sh_1_eizhei.wav,,FALSE,FALSE,,,,,,,,,,,,,,j,0.5222,space,0.7667,,,,,,,,0,16,16,43,1,,
60c9b0886e03c28f26d97b19,2023-06-16_10h14.26.973,phx_ver10,2022.2.5,Win32,60.0060006,,,,,,,,,,,,54,testing_3,zh2j,ai,zh2j_ai,zh2j_8_aijai.wav,zh2j_8_aijai.wav,,TRUE,FALSE,,,,,,,,,,,,,,f,0.6377,space,0.9169,,,,,,,,0,17,17,53,1,,
60c9b0886e03c28f26d97b19,2023-06-16_10h14.26.973,phx_ver10,2022.2.5,Win32,60.0060006,,,,,,,,,,,,90,testing_3,j2x,ei,j2x_ei,j2x_8_eixei.wav,j2x_8_eixei.wav,,TRUE,FALSE,,,,,,,,,,,,,,f,1.5375,space,1.770099999,,,,,,,,0,18,18,89,1,,
60c9b0886e03c28f26d97b19,2023-06-16_10h14.26.973,phx_ver10,2022.2.5,Win32,60.0060006,,,,,,,,,,,,87,testing_3,j2x,e,j2x_e,j2x_1_eje.wav,j2x_8_exe.wav,,FALSE,FALSE,,,,,,,,,,,,,,j,0.4063,space,0.6705,,,,,,,,0,19,19,86,1,,
60c9b0886e03c28f26d97b19,2023-06-16_10h14.26.973,phx_ver10,2022.2.5,Win32,60.0060006,,,,,,,,,,,,40,testing_3,zh2sh,e,zh2sh_e,zh2sh_8_eshe.wav,zh2sh_1_ezhe.wav,,FALSE,FALSE,,,,,,,,,,,,,,f,0.3256,space,0.5233,,,,,,,,0,20,20,39,1,,
60c9b0886e03c28f26d97b19,2023-06-16_10h14.26.973,phx_ver10,2022.2.5,Win32,60.0060006,,,,,,,,,,,,139,testing_3,sh2j,ei,sh2j_ei,sh2j_1_eishei.wav,sh2j_8_eijei.wav,,FALSE,FALSE,,,,,,,,,,,,,,j,1.7374,space,1.999099999,,,,,,,,0,21,21,138,1,,
60c9b0886e03c28f26d97b19,2023-06-16_10h14.26.973,phx_ver10,2022.2.5,Win32,60.0060006,,,,,,,,,,,,111,testing_3,sh2x,e,sh2x_e,sh2x_1_eshe.wav,sh2x_8_exe.wav,,FALSE,FALSE,,,,,,,,,,,,,,j,1.0691,space,1.139200001,,,,,,,,0,22,22,110,1,,
60c9b0886e03c28f26d97b19,2023-06-16_10h14.26.973,phx_ver10,2022.2.5,Win32,60.0060006,,,,,,,,,,,,105,testing_3,sh2x,au,sh2x_au,sh2x_1_aushau.wav,sh2x_1_aushau.wav,,TRUE,FALSE,,,,,,,,,,,,,,f,0.0895,space,0.3043,,,,,,,,0,23,23,104,1,,
60c9b0886e03c28f26d97b19,2023-06-16_10h14.26.973,phx_ver10,2022.2.5,Win32,60.0060006,,,,,,,,,,,,101,testing_3,sh2x,ai,sh2x_ai,sh2x_1_aishai.wav,sh2x_1_aishai.wav,,TRUE,FALSE,,,,,,,,,,,,,,f,0.043400001,space,0.220700001,,,,,,,,0,24,24,100,1,,
60c9b0886e03c28f26d97b19,2023-06-16_10h14.26.973,phx_ver10,2022.2.5,Win32,60.0060006,,,,,,,,,,,,28,testing_3,zh2sh,a,zh2sh_a,zh2sh_8_asha.wav,zh2sh_1_azha.wav,,FALSE,FALSE,,,,,,,,,,,,,,j,0.387799999,space,0.856,,,,,,,,0,25,25,27,1,,
60c9b0886e03c28f26d97b19,2023-06-16_10h14.26.973,phx_ver10,2022.2.5,Win32,60.0060006,,,,,,,,,,,,117,testing_3,sh2x,i,sh2x_i,sh2x_1_ishi.wav,sh2x_1_ishi.wav,,TRUE,FALSE,,,,,,,,,,,,,,f,0.4035,space,0.5668,,,,,,,,0,26,26,116,1,,
60c9b0886e03c28f26d97b19,2023-06-16_10h14.26.973,phx_ver10,2022.2.5,Win32,60.0060006,,,,,,,,,,,,2,testing_1,zh2x,a,zh2x_a,zh2x_8_axa.wav,zh2x_8_axa_copy.wav,,TRUE,TRUE,,,,,,,,,,,,,,f,0.6993,space,0.8713,,,,,,,,0,27,27,1,1,,
60c9b0886e03c28f26d97b19,2023-06-16_10h14.26.973,phx_ver10,2022.2.5,Win32,60.0060006,,,,,,,,,,,,37,testing_3,zh2sh,e,zh2sh_e,zh2sh_1_ezhe.wav,zh2sh_1_ezhe.wav,,TRUE,FALSE,,,,,,,,,,,,,,f,0.2827,space,0.4993,,,,,,,,0,28,28,36,1,,
60c9b0886e03c28f26d97b19,2023-06-16_10h14.26.973,phx_ver10,2022.2.5,Win32,60.0060006,,,,,,,,,,,,15,testing_2,zh2x,ai,zh2x_ai,zh2x_1_aizhai.wav,zh2x_8_aixai.wav,,FALSE,FALSE,,,,,,,,,,,,,,j,0.3257,space,0.519,,,,,,,,0,29,29,14,1,,
60c9b0886e03c28f26d97b19,2023-06-16_10h14.26.973,phx_ver10,2022.2.5,Win32,60.0060006,,,,,,,,,,,,50,testing_3,zh2j,a,zh2j_a,zh2j_8_aja.wav,zh2j_8_aja.wav,,TRUE,FALSE,,,,,,,,,,,,,,f,0.9242,space,1.181,,,,,,,,0,30,30,49,1,,
60c9b0886e03c28f26d97b19,2023-06-16_10h14.26.973,phx_ver10,2022.2.5,Win32,60.0060006,,,,,,,,,,,,123,testing_3,sh2j,a,sh2j_a,sh2j_1_asha.wav,sh2j_8_aja.wav,,FALSE,FALSE,,,,,,,,,,,,,,j,0.2859,space,0.469,,,,,,,,0,31,31,122,1,,
60c9b0886e03c28f26d97b19,2023-06-16_10h14.26.973,phx_ver10,2022.2.5,Win32,60.0060006,,,,,,,,,,,,49,testing_3,zh2j,a,zh2j_a,zh2j_1_azha.wav,zh2j_1_azha.wav,,TRUE,FALSE,,,,,,,,,,,,,,f,1.017599999,space,1.166799999,,,,,,,,0,32,32,48,1,,
60c9b0886e03c28f26d97b19,2023-06-16_10h14.26.973,phx_ver10,2022.2.5,Win32,60.0060006,,,,,,,,,,,,82,testing_3,j2x,au,j2x_au,j2x_8_auxau.wav,j2x_8_auxau.wav,,TRUE,FALSE,,,,,,,,,,,,,,f,0.338900001,space,0.502,,,,,,,,0,33,33,81,1,,
60c9b0886e03c28f26d97b19,2023-06-16_10h14.26.973,phx_ver10,2022.2.5,Win32,60.0060006,,,,,,,,,,,,57,testing_3,zh2j,au,zh2j_au,zh2j_1_auzhau.wav,zh2j_1_auzhau.wav,,TRUE,FALSE,,,,,,,,,,,,,,f,0.233400001,space,0.4,,,,,,,,0,34,34,56,1,,
60c9b0886e03c28f26d97b19,2023-06-16_10h14.26.973,phx_ver10,2022.2.5,Win32,60.0060006,,,,,,,,,,,,33,testing_3,zh2sh,au,zh2sh_au,zh2sh_1_auzhau.wav,zh2sh_1_auzhau.wav,,TRUE,FALSE,,,,,,,,,,,,,,f,0.3643,space,0.522,,,,,,,,0,35,35,32,1,,
60c9b0886e03c28f26d97b19,2023-06-16_10h14.26.973,phx_ver10,2022.2.5,Win32,60.0060006,,,,,,,,,,,,138,testing_3,sh2j,ei,sh2j_ei,sh2j_8_eijei.wav,sh2j_8_eijei.wav,,TRUE,FALSE,,,,,,,,,,,,,,f,0.237400001,space,0.4028,,,,,,,,0,36,36,137,1,,
60c9b0886e03c28f26d97b19,2023-06-16_10h14.26.973,phx_ver10,2022.2.5,Win32,60.0060006,,,,,,,,,,,,7,testing_1,zh2x,e,zh2x_e,zh2x_1_ezhe.wav,zh2x_8_exe.wav,,FALSE,TRUE,,,,,,,,,,,,,,j,0.25,space,0.4357,,,,,,,,0,37,37,6,1,,
60c9b0886e03c28f26d97b19,2023-06-16_10h14.26.973,phx_ver10,2022.2.5,Win32,60.0060006,,,,,,,,,,,,71,testing_3,zh2j,i,zh2j_i,zh2j_1_izhi.wav,zh2j_8_iji.wav,,FALSE,FALSE,,,,,,,,,,,,,,j,0.5505,space,0.7037,,,,,,,,0,38,38,70,1,,
60c9b0886e03c28f26d97b19,2023-06-16_10h14.26.973,phx_ver10,2022.2.5,Win32,60.0060006,,,,,,,,,,,,91,testing_3,j2x,ei,j2x_ei,j2x_1_eijei.wav,j2x_8_eixei.wav,,FALSE,FALSE,,,,,,,,,,,,,,j,0.6534,space,0.7884,,,,,,,,0,39,39,90,1,,
60c9b0886e03c28f26d97b19,2023-06-16_10h14.26.973,phx_ver10,2022.2.5,Win32,60.0060006,,,,,,,,,,,,38,testing_3,zh2sh,e,zh2sh_e,zh2sh_8_eshe.wav,zh2sh_8_eshe.wav,,TRUE,FALSE,,,,,,,,,,,,,,f,0.286,space,0.418400001,,,,,,,,0,40,40,37,1,,
60c9b0886e03c28f26d97b19,2023-06-16_10h14.26.973,phx_ver10,2022.2.5,Win32,60.0060006,,,,,,,,,,,,102,testing_3,sh2x,ai,sh2x_ai,sh2x_8_aixai.wav,sh2x_8_aixai.wav,,TRUE,FALSE,,,,,,,,,,,,,,f,0.441900001,space,0.6023,,,,,,,,0,41,41,101,1,,
60c9b0886e03c28f26d97b19,2023-06-16_10h14.26.973,phx_ver10,2022.2.5,Win32,60.0060006,,,,,,,,,,,,72,testing_3,zh2j,i,zh2j_i,zh2j_8_iji.wav,zh2j_1_izhi.wav,,FALSE,FALSE,,,,,,,,,,,,,,j,0.542599999,space,0.7028,,,,,,,,0,42,42,71,1,,
60c9b0886e03c28f26d97b19,2023-06-16_10h14.26.973,phx_ver10,2022.2.5,Win32,60.0060006,,,,,,,,,,,,129,testing_3,sh2j,au,sh2j_au,sh2j_1_aushau.wav,sh2j_1_aushau.wav,,TRUE,FALSE,,,,,,,,,,,,,,f,0.6359,space,0.836,,,,,,,,0,43,43,128,1,,
60c9b0886e03c28f26d97b19,2023-06-16_10h14.26.973,phx_ver10,2022.2.5,Win32,60.0060006,,,,,,,,,,,,55,testing_3,zh2j,ai,zh2j_ai,zh2j_1_aizhai.wav,zh2j_8_aijai.wav,,FALSE,FALSE,,,,,,,,,,,,,,j,0.4502,space,0.6022,,,,,,,,0,44,44,54,1,,
60c9b0886e03c28f26d97b19,2023-06-16_10h14.26.973,phx_ver10,2022.2.5,Win32,60.0060006,,,,,,,,,,,,84,testing_3,j2x,au,j2x_au,j2x_8_auxau.wav,j2x_1_aujau.wav,,FALSE,FALSE,,,,,,,,,,,,,,f,0.455700001,space,0.552200001,,,,,,,,0,45,45,83,1,,
60c9b0886e03c28f26d97b19,2023-06-16_10h14.26.973,phx_ver10,2022.2.5,Win32,60.0060006,,,,,,,,,,,,47,testing_3,zh2sh,i,zh2sh_i,zh2sh_1_izhi.wav,zh2sh_8_ishi.wav,,FALSE,FALSE,,,,,,,,,,,,,,j,0.8456,space,1.1975,,,,,,,,0,46,46,46,1,,
60c9b0886e03c28f26d97b19,2023-06-16_10h14.26.973,phx_ver10,2022.2.5,Win32,60.0060006,,,,,,,,,,,,70,testing_3,zh2j,i,zh2j_i,zh2j_8_iji.wav,zh2j_8_iji.wav,,TRUE,FALSE,,,,,,,,,,,,,,f,0.087299999,space,0.406299999,,,,,,,,0,47,47,69,1,,
60c9b0886e03c28f26d97b19,2023-06-16_10h14.26.973,phx_ver10,2022.2.5,Win32,60.0060006,,,,,,,,,,,,9,testing_1,zh2x,i,zh2x_i,zh2x_1_izhi.wav,zh2x_1_izhi_copy.wav,,TRUE,TRUE,,,,,,,,,,,,,,f,0.353799999,space,0.65,,,,,,,,0,48,48,8,1,,
60c9b0886e03c28f26d97b19,2023-06-16_10h14.26.973,phx_ver10,2022.2.5,Win32,60.0060006,,,,,,,,,,,,35,testing_3,zh2sh,au,zh2sh_au,zh2sh_1_auzhau.wav,zh2sh_8_aushau.wav,,FALSE,FALSE,,,,,,,,,,,,,,j,0.4336,space,0.774400001,,,,,,,,0,49,49,34,1,,
60c9b0886e03c28f26d97b19,2023-06-16_10h14.26.973,phx_ver10,2022.2.5,Win32,60.0060006,,,,,,,,,,,,93,testing_3,j2x,i,j2x_i,j2x_1_iji.wav,j2x_1_iji.wav,,TRUE,FALSE,,,,,,,,,,,,,,f,0.054099999,space,0.4519,,,,,,,,0,50,50,92,1,,
60c9b0886e03c28f26d97b19,2023-06-16_10h14.26.973,phx_ver10,2022.2.5,Win32,60.0060006,,,,,,,,,,,,46,testing_3,zh2sh,i,zh2sh_i,zh2sh_8_ishi.wav,zh2sh_8_ishi.wav,,TRUE,FALSE,,,,,,,,,,,,,,f,0.1928,space,0.5343,,,,,,,,0,51,51,45,1,,
60c9b0886e03c28f26d97b19,2023-06-16_10h14.26.973,phx_ver10,2022.2.5,Win32,60.0060006,,,,,,,,,,,,4,testing_1,zh2x,a,zh2x_a,zh2x_8_axa.wav,zh2x_1_azha.wav,,FALSE,TRUE,,,,,,,,,,,,,,j,0.1175,space,0.4644,,,,,,,,0,52,52,3,1,,
60c9b0886e03c28f26d97b19,2023-06-16_10h14.26.973,phx_ver10,2022.2.5,Win32,60.0060006,,,,,,,,,,,,120,testing_3,sh2x,i,sh2x_i,sh2x_8_ixi.wav,sh2x_1_ishi.wav,,FALSE,FALSE,,,,,,,,,,,,,,j,1.3303,space,1.6966,,,,,,,,0,53,53,119,1,,
60c9b0886e03c28f26d97b19,2023-06-16_10h14.26.973,phx_ver10,2022.2.5,Win32,60.0060006,,,,,,,,,,,,133,testing_3,sh2j,e,sh2j_e,sh2j_1_eshe.wav,sh2j_1_eshe.wav,,TRUE,FALSE,,,,,,,,,,,,,,f,0.1092,space,0.476400001,,,,,,,,0,54,54,132,1,,
60c9b0886e03c28f26d97b19,2023-06-16_10h14.26.973,phx_ver10,2022.2.5,Win32,60.0060006,,,,,,,,,,,,135,testing_3,sh2j,e,sh2j_e,sh2j_1_eshe.wav,sh2j_8_eje.wav,,FALSE,FALSE,,,,,,,,,,,,,,j,0.267400001,space,0.5595,,,,,,,,0,55,55,134,1,,
60c9b0886e03c28f26d97b19,2023-06-16_10h14.26.973,phx_ver10,2022.2.5,Win32,60.0060006,,,,,,,,,,,,121,testing_3,sh2j,a,sh2j_a,sh2j_1_asha.wav,sh2j_1_asha.wav,,TRUE,FALSE,,,,,,,,,,,,,,f,0.1235,space,0.4513,,,,,,,,0,56,56,120,1,,
60c9b0886e03c28f26d97b19,2023-06-16_10h14.26.973,phx_ver10,2022.2.5,Win32,60.0060006,,,,,,,,,,,,14,testing_2,zh2x,ai,zh2x_ai,zh2x_8_aixai.wav,zh2x_8_aixai.wav,,TRUE,FALSE,,,,,,,,,,,,,,f,0.0984,space,0.4499,,,,,,,,0,57,57,13,1,,
60c9b0886e03c28f26d97b19,2023-06-16_10h14.26.973,phx_ver10,2022.2.5,Win32,60.0060006,,,,,,,,,,,,36,testing_3,zh2sh,au,zh2sh_au,zh2sh_8_aushau.wav,zh2sh_1_auzhau.wav,,FALSE,FALSE,,,,,,,,,,,,,,j,0.000599999,space,0.3539,,,,,,,,0,58,58,35,1,,
60c9b0886e03c28f26d97b19,2023-06-16_10h14.26.973,phx_ver10,2022.2.5,Win32,60.0060006,,,,,,,,,,,,124,testing_3,sh2j,a,sh2j_a,sh2j_8_aja.wav,sh2j_1_asha.wav,,FALSE,FALSE,,,,,,,,,,,,,,j,1.0039,space,1.372,,,,,,,,0,59,59,123,1,,
60c9b0886e03c28f26d97b19,2023-06-16_10h14.26.973,phx_ver10,2022.2.5,Win32,60.0060006,,,,,,,,,,,,88,testing_3,j2x,e,j2x_e,j2x_8_exe.wav,j2x_1_eje.wav,,FALSE,FALSE,,,,,,,,,,,,,,j,0.2167,space,0.5667,,,,,,,,0,60,60,87,1,,
60c9b0886e03c28f26d97b19,2023-06-16_10h14.26.973,phx_ver10,2022.2.5,Win32,60.0060006,,,,,,,,,,,,26,testing_3,zh2sh,a,zh2sh_a,zh2sh_8_asha.wav,zh2sh_8_asha.wav,,TRUE,FALSE,,,,,,,,,,,,,,f,1.0031,space,1.1219,,,,,,,,0,61,61,25,1,,
60c9b0886e03c28f26d97b19,2023-06-16_10h14.26.973,phx_ver10,2022.2.5,Win32,60.0060006,,,,,,,,,,,,110,testing_3,sh2x,e,sh2x_e,sh2x_8_exe.wav,sh2x_8_exe.wav,,TRUE,FALSE,,,,,,,,,,,,,,f,0.026200001,space,0.351200001,,,,,,,,0,62,62,109,1,,
60c9b0886e03c28f26d97b19,2023-06-16_10h14.26.973,phx_ver10,2022.2.5,Win32,60.0060006,,,,,,,,,,,,109,testing_3,sh2x,e,sh2x_e,sh2x_1_eshe.wav,sh2x_1_eshe.wav,,TRUE,FALSE,,,,,,,,,,,,,,f,0.6734,space,0.954799999,,,,,,,,0,63,63,108,1,,
60c9b0886e03c28f26d97b19,2023-06-16_10h14.26.973,phx_ver10,2022.2.5,Win32,60.0060006,,,,,,,,,,,,64,testing_3,zh2j,e,zh2j_e,zh2j_8_eje.wav,zh2j_1_ezhe.wav,,FALSE,FALSE,,,,,,,,,,,,,,f,1.5876,space,1.9206,,,,,,,,0,64,64,63,1,,
60c9b0886e03c28f26d97b19,2023-06-16_10h14.26.973,phx_ver10,2022.2.5,Win32,60.0060006,,,,,,,,,,,,1,testing_1,zh2x,a,zh2x_a,zh2x_1_azha.wav,zh2x_1_azha_copy.wav,,TRUE,TRUE,,,,,,,,,,,,,,f,0.5056,space,0.8357,,,,,,,,0,65,65,0,1,,
60c9b0886e03c28f26d97b19,2023-06-16_10h14.26.973,phx_ver10,2022.2.5,Win32,60.0060006,,,,,,,,,,,,23,testing_2,zh2x,ei,zh2x_ei,zh2x_1_eizhei.wav,zh2x_8_eixei.wav,,FALSE,FALSE,,,,,,,,,,,,,,j,0.3033,space,0.7043,,,,,,,,0,66,66,22,1,,
60c9b0886e03c28f26d97b19,2023-06-16_10h14.26.973,phx_ver10,2022.2.5,Win32,60.0060006,,,,,,,,,,,,136,testing_3,sh2j,e,sh2j_e,sh2j_8_eje.wav,sh2j_1_eshe.wav,,FALSE,FALSE,,,,,,,,,,,,,,j,0.2339,space,0.6247,,,,,,,,0,67,67,135,1,,
60c9b0886e03c28f26d97b19,2023-06-16_10h14.26.973,phx_ver10,2022.2.5,Win32,60.0060006,,,,,,,,,,,,63,testing_3,zh2j,e,zh2j_e,zh2j_1_ezhe.wav,zh2j_8_eje.wav,,FALSE,FALSE,,,,,,,,,,,,,,j,0.1886,space,0.524599999,,,,,,,,0,68,68,62,1,,
60c9b0886e03c28f26d97b19,2023-06-16_10h14.26.973,phx_ver10,2022.2.5,Win32,60.0060006,,,,,,,,,,,,25,testing_3,zh2sh,a,zh2sh_a,zh2sh_1_azha.wav,zh2sh_1_azha.wav,,TRUE,FALSE,,,,,,,,,,,,,,f,0.0764,space,0.4367,,,,,,,,0,69,69,24,1,,
60c9b0886e03c28f26d97b19,2023-06-16_10h14.26.973,phx_ver10,2022.2.5,Win32,60.0060006,,,,,,,,,,,,17,testing_2,zh2x,au,zh2x_au,zh2x_1_auzhau.wav,zh2x_1_auzhau.wav,,TRUE,FALSE,,,,,,,,,,,,,,f,0.001099999,space,0.3148,,,,,,,,0,70,70,16,1,,
60c9b0886e03c28f26d97b19,2023-06-16_10h14.26.973,phx_ver10,2022.2.5,Win32,60.0060006,,,,,,,,,,,,52,testing_3,zh2j,a,zh2j_a,zh2j_8_aja.wav,zh2j_1_azha.wav,,FALSE,FALSE,,,,,,,,,,,,,,j,0.2006,space,0.5768,,,,,,,,0,71,71,51,1,,
60c9b0886e03c28f26d97b19,2023-06-16_10h14.26.973,phx_ver10,2022.2.5,Win32,60.0060006,,,,,,,,,,,,21,testing_2,zh2x,ei,zh2x_ei,zh2x_1_eizhei.wav,zh2x_1_eizhei.wav,,TRUE,FALSE,,,,,,,,,,,,,,f,0.1693,space,0.4713,,,,,,,,0,72,72,20,1,,
60c9b0886e03c28f26d97b19,2023-06-16_10h14.26.973,phx_ver10,2022.2.5,Win32,60.0060006,,,,,,,,,,,,67,testing_3,zh2j,ei,zh2j_ei,zh2j_1_eizhei.wav,zh2j_8_eijei.wav,,FALSE,FALSE,,,,,,,,,,,,,,j,0.1339,space,0.4414,,,,,,,,0,73,73,66,1,,
60c9b0886e03c28f26d97b19,2023-06-16_10h14.26.973,phx_ver10,2022.2.5,Win32,60.0060006,,,,,,,,,,,,56,testing_3,zh2j,ai,zh2j_ai,zh2j_8_aijai.wav,zh2j_1_aizhai.wav,,FALSE,FALSE,,,,,,,,,,,,,,j,0.639400001,space,0.949700001,,,,,,,,0,74,74,55,1,,
60c9b0886e03c28f26d97b19,2023-06-16_10h14.26.973,phx_ver10,2022.2.5,Win32,60.0060006,,,,,,,,,,,,142,testing_3,sh2j,i,sh2j_i,sh2j_8_iji.wav,sh2j_8_iji.wav,,TRUE,FALSE,,,,,,,,,,,,,,f,0.0345,space,0.3015,,,,,,,,0,75,75,141,1,,
60c9b0886e03c28f26d97b19,2023-06-16_10h14.26.973,phx_ver10,2022.2.5,Win32,60.0060006,,,,,,,,,,,,144,testing_3,sh2j,i,sh2j_i,sh2j_8_iji.wav,sh2j_1_ishi.wav,,FALSE,FALSE,,,,,,,,,,,,,,j,0.125599999,space,0.4338,,,,,,,,0,76,76,143,1,,
60c9b0886e03c28f26d97b19,2023-06-16_10h14.26.973,phx_ver10,2022.2.5,Win32,60.0060006,,,,,,,,,,,,128,testing_3,sh2j,ai,sh2j_ai,sh2j_8_aijai.wav,sh2j_1_aishai.wav,,FALSE,FALSE,,,,,,,,,,,,,,j,0.722099999,space,1.0413,,,,,,,,0,77,77,127,1,,
60c9b0886e03c28f26d97b19,2023-06-16_10h14.26.973,phx_ver10,2022.2.5,Win32,60.0060006,,,,,,,,,,,,112,testing_3,sh2x,e,sh2x_e,sh2x_8_exe.wav,sh2x_1_eshe.wav,,FALSE,FALSE,,,,,,,,,,,,,,f,0.1698,space,0.4876,,,,,,,,0,78,78,111,1,,
60c9b0886e03c28f26d97b19,2023-06-16_10h14.26.973,phx_ver10,2022.2.5,Win32,60.0060006,,,,,,,,,,,,106,testing_3,sh2x,au,sh2x_au,sh2x_8_auxau.wav,sh2x_8_auxau.wav,,TRUE,FALSE,,,,,,,,,,,,,,f,0.099,space,0.3641,,,,,,,,0,79,79,105,1,,
60c9b0886e03c28f26d97b19,2023-06-16_10h14.26.973,phx_ver10,2022.2.5,Win32,60.0060006,,,,,,,,,,,,130,testing_3,sh2j,au,sh2j_au,sh2j_8_aujau.wav,sh2j_8_aujau.wav,,TRUE,FALSE,,,,,,,,,,,,,,f,0.006099999,space,0.287099999,,,,,,,,0,80,80,129,1,,
60c9b0886e03c28f26d97b19,2023-06-16_10h14.26.973,phx_ver10,2022.2.5,Win32,60.0060006,,,,,,,,,,,,43,testing_3,zh2sh,ei,zh2sh_ei,zh2sh_1_eizhei.wav,zh2sh_8_eishei.wav,,FALSE,FALSE,,,,,,,,,,,,,,j,0.1384,space,0.423900001,,,,,,,,0,81,81,42,1,,
60c9b0886e03c28f26d97b19,2023-06-16_10h14.26.973,phx_ver10,2022.2.5,Win32,60.0060006,,,,,,,,,,,,99,testing_3,sh2x,a,sh2x_a,sh2x_1_asha.wav,sh2x_8_axa.wav,,FALSE,FALSE,,,,,,,,,,,,,,j,0.3072,space,0.6188,,,,,,,,0,82,82,98,1,,
60c9b0886e03c28f26d97b19,2023-06-16_10h14.26.973,phx_ver10,2022.2.5,Win32,60.0060006,,,,,,,,,,,,143,testing_3,sh2j,i,sh2j_i,sh2j_1_ishi.wav,sh2j_8_iji.wav,,FALSE,FALSE,,,,,,,,,,,,,,j,0.6192,space,0.9208,,,,,,,,0,83,83,142,1,,
60c9b0886e03c28f26d97b19,2023-06-16_10h14.26.973,phx_ver10,2022.2.5,Win32,60.0060006,,,,,,,,,,,,22,testing_2,zh2x,ei,zh2x_ei,zh2x_8_eixei.wav,zh2x_8_eixei.wav,,TRUE,FALSE,,,,,,,,,,,,,,f,0.208599999,space,0.5165,,,,,,,,0,84,84,21,1,,
60c9b0886e03c28f26d97b19,2023-06-16_10h14.26.973,phx_ver10,2022.2.5,Win32,60.0060006,,,,,,,,,,,,13,testing_2,zh2x,ai,zh2x_ai,zh2x_1_aizhai.wav,zh2x_1_aizhai.wav,,TRUE,FALSE,,,,,,,,,,,,,,f,0.5731,space,0.804799999,,,,,,,,0,85,85,12,1,,
60c9b0886e03c28f26d97b19,2023-06-16_10h14.26.973,phx_ver10,2022.2.5,Win32,60.0060006,,,,,,,,,,,,137,testing_3,sh2j,ei,sh2j_ei,sh2j_1_eishei.wav,sh2j_1_eishei.wav,,TRUE,FALSE,,,,,,,,,,,,,,f,0.117099999,space,0.4208,,,,,,,,0,86,86,136,1,,
60c9b0886e03c28f26d97b19,2023-06-16_10h14.26.973,phx_ver10,2022.2.5,Win32,60.0060006,,,,,,,,,,,,103,testing_3,sh2x,ai,sh2x_ai,sh2x_1_aishai.wav,sh2x_8_aixai.wav,,FALSE,FALSE,,,,,,,,,,,,,,j,0.1504,space,0.482099999,,,,,,,,0,87,87,102,1,,
60c9b0886e03c28f26d97b19,2023-06-16_10h14.26.973,phx_ver10,2022.2.5,Win32,60.0060006,,,,,,,,,,,,78,testing_3,j2x,ai,j2x_ai,j2x_8_aixai.wav,j2x_8_aixai.wav,,TRUE,FALSE,,,,,,,,,,,,,,f,0.2523,space,0.5236,,,,,,,,0,88,88,77,1,,
60c9b0886e03c28f26d97b19,2023-06-16_10h14.26.973,phx_ver10,2022.2.5,Win32,60.0060006,,,,,,,,,,,,62,testing_3,zh2j,e,zh2j_e,zh2j_8_eje.wav,zh2j_8_eje.wav,,TRUE,FALSE,,,,,,,,,,,,,,f,0.055,space,0.3897,,,,,,,,0,89,89,61,1,,
60c9b0886e03c28f26d97b19,2023-06-16_10h14.26.973,phx_ver10,2022.2.5,Win32,60.0060006,,,,,,,,,,,,122,testing_3,sh2j,a,sh2j_a,sh2j_8_aja.wav,sh2j_8_aja.wav,,TRUE,FALSE,,,,,,,,,,,,,,f,0.0842,space,0.388,,,,,,,,0,90,90,121,1,,
60c9b0886e03c28f26d97b19,2023-06-16_10h14.26.973,phx_ver10,2022.2.5,Win32,60.0060006,,,,,,,,,,,,30,testing_3,zh2sh,ai,zh2sh_ai,zh2sh_8_aishai.wav,zh2sh_8_aishai.wav,,TRUE,FALSE,,,,,,,,,,,,,,f,0.6236,space,0.9032,,,,,,,,0,91,91,29,1,,
60c9b0886e03c28f26d97b19,2023-06-16_10h14.26.973,phx_ver10,2022.2.5,Win32,60.0060006,,,,,,,,,,,,92,testing_3,j2x,ei,j2x_ei,j2x_8_eixei.wav,j2x_1_eijei.wav,,FALSE,FALSE,,,,,,,,,,,,,,j,0.2365,space,0.5837,,,,,,,,0,92,92,91,1,,
60c9b0886e03c28f26d97b19,2023-06-16_10h14.26.973,phx_ver10,2022.2.5,Win32,60.0060006,,,,,,,,,,,,65,testing_3,zh2j,ei,zh2j_ei,zh2j_1_eizhei.wav,zh2j_1_eizhei.wav,,TRUE,FALSE,,,,,,,,,,,,,,f,0.4207,space,0.7171,,,,,,,,0,93,93,64,1,,
60c9b0886e03c28f26d97b19,2023-06-16_10h14.26.973,phx_ver10,2022.2.5,Win32,60.0060006,,,,,,,,,,,,20,testing_2,zh2x,au,zh2x_au,zh2x_8_auxau.wav,zh2x_1_auzhau.wav,,FALSE,FALSE,,,,,,,,,,,,,,j,0.3848,space,0.7335,,,,,,,,0,94,94,19,1,,
60c9b0886e03c28f26d97b19,2023-06-16_10h14.26.973,phx_ver10,2022.2.5,Win32,60.0060006,,,,,,,,,,,,10,testing_1,zh2x,i,zh2x_i,zh2x_8_ixi.wav,zh2x_8_ixi_copy.wav,,TRUE,TRUE,,,,,,,,,,,,,,f,0.348,space,0.639599999,,,,,,,,0,95,95,9,1,,
60c9b0886e03c28f26d97b19,2023-06-16_10h14.26.973,phx_ver10,2022.2.5,Win32,60.0060006,,,,,,,,,,,,58,testing_3,zh2j,au,zh2j_au,zh2j_8_aujau.wav,zh2j_8_aujau.wav,,TRUE,FALSE,,,,,,,,,,,,,,f,0.3413,space,0.6195,,,,,,,,0,96,96,57,1,,
60c9b0886e03c28f26d97b19,2023-06-16_10h14.26.973,phx_ver10,2022.2.5,Win32,60.0060006,,,,,,,,,,,,125,testing_3,sh2j,ai,sh2j_ai,sh2j_1_aishai.wav,sh2j_1_aishai.wav,,TRUE,FALSE,,,,,,,,,,,,,,f,1.4024,space,1.732599999,,,,,,,,0,97,97,124,1,,
60c9b0886e03c28f26d97b19,2023-06-16_10h14.26.973,phx_ver10,2022.2.5,Win32,60.0060006,,,,,,,,,,,,141,testing_3,sh2j,i,sh2j_i,sh2j_1_ishi.wav,sh2j_1_ishi.wav,,TRUE,FALSE,,,,,,,,,,,,,,f,0.4275,space,0.733900001,,,,,,,,0,98,98,140,1,,
60c9b0886e03c28f26d97b19,2023-06-16_10h14.26.973,phx_ver10,2022.2.5,Win32,60.0060006,,,,,,,,,,,,119,testing_3,sh2x,i,sh2x_i,sh2x_1_ishi.wav,sh2x_8_ixi.wav,,FALSE,FALSE,,,,,,,,,,,,,,j,0.441,space,0.747099999,,,,,,,,0,99,99,118,1,,
60c9b0886e03c28f26d97b19,2023-06-16_10h14.26.973,phx_ver10,2022.2.5,Win32,60.0060006,,,,,,,,,,,,73,testing_3,j2x,a,j2x_a,j2x_1_aja.wav,j2x_1_aja.wav,,TRUE,FALSE,,,,,,,,,,,,,,f,0.134,space,0.619400001,,,,,,,,0,100,100,72,1,,
60c9b0886e03c28f26d97b19,2023-06-16_10h14.26.973,phx_ver10,2022.2.5,Win32,60.0060006,,,,,,,,,,,,81,testing_3,j2x,au,j2x_au,j2x_1_aujau.wav,j2x_1_aujau.wav,,TRUE,FALSE,,,,,,,,,,,,,,f,0.038799999,space,0.4522,,,,,,,,0,101,101,80,1,,
60c9b0886e03c28f26d97b19,2023-06-16_10h14.26.973,phx_ver10,2022.2.5,Win32,60.0060006,,,,,,,,,,,,66,testing_3,zh2j,ei,zh2j_ei,zh2j_8_eijei.wav,zh2j_8_eijei.wav,,TRUE,FALSE,,,,,,,,,,,,,,f,0.1357,space,0.5038,,,,,,,,0,102,102,65,1,,
60c9b0886e03c28f26d97b19,2023-06-16_10h14.26.973,phx_ver10,2022.2.5,Win32,60.0060006,,,,,,,,,,,,115,testing_3,sh2x,ei,sh2x_ei,sh2x_1_eishei.wav,sh2x_8_eixei.wav,,FALSE,FALSE,,,,,,,,,,,,,,j,0.1234,space,0.4838,,,,,,,,0,103,103,114,1,,
60c9b0886e03c28f26d97b19,2023-06-16_10h14.26.973,phx_ver10,2022.2.5,Win32,60.0060006,,,,,,,,,,,,31,testing_3,zh2sh,ai,zh2sh_ai,zh2sh_1_aizhai.wav,zh2sh_8_aishai.wav,,FALSE,FALSE,,,,,,,,,,,,,,j,0.2553,space,0.6366,,,,,,,,0,104,104,30,1,,
60c9b0886e03c28f26d97b19,2023-06-16_10h14.26.973,phx_ver10,2022.2.5,Win32,60.0060006,,,,,,,,,,,,140,testing_3,sh2j,ei,sh2j_ei,sh2j_8_eijei.wav,sh2j_1_eishei.wav,,FALSE,FALSE,,,,,,,,,,,,,,j,0.205299999,space,0.5532,,,,,,,,0,105,105,139,1,,
60c9b0886e03c28f26d97b19,2023-06-16_10h14.26.973,phx_ver10,2022.2.5,Win32,60.0060006,,,,,,,,,,,,98,testing_3,sh2x,a,sh2x_a,sh2x_8_axa.wav,sh2x_8_axa.wav,,TRUE,FALSE,,,,,,,,,,,,,,f,0.4242,space,0.7362,,,,,,,,0,106,106,97,1,,
60c9b0886e03c28f26d97b19,2023-06-16_10h14.26.973,phx_ver10,2022.2.5,Win32,60.0060006,,,,,,,,,,,,80,testing_3,j2x,ai,j2x_ai,j2x_8_aixai.wav,j2x_1_aijai.wav,,FALSE,FALSE,,,,,,,,,,,,,,j,0.247799999,space,0.5997,,,,,,,,0,107,107,79,1,,
60c9b0886e03c28f26d97b19,2023-06-16_10h14.26.973,phx_ver10,2022.2.5,Win32,60.0060006,,,,,,,,,,,,75,testing_3,j2x,a,j2x_a,j2x_1_aja.wav,j2x_8_axa.wav,,FALSE,FALSE,,,,,,,,,,,,,,j,1.034099999,space,1.4065,,,,,,,,0,108,108,74,1,,
60c9b0886e03c28f26d97b19,2023-06-16_10h14.26.973,phx_ver10,2022.2.5,Win32,60.0060006,,,,,,,,,,,,24,testing_2,zh2x,ei,zh2x_ei,zh2x_8_eixei.wav,zh2x_1_eizhei.wav,,FALSE,FALSE,,,,,,,,,,,,,,j,0.1071,space,0.4355,,,,,,,,0,109,109,23,1,,
60c9b0886e03c28f26d97b19,2023-06-16_10h14.26.973,phx_ver10,2022.2.5,Win32,60.0060006,,,,,,,,,,,,95,testing_3,j2x,i,j2x_i,j2x_1_iji.wav,j2x_8_ixi.wav,,FALSE,FALSE,,,,,,,,,,,,,,j,0.284,space,0.6385,,,,,,,,0,110,110,94,1,,
60c9b0886e03c28f26d97b19,2023-06-16_10h14.26.973,phx_ver10,2022.2.5,Win32,60.0060006,,,,,,,,,,,,76,testing_3,j2x,a,j2x_a,j2x_8_axa.wav,j2x_1_aja.wav,,FALSE,FALSE,,,,,,,,,,,,,,j,0.0512,space,0.4594,,,,,,,,0,111,111,75,1,,
60c9b0886e03c28f26d97b19,2023-06-16_10h14.26.973,phx_ver10,2022.2.5,Win32,60.0060006,,,,,,,,,,,,127,testing_3,sh2j,ai,sh2j_ai,sh2j_1_aishai.wav,sh2j_8_aijai.wav,,FALSE,FALSE,,,,,,,,,,,,,,j,0.153099999,space,0.5025,,,,,,,,0,112,112,126,1,,
60c9b0886e03c28f26d97b19,2023-06-16_10h14.26.973,phx_ver10,2022.2.5,Win32,60.0060006,,,,,,,,,,,,96,testing_3,j2x,i,j2x_i,j2x_8_ixi.wav,j2x_1_iji.wav,,FALSE,FALSE,,,,,,,,,,,,,,j,0.471,space,0.7755,,,,,,,,0,113,113,95,1,,
60c9b0886e03c28f26d97b19,2023-06-16_10h14.26.973,phx_ver10,2022.2.5,Win32,60.0060006,,,,,,,,,,,,77,testing_3,j2x,ai,j2x_ai,j2x_1_aijai.wav,j2x_1_aijai.wav,,TRUE,FALSE,,,,,,,,,,,,,,f,0.0695,space,0.438099999,,,,,,,,0,114,114,76,1,,
60c9b0886e03c28f26d97b19,2023-06-16_10h14.26.973,phx_ver10,2022.2.5,Win32,60.0060006,,,,,,,,,,,,69,testing_3,zh2j,i,zh2j_i,zh2j_1_izhi.wav,zh2j_1_izhi.wav,,TRUE,FALSE,,,,,,,,,,,,,,f,0.4201,space,0.7061,,,,,,,,0,115,115,68,1,,
60c9b0886e03c28f26d97b19,2023-06-16_10h14.26.973,phx_ver10,2022.2.5,Win32,60.0060006,,,,,,,,,,,,45,testing_3,zh2sh,i,zh2sh_i,zh2sh_1_izhi.wav,zh2sh_1_izhi.wav,,TRUE,FALSE,,,,,,,,,,,,,,f,0.1529,space,0.523,,,,,,,,0,116,116,44,1,,
60c9b0886e03c28f26d97b19,2023-06-16_10h14.26.973,phx_ver10,2022.2.5,Win32,60.0060006,,,,,,,,,,,,51,testing_3,zh2j,a,zh2j_a,zh2j_1_azha.wav,zh2j_8_aja.wav,,FALSE,FALSE,,,,,,,,,,,,,,j,0.2181,space,0.583,,,,,,,,0,117,117,50,1,,
60c9b0886e03c28f26d97b19,2023-06-16_10h14.26.973,phx_ver10,2022.2.5,Win32,60.0060006,,,,,,,,,,,,107,testing_3,sh2x,au,sh2x_au,sh2x_1_aushau.wav,sh2x_8_auxau.wav,,FALSE,FALSE,,,,,,,,,,,,,,j,0.3667,space,0.6957,,,,,,,,0,118,118,106,1,,
60c9b0886e03c28f26d97b19,2023-06-16_10h14.26.973,phx_ver10,2022.2.5,Win32,60.0060006,,,,,,,,,,,,114,testing_3,sh2x,ei,sh2x_ei,sh2x_8_eixei.wav,sh2x_8_eixei.wav,,TRUE,FALSE,,,,,,,,,,,,,,f,0.224299999,space,0.514299999,,,,,,,,0,119,119,113,1,,
60c9b0886e03c28f26d97b19,2023-06-16_10h14.26.973,phx_ver10,2022.2.5,Win32,60.0060006,,,,,,,,,,,,74,testing_3,j2x,a,j2x_a,j2x_8_axa.wav,j2x_8_axa.wav,,TRUE,FALSE,,,,,,,,,,,,,,f,0.1342,space,0.4735,,,,,,,,0,120,120,73,1,,
60c9b0886e03c28f26d97b19,2023-06-16_10h14.26.973,phx_ver10,2022.2.5,Win32,60.0060006,,,,,,,,,,,,118,testing_3,sh2x,i,sh2x_i,sh2x_8_ixi.wav,sh2x_8_ixi.wav,,TRUE,FALSE,,,,,,,,,,,,,,f,0.0378,space,0.3668,,,,,,,,0,121,121,117,1,,
60c9b0886e03c28f26d97b19,2023-06-16_10h14.26.973,phx_ver10,2022.2.5,Win32,60.0060006,,,,,,,,,,,,85,testing_3,j2x,e,j2x_e,j2x_1_eje.wav,j2x_1_eje.wav,,TRUE,FALSE,,,,,,,,,,,,,,f,0.3055,space,0.6147,,,,,,,,0,122,122,84,1,,
60c9b0886e03c28f26d97b19,2023-06-16_10h14.26.973,phx_ver10,2022.2.5,Win32,60.0060006,,,,,,,,,,,,94,testing_3,j2x,i,j2x_i,j2x_8_ixi.wav,j2x_8_ixi.wav,,TRUE,FALSE,,,,,,,,,,,,,,f,0.698900001,space,1.048900001,,,,,,,,0,123,123,93,1,,
60c9b0886e03c28f26d97b19,2023-06-16_10h14.26.973,phx_ver10,2022.2.5,Win32,60.0060006,,,,,,,,,,,,113,testing_3,sh2x,ei,sh2x_ei,sh2x_1_eishei.wav,sh2x_1_eishei.wav,,TRUE,FALSE,,,,,,,,,,,,,,f,0.0478,space,0.398,,,,,,,,0,124,124,112,1,,
60c9b0886e03c28f26d97b19,2023-06-16_10h14.26.973,phx_ver10,2022.2.5,Win32,60.0060006,,,,,,,,,,,,100,testing_3,sh2x,a,sh2x_a,sh2x_8_axa.wav,sh2x_1_asha.wav,,FALSE,FALSE,,,,,,,,,,,,,,j,0.2892,space,0.626,,,,,,,,0,125,125,99,1,,
60c9b0886e03c28f26d97b19,2023-06-16_10h14.26.973,phx_ver10,2022.2.5,Win32,60.0060006,,,,,,,,,,,,116,testing_3,sh2x,ei,sh2x_ei,sh2x_8_eixei.wav,sh2x_1_eishei.wav,,FALSE,FALSE,,,,,,,,,,,,,,f,0.6062,space,0.9577,,,,,,,,0,126,126,115,1,,
60c9b0886e03c28f26d97b19,2023-06-16_10h14.26.973,phx_ver10,2022.2.5,Win32,60.0060006,,,,,,,,,,,,8,testing_1,zh2x,e,zh2x_e,zh2x_8_exe.wav,zh2x_1_ezhe.wav,,FALSE,TRUE,,,,,,,,,,,,,,j,0.0007,space,0.367,,,,,,,,0,127,127,7,1,,
60c9b0886e03c28f26d97b19,2023-06-16_10h14.26.973,phx_ver10,2022.2.5,Win32,60.0060006,,,,,,,,,,,,12,testing_1,zh2x,i,zh2x_i,zh2x_8_ixi.wav,zh2x_1_izhi.wav,,FALSE,TRUE,,,,,,,,,,,,,,j,0.3242,space,0.6359,,,,,,,,0,128,128,11,1,,
60c9b0886e03c28f26d97b19,2023-06-16_10h14.26.973,phx_ver10,2022.2.5,Win32,60.0060006,,,,,,,,,,,,126,testing_3,sh2j,ai,sh2j_ai,sh2j_8_aijai.wav,sh2j_8_aijai.wav,,TRUE,FALSE,,,,,,,,,,,,,,f,0.689599999,space,1.033299999,,,,,,,,0,129,129,125,1,,
60c9b0886e03c28f26d97b19,2023-06-16_10h14.26.973,phx_ver10,2022.2.5,Win32,60.0060006,,,,,,,,,,,,3,testing_1,zh2x,a,zh2x_a,zh2x_1_azha.wav,zh2x_8_axa.wav,,FALSE,TRUE,,,,,,,,,,,,,,j,0.1078,space,0.4366,,,,,,,,0,130,130,2,1,,
60c9b0886e03c28f26d97b19,2023-06-16_10h14.26.973,phx_ver10,2022.2.5,Win32,60.0060006,,,,,,,,,,,,97,testing_3,sh2x,a,sh2x_a,sh2x_1_asha.wav,sh2x_1_asha.wav,,TRUE,FALSE,,,,,,,,,,,,,,f,0.2027,space,0.5027,,,,,,,,0,131,131,96,1,,
60c9b0886e03c28f26d97b19,2023-06-16_10h14.26.973,phx_ver10,2022.2.5,Win32,60.0060006,,,,,,,,,,,,32,testing_3,zh2sh,ai,zh2sh_ai,zh2sh_8_aishai.wav,zh2sh_1_aizhai.wav,,FALSE,FALSE,,,,,,,,,,,,,,j,0.104099999,space,0.4559,,,,,,,,0,132,132,31,1,,
60c9b0886e03c28f26d97b19,2023-06-16_10h14.26.973,phx_ver10,2022.2.5,Win32,60.0060006,,,,,,,,,,,,59,testing_3,zh2j,au,zh2j_au,zh2j_1_auzhau.wav,zh2j_8_aujau.wav,,FALSE,FALSE,,,,,,,,,,,,,,j,1.756,space,2.0687,,,,,,,,0,133,133,58,1,,
60c9b0886e03c28f26d97b19,2023-06-16_10h14.26.973,phx_ver10,2022.2.5,Win32,60.0060006,,,,,,,,,,,,131,testing_3,sh2j,au,sh2j_au,sh2j_1_aushau.wav,sh2j_8_aujau.wav,,FALSE,FALSE,,,,,,,,,,,,,,j,0.4367,space,0.7551,,,,,,,,0,134,134,130,1,,
60c9b0886e03c28f26d97b19,2023-06-16_10h14.26.973,phx_ver10,2022.2.5,Win32,60.0060006,,,,,,,,,,,,61,testing_3,zh2j,e,zh2j_e,zh2j_1_ezhe.wav,zh2j_1_ezhe.wav,,TRUE,FALSE,,,,,,,,,,,,,,f,0.0332,space,0.374400001,,,,,,,,0,135,135,60,1,,
60c9b0886e03c28f26d97b19,2023-06-16_10h14.26.973,phx_ver10,2022.2.5,Win32,60.0060006,,,,,,,,,,,,132,testing_3,sh2j,au,sh2j_au,sh2j_8_aujau.wav,sh2j_1_aushau.wav,,FALSE,FALSE,,,,,,,,,,,,,,j,0.253400001,space,0.6053,,,,,,,,0,136,136,131,1,,
60c9b0886e03c28f26d97b19,2023-06-16_10h14.26.973,phx_ver10,2022.2.5,Win32,60.0060006,,,,,,,,,,,,34,testing_3,zh2sh,au,zh2sh_au,zh2sh_8_aushau.wav,zh2sh_8_aushau.wav,,TRUE,FALSE,,,,,,,,,,,,,,f,0.488099999,space,0.7832,,,,,,,,0,137,137,33,1,,
60c9b0886e03c28f26d97b19,2023-06-16_10h14.26.973,phx_ver10,2022.2.5,Win32,60.0060006,,,,,,,,,,,,68,testing_3,zh2j,ei,zh2j_ei,zh2j_8_eijei.wav,zh2j_1_eizhei.wav,,FALSE,FALSE,,,,,,,,,,,,,,f,0.403400001,space,0.7523,,,,,,,,0,138,138,67,1,,
60c9b0886e03c28f26d97b19,2023-06-16_10h14.26.973,phx_ver10,2022.2.5,Win32,60.0060006,,,,,,,,,,,,19,testing_2,zh2x,au,zh2x_au,zh2x_1_auzhau.wav,zh2x_8_auxau.wav,,FALSE,FALSE,,,,,,,,,,,,,,j,0.1435,space,0.4719,,,,,,,,0,139,139,18,1,,
60c9b0886e03c28f26d97b19,2023-06-16_10h14.26.973,phx_ver10,2022.2.5,Win32,60.0060006,,,,,,,,,,,,60,testing_3,zh2j,au,zh2j_au,zh2j_8_aujau.wav,zh2j_1_auzhau.wav,,FALSE,FALSE,,,,,,,,,,,,,,j,0.682900001,space,1.1385,,,,,,,,0,140,140,59,1,,
60c9b0886e03c28f26d97b19,2023-06-16_10h14.26.973,phx_ver10,2022.2.5,Win32,60.0060006,,,,,,,,,,,,29,testing_3,zh2sh,ai,zh2sh_ai,zh2sh_1_aizhai.wav,zh2sh_1_aizhai.wav,,TRUE,FALSE,,,,,,,,,,,,,,f,0.2175,space,0.4868,,,,,,,,0,141,141,28,1,,
60c9b0886e03c28f26d97b19,2023-06-16_10h14.26.973,phx_ver10,2022.2.5,Win32,60.0060006,,,,,,,,,,,,41,testing_3,zh2sh,ei,zh2sh_ei,zh2sh_1_eizhei.wav,zh2sh_1_eizhei.wav,,TRUE,FALSE,,,,,,,,,,,,,,f,0.237400001,space,0.5885,,,,,,,,0,142,142,40,1,,
60c9b0886e03c28f26d97b19,2023-06-16_10h14.26.973,phx_ver10,2022.2.5,Win32,60.0060006,,,,,,,,,,,,6,testing_1,zh2x,e,zh2x_e,zh2x_8_exe.wav,zh2x_8_exe_copy.wav,,TRUE,TRUE,,,,,,,,,,,,,,f,0.01,space,0.4003,,,,,,,,0,143,143,5,1,,
60c9b0886e03c28f26d97b19,2023-06-16_10h14.26.973,phx_ver10,2022.2.5,Win32,60.0060006,,,,,,,,,,,,,,,,,,,,,,,,,,,,,,,,,,,,,,,,,,,,,,,,,,,space,3.2918
