participant,date,expName,psychopyVersion,OS,frameRate,space_1.keys,space_1.rt,space_2.keys,space_2.rt,space_train.keys,space_train.rt,training.thisRepN,training.thisTrialN,training.thisN,training.thisIndex,training.ran,token_id,task,continuum,vowel,series,sound_1,sound_2,img,same,trained,FJ_attn.keys,FJ_attn.rt,space_attn.keys,space_attn.rt,if_attn_test.thisRepN,if_attn_test.thisTrialN,if_attn_test.thisN,if_attn_test.thisIndex,if_attn_test.ran,space_trans_1.keys,space_trans_1.rt,space_trans_11.keys,space_trans_11.rt,FJ_test.keys,FJ_test.rt,space_test.keys,space_test.rt,testing_pre.thisRepN,testing_pre.thisTrialN,testing_pre.thisN,testing_pre.thisIndex,testing_pre.ran,space_trans_2.keys,space_trans_2.rt,testing_all.thisRepN,testing_all.thisTrialN,testing_all.thisN,testing_all.thisIndex,testing_all.ran,space_ending.keys,space_ending.rt
60d1c82e42c14a1bfe66293c,2023-06-16_10h31.00.221,phx_ver10,2022.2.5,Win32,60.12867537,,,,,,,,,,,,,,,,,,,,,,,,,,,,,,,,,,,,,,,,,,,,,,,,,,,,
60d1c82e42c14a1bfe66293c,2023-06-16_10h31.00.221,phx_ver10,2022.2.5,Win32,60.12867537,space,13.9945,,,,,,,,,,,,,,,,,,,,,,,,,,,,,,,,,,,,,,,,,,,,,,,,,,
60d1c82e42c14a1bfe66293c,2023-06-16_10h31.00.221,phx_ver10,2022.2.5,Win32,60.12867537,,,space,3.1087,,,,,,,,,,,,,,,,,,,,,,,,,,,,,,,,,,,,,,,,,,,,,,,,
60d1c82e42c14a1bfe66293c,2023-06-16_10h31.00.221,phx_ver10,2022.2.5,Win32,60.12867537,,,,,space,4.2155,0,0,0,18,1,19,training,zh2x,e,zh2x_e,zh2x_2_ezhe.wav,,ezhe.jpg,,,,,,,,,,,,,,,,,,,,,,,,,,,,,,,,,
60d1c82e42c14a1bfe66293c,2023-06-16_10h31.00.221,phx_ver10,2022.2.5,Win32,60.12867537,,,,,space,3.316799999,0,1,1,14,1,15,training,zh2x,a,zh2x_a,zh2x_7_axa.wav,,axa.jpg,,,,,,,,,,,,,,,,,,,,,,,,,,,,,,,,,
60d1c82e42c14a1bfe66293c,2023-06-16_10h31.00.221,phx_ver10,2022.2.5,Win32,60.12867537,,,,,space,1.3626,0,2,2,34,1,35,training,zh2x,i,zh2x_i,zh2x_2_izhi.wav,,izhi.jpg,,,,,,,,,,,,,,,,,,,,,,,,,,,,,,,,,
60d1c82e42c14a1bfe66293c,2023-06-16_10h31.00.221,phx_ver10,2022.2.5,Win32,60.12867537,,,,,space,0.1006,0,3,3,37,1,38,training,zh2x,i,zh2x_i,zh2x_3_izhi.wav,,izhi.jpg,,,,,,,,,,,,,,,,,,,,,,,,,,,,,,,,,
60d1c82e42c14a1bfe66293c,2023-06-16_10h31.00.221,phx_ver10,2022.2.5,Win32,60.12867537,,,,,space,1.0839,0,4,4,28,1,29,training,zh2x,e,zh2x_e,zh2x_7_exe.wav,,exe.jpg,,,,,,,,,,,,,,,,,,,,,,,,,,,,,,,,,
60d1c82e42c14a1bfe66293c,2023-06-16_10h31.00.221,phx_ver10,2022.2.5,Win32,60.12867537,,,,,space,0.9516,0,5,5,3,1,4,training,zh2x,a,zh2x_a,zh2x_2_azha.wav,,azha.jpg,,,,,,,,,,,,,,,,,,,,,,,,,,,,,,,,,
60d1c82e42c14a1bfe66293c,2023-06-16_10h31.00.221,phx_ver10,2022.2.5,Win32,60.12867537,,,,,,,,,,,,,attn_test,,,,zh2x_1_izhi.wav,zh2x_8_exe.wav,exe.jpg,RIGHT,,j,1.5169,space,4.0015,0,0,0,0,1,,,,,,,,,,,,,,,,,,,,,,
60d1c82e42c14a1bfe66293c,2023-06-16_10h31.00.221,phx_ver10,2022.2.5,Win32,60.12867537,,,,,space,1.6175,0,6,6,22,1,23,training,zh2x,e,zh2x_e,zh2x_3_ezhe.wav,,ezhe.jpg,,,,,,,,,,,,,,,,,,,,,,,,,,,,,,,,,
60d1c82e42c14a1bfe66293c,2023-06-16_10h31.00.221,phx_ver10,2022.2.5,Win32,60.12867537,,,,,space,1.449900001,0,7,7,9,1,10,training,zh2x,a,zh2x_a,zh2x_6_axa.wav,,axa.jpg,,,,,,,,,,,,,,,,,,,,,,,,,,,,,,,,,
60d1c82e42c14a1bfe66293c,2023-06-16_10h31.00.221,phx_ver10,2022.2.5,Win32,60.12867537,,,,,space,0.4363,0,8,8,16,1,17,training,zh2x,e,zh2x_e,zh2x_1_ezhe.wav,,ezhe.jpg,,,,,,,,,,,,,,,,,,,,,,,,,,,,,,,,,
60d1c82e42c14a1bfe66293c,2023-06-16_10h31.00.221,phx_ver10,2022.2.5,Win32,60.12867537,,,,,space,0.4413,0,9,9,5,1,6,training,zh2x,a,zh2x_a,zh2x_3_azha.wav,,azha.jpg,,,,,,,,,,,,,,,,,,,,,,,,,,,,,,,,,
60d1c82e42c14a1bfe66293c,2023-06-16_10h31.00.221,phx_ver10,2022.2.5,Win32,60.12867537,,,,,space,1.0362,0,10,10,12,1,13,training,zh2x,a,zh2x_a,zh2x_7_axa.wav,,axa.jpg,,,,,,,,,,,,,,,,,,,,,,,,,,,,,,,,,
60d1c82e42c14a1bfe66293c,2023-06-16_10h31.00.221,phx_ver10,2022.2.5,Win32,60.12867537,,,,,space,0.3975,0,11,11,19,1,20,training,zh2x,e,zh2x_e,zh2x_2_ezhe.wav,,ezhe.jpg,,,,,,,,,,,,,,,,,,,,,,,,,,,,,,,,,
60d1c82e42c14a1bfe66293c,2023-06-16_10h31.00.221,phx_ver10,2022.2.5,Win32,60.12867537,,,,,,,,,,,,,attn_test,,,,zh2x_1_azha.wav,zh2x_1_ezhe.wav,ezhe.jpg,RIGHT,,j,0.1345,space,0.9507,0,0,0,0,1,,,,,,,,,,,,,,,,,,,,,,
60d1c82e42c14a1bfe66293c,2023-06-16_10h31.00.221,phx_ver10,2022.2.5,Win32,60.12867537,,,,,space,1.160799999,0,12,12,36,1,37,training,zh2x,i,zh2x_i,zh2x_2_izhi.wav,,izhi.jpg,,,,,,,,,,,,,,,,,,,,,,,,,,,,,,,,,
60d1c82e42c14a1bfe66293c,2023-06-16_10h31.00.221,phx_ver10,2022.2.5,Win32,60.12867537,,,,,space,0.4888,0,13,13,0,1,1,training,zh2x,a,zh2x_a,zh2x_1_azha.wav,,azha.jpg,,,,,,,,,,,,,,,,,,,,,,,,,,,,,,,,,
60d1c82e42c14a1bfe66293c,2023-06-16_10h31.00.221,phx_ver10,2022.2.5,Win32,60.12867537,,,,,space,0.7674,0,14,14,38,1,39,training,zh2x,i,zh2x_i,zh2x_3_izhi.wav,,izhi.jpg,,,,,,,,,,,,,,,,,,,,,,,,,,,,,,,,,
60d1c82e42c14a1bfe66293c,2023-06-16_10h31.00.221,phx_ver10,2022.2.5,Win32,60.12867537,,,,,space,0.6061,0,15,15,25,1,26,training,zh2x,e,zh2x_e,zh2x_6_exe.wav,,exe.jpg,,,,,,,,,,,,,,,,,,,,,,,,,,,,,,,,,
60d1c82e42c14a1bfe66293c,2023-06-16_10h31.00.221,phx_ver10,2022.2.5,Win32,60.12867537,,,,,space,0.2014,0,16,16,15,1,16,training,zh2x,a,zh2x_a,zh2x_8_axa.wav,,axa.jpg,,,,,,,,,,,,,,,,,,,,,,,,,,,,,,,,,
60d1c82e42c14a1bfe66293c,2023-06-16_10h31.00.221,phx_ver10,2022.2.5,Win32,60.12867537,,,,,space,0.6508,0,17,17,11,1,12,training,zh2x,a,zh2x_a,zh2x_7_axa.wav,,axa.jpg,,,,,,,,,,,,,,,,,,,,,,,,,,,,,,,,,
60d1c82e42c14a1bfe66293c,2023-06-16_10h31.00.221,phx_ver10,2022.2.5,Win32,60.12867537,,,,,,,,,,,,,attn_test,,,,zh2x_8_exe.wav,zh2x_8_axa.wav,exe.jpg,LEFT,,f,0.434599999,space,0.8517,0,0,0,0,1,,,,,,,,,,,,,,,,,,,,,,
60d1c82e42c14a1bfe66293c,2023-06-16_10h31.00.221,phx_ver10,2022.2.5,Win32,60.12867537,,,,,space,0.9835,0,18,18,21,1,22,training,zh2x,e,zh2x_e,zh2x_3_ezhe.wav,,ezhe.jpg,,,,,,,,,,,,,,,,,,,,,,,,,,,,,,,,,
60d1c82e42c14a1bfe66293c,2023-06-16_10h31.00.221,phx_ver10,2022.2.5,Win32,60.12867537,,,,,space,0.1505,0,19,19,31,1,32,training,zh2x,e,zh2x_e,zh2x_8_exe.wav,,exe.jpg,,,,,,,,,,,,,,,,,,,,,,,,,,,,,,,,,
60d1c82e42c14a1bfe66293c,2023-06-16_10h31.00.221,phx_ver10,2022.2.5,Win32,60.12867537,,,,,space,0.2542,0,20,20,8,1,9,training,zh2x,a,zh2x_a,zh2x_5_axa.wav,,axa.jpg,,,,,,,,,,,,,,,,,,,,,,,,,,,,,,,,,
60d1c82e42c14a1bfe66293c,2023-06-16_10h31.00.221,phx_ver10,2022.2.5,Win32,60.12867537,,,,,space,0.0348,0,21,21,24,1,25,training,zh2x,e,zh2x_e,zh2x_5_exe.wav,,exe.jpg,,,,,,,,,,,,,,,,,,,,,,,,,,,,,,,,,
60d1c82e42c14a1bfe66293c,2023-06-16_10h31.00.221,phx_ver10,2022.2.5,Win32,60.12867537,,,,,space,0.5757,0,22,22,2,1,3,training,zh2x,a,zh2x_a,zh2x_2_azha.wav,,azha.jpg,,,,,,,,,,,,,,,,,,,,,,,,,,,,,,,,,
60d1c82e42c14a1bfe66293c,2023-06-16_10h31.00.221,phx_ver10,2022.2.5,Win32,60.12867537,,,,,space,0.033599999,0,23,23,30,1,31,training,zh2x,e,zh2x_e,zh2x_7_exe.wav,,exe.jpg,,,,,,,,,,,,,,,,,,,,,,,,,,,,,,,,,
60d1c82e42c14a1bfe66293c,2023-06-16_10h31.00.221,phx_ver10,2022.2.5,Win32,60.12867537,,,,,,,,,,,,,attn_test,,,,zh2x_8_exe.wav,zh2x_8_axa.wav,exe.jpg,LEFT,,f,0.2138,space,0.8539,0,0,0,0,1,,,,,,,,,,,,,,,,,,,,,,
60d1c82e42c14a1bfe66293c,2023-06-16_10h31.00.221,phx_ver10,2022.2.5,Win32,60.12867537,,,,,space,0.5343,0,24,24,17,1,18,training,zh2x,e,zh2x_e,zh2x_2_ezhe.wav,,ezhe.jpg,,,,,,,,,,,,,,,,,,,,,,,,,,,,,,,,,
60d1c82e42c14a1bfe66293c,2023-06-16_10h31.00.221,phx_ver10,2022.2.5,Win32,60.12867537,,,,,space,0.6361,0,25,25,29,1,30,training,zh2x,e,zh2x_e,zh2x_7_exe.wav,,exe.jpg,,,,,,,,,,,,,,,,,,,,,,,,,,,,,,,,,
60d1c82e42c14a1bfe66293c,2023-06-16_10h31.00.221,phx_ver10,2022.2.5,Win32,60.12867537,,,,,space,0.6322,0,26,26,6,1,7,training,zh2x,a,zh2x_a,zh2x_3_azha.wav,,azha.jpg,,,,,,,,,,,,,,,,,,,,,,,,,,,,,,,,,
60d1c82e42c14a1bfe66293c,2023-06-16_10h31.00.221,phx_ver10,2022.2.5,Win32,60.12867537,,,,,space,0.1046,0,27,27,33,1,34,training,zh2x,i,zh2x_i,zh2x_2_izhi.wav,,izhi.jpg,,,,,,,,,,,,,,,,,,,,,,,,,,,,,,,,,
60d1c82e42c14a1bfe66293c,2023-06-16_10h31.00.221,phx_ver10,2022.2.5,Win32,60.12867537,,,,,space,0.401,0,28,28,26,1,27,training,zh2x,e,zh2x_e,zh2x_6_exe.wav,,exe.jpg,,,,,,,,,,,,,,,,,,,,,,,,,,,,,,,,,
60d1c82e42c14a1bfe66293c,2023-06-16_10h31.00.221,phx_ver10,2022.2.5,Win32,60.12867537,,,,,space,1.077,0,29,29,42,1,43,training,zh2x,i,zh2x_i,zh2x_6_ixi.wav,,ixi.jpg,,,,,,,,,,,,,,,,,,,,,,,,,,,,,,,,,
60d1c82e42c14a1bfe66293c,2023-06-16_10h31.00.221,phx_ver10,2022.2.5,Win32,60.12867537,,,,,,,,,,,,,attn_test,,,,zh2x_8_axa.wav,zh2x_8_ixi.wav,ixi.jpg,RIGHT,,j,0.897299999,space,1.266799999,0,0,0,0,1,,,,,,,,,,,,,,,,,,,,,,
60d1c82e42c14a1bfe66293c,2023-06-16_10h31.00.221,phx_ver10,2022.2.5,Win32,60.12867537,,,,,space,0.467099999,0,30,30,32,1,33,training,zh2x,i,zh2x_i,zh2x_1_izhi.wav,,izhi.jpg,,,,,,,,,,,,,,,,,,,,,,,,,,,,,,,,,
60d1c82e42c14a1bfe66293c,2023-06-16_10h31.00.221,phx_ver10,2022.2.5,Win32,60.12867537,,,,,space,0.0792,0,31,31,4,1,5,training,zh2x,a,zh2x_a,zh2x_2_azha.wav,,azha.jpg,,,,,,,,,,,,,,,,,,,,,,,,,,,,,,,,,
60d1c82e42c14a1bfe66293c,2023-06-16_10h31.00.221,phx_ver10,2022.2.5,Win32,60.12867537,,,,,space,0.3829,0,32,32,41,1,42,training,zh2x,i,zh2x_i,zh2x_6_ixi.wav,,ixi.jpg,,,,,,,,,,,,,,,,,,,,,,,,,,,,,,,,,
60d1c82e42c14a1bfe66293c,2023-06-16_10h31.00.221,phx_ver10,2022.2.5,Win32,60.12867537,,,,,space,0.0333,0,33,33,1,1,2,training,zh2x,a,zh2x_a,zh2x_2_azha.wav,,azha.jpg,,,,,,,,,,,,,,,,,,,,,,,,,,,,,,,,,
60d1c82e42c14a1bfe66293c,2023-06-16_10h31.00.221,phx_ver10,2022.2.5,Win32,60.12867537,,,,,space,0.2962,0,34,34,39,1,40,training,zh2x,i,zh2x_i,zh2x_4_izhi.wav,,izhi.jpg,,,,,,,,,,,,,,,,,,,,,,,,,,,,,,,,,
60d1c82e42c14a1bfe66293c,2023-06-16_10h31.00.221,phx_ver10,2022.2.5,Win32,60.12867537,,,,,space,0.184599999,0,35,35,13,1,14,training,zh2x,a,zh2x_a,zh2x_7_axa.wav,,axa.jpg,,,,,,,,,,,,,,,,,,,,,,,,,,,,,,,,,
60d1c82e42c14a1bfe66293c,2023-06-16_10h31.00.221,phx_ver10,2022.2.5,Win32,60.12867537,,,,,,,,,,,,,attn_test,,,,zh2x_8_exe.wav,zh2x_1_izhi.wav,izhi.jpg,RIGHT,,j,0.9304,space,1.5344,0,0,0,0,1,,,,,,,,,,,,,,,,,,,,,,
60d1c82e42c14a1bfe66293c,2023-06-16_10h31.00.221,phx_ver10,2022.2.5,Win32,60.12867537,,,,,space,0.426400001,0,36,36,27,1,28,training,zh2x,e,zh2x_e,zh2x_7_exe.wav,,exe.jpg,,,,,,,,,,,,,,,,,,,,,,,,,,,,,,,,,
60d1c82e42c14a1bfe66293c,2023-06-16_10h31.00.221,phx_ver10,2022.2.5,Win32,60.12867537,,,,,space,0.4931,0,37,37,7,1,8,training,zh2x,a,zh2x_a,zh2x_4_azha.wav,,azha.jpg,,,,,,,,,,,,,,,,,,,,,,,,,,,,,,,,,
60d1c82e42c14a1bfe66293c,2023-06-16_10h31.00.221,phx_ver10,2022.2.5,Win32,60.12867537,,,,,space,0.376700001,0,38,38,23,1,24,training,zh2x,e,zh2x_e,zh2x_4_ezhe.wav,,ezhe.jpg,,,,,,,,,,,,,,,,,,,,,,,,,,,,,,,,,
60d1c82e42c14a1bfe66293c,2023-06-16_10h31.00.221,phx_ver10,2022.2.5,Win32,60.12867537,,,,,space,0.4437,0,39,39,44,1,45,training,zh2x,i,zh2x_i,zh2x_7_ixi.wav,,ixi.jpg,,,,,,,,,,,,,,,,,,,,,,,,,,,,,,,,,
60d1c82e42c14a1bfe66293c,2023-06-16_10h31.00.221,phx_ver10,2022.2.5,Win32,60.12867537,,,,,space,0.427,0,40,40,46,1,47,training,zh2x,i,zh2x_i,zh2x_7_ixi.wav,,ixi.jpg,,,,,,,,,,,,,,,,,,,,,,,,,,,,,,,,,
60d1c82e42c14a1bfe66293c,2023-06-16_10h31.00.221,phx_ver10,2022.2.5,Win32,60.12867537,,,,,space,0.456,0,41,41,45,1,46,training,zh2x,i,zh2x_i,zh2x_7_ixi.wav,,ixi.jpg,,,,,,,,,,,,,,,,,,,,,,,,,,,,,,,,,
60d1c82e42c14a1bfe66293c,2023-06-16_10h31.00.221,phx_ver10,2022.2.5,Win32,60.12867537,,,,,,,,,,,,,attn_test,,,,zh2x_8_exe.wav,zh2x_8_ixi.wav,ixi.jpg,RIGHT,,j,0.4147,space,0.9672,0,0,0,0,1,,,,,,,,,,,,,,,,,,,,,,
60d1c82e42c14a1bfe66293c,2023-06-16_10h31.00.221,phx_ver10,2022.2.5,Win32,60.12867537,,,,,space,0.935799999,0,42,42,35,1,36,training,zh2x,i,zh2x_i,zh2x_2_izhi.wav,,izhi.jpg,,,,,,,,,,,,,,,,,,,,,,,,,,,,,,,,,
60d1c82e42c14a1bfe66293c,2023-06-16_10h31.00.221,phx_ver10,2022.2.5,Win32,60.12867537,,,,,space,0.0567,0,43,43,20,1,21,training,zh2x,e,zh2x_e,zh2x_2_ezhe.wav,,ezhe.jpg,,,,,,,,,,,,,,,,,,,,,,,,,,,,,,,,,
60d1c82e42c14a1bfe66293c,2023-06-16_10h31.00.221,phx_ver10,2022.2.5,Win32,60.12867537,,,,,space,0.0547,0,44,44,40,1,41,training,zh2x,i,zh2x_i,zh2x_5_ixi.wav,,ixi.jpg,,,,,,,,,,,,,,,,,,,,,,,,,,,,,,,,,
60d1c82e42c14a1bfe66293c,2023-06-16_10h31.00.221,phx_ver10,2022.2.5,Win32,60.12867537,,,,,space,0.337400001,0,45,45,10,1,11,training,zh2x,a,zh2x_a,zh2x_6_axa.wav,,axa.jpg,,,,,,,,,,,,,,,,,,,,,,,,,,,,,,,,,
60d1c82e42c14a1bfe66293c,2023-06-16_10h31.00.221,phx_ver10,2022.2.5,Win32,60.12867537,,,,,space,0.4393,0,46,46,47,1,48,training,zh2x,i,zh2x_i,zh2x_8_ixi.wav,,ixi.jpg,,,,,,,,,,,,,,,,,,,,,,,,,,,,,,,,,
60d1c82e42c14a1bfe66293c,2023-06-16_10h31.00.221,phx_ver10,2022.2.5,Win32,60.12867537,,,,,space,0.176200001,0,47,47,43,1,44,training,zh2x,i,zh2x_i,zh2x_7_ixi.wav,,ixi.jpg,,,,,,,,,,,,,,,,,,,,,,,,,,,,,,,,,
60d1c82e42c14a1bfe66293c,2023-06-16_10h31.00.221,phx_ver10,2022.2.5,Win32,60.12867537,,,,,,,,,,,,,attn_test,,,,zh2x_8_ixi.wav,zh2x_8_exe.wav,ixi.jpg,LEFT,,f,0.5387,space,1.1872,,,,,,,,,,,,,,,,,,,,,,,,,,,
60d1c82e42c14a1bfe66293c,2023-06-16_10h31.00.221,phx_ver10,2022.2.5,Win32,60.12867537,,,,,,,,,,,,,,,,,,,,,,,,,,,,,,,space,3.3161,,,,,,,,,,,,,,,,,,,,
60d1c82e42c14a1bfe66293c,2023-06-16_10h31.00.221,phx_ver10,2022.2.5,Win32,60.12867537,,,,,,,,,,,,,,,,,,,,,,,,,,,,,,,,,space,5.667,,,,,,,,,,,,,,,,,,
60d1c82e42c14a1bfe66293c,2023-06-16_10h31.00.221,phx_ver10,2022.2.5,Win32,60.12867537,,,,,,,,,,,,5,testing_pre,,,,ihi.wav,ifi.wav,,FALSE,,,,,,,,,,,,,,,j,2.094799999,space,3.496,0,0,0,4,1,,,,,,,,,
60d1c82e42c14a1bfe66293c,2023-06-16_10h31.00.221,phx_ver10,2022.2.5,Win32,60.12867537,,,,,,,,,,,,2,testing_pre,,,,auhau.wav,aufau.wav,,FALSE,,,,,,,,,,,,,,,j,0.2857,space,0.9212,0,1,1,1,1,,,,,,,,,
60d1c82e42c14a1bfe66293c,2023-06-16_10h31.00.221,phx_ver10,2022.2.5,Win32,60.12867537,,,,,,,,,,,,4,testing_pre,,,,eihei.wav,eihei.wav,,TRUE,,,,,,,,,,,,,,,j,0.7497,space,1.3487,0,2,2,3,1,,,,,,,,,
60d1c82e42c14a1bfe66293c,2023-06-16_10h31.00.221,phx_ver10,2022.2.5,Win32,60.12867537,,,,,,,,,,,,1,testing_pre,,,,ifi.wav,ifi.wav,,TRUE,,,,,,,,,,,,,,,j,1.2598,space,1.5424,0,3,3,0,1,,,,,,,,,
60d1c82e42c14a1bfe66293c,2023-06-16_10h31.00.221,phx_ver10,2022.2.5,Win32,60.12867537,,,,,,,,,,,,3,testing_pre,,,,afa.wav,aha.wav,,FALSE,,,,,,,,,,,,,,,j,0.7837,space,1.0696,0,4,4,2,1,,,,,,,,,
60d1c82e42c14a1bfe66293c,2023-06-16_10h31.00.221,phx_ver10,2022.2.5,Win32,60.12867537,,,,,,,,,,,,,,,,,,,,,,,,,,,,,,,,,,,,,,,,,,,,space,4.6359,,,,,,,
60d1c82e42c14a1bfe66293c,2023-06-16_10h31.00.221,phx_ver10,2022.2.5,Win32,60.12867537,,,,,,,,,,,,58,testing_3,zh2j,au,zh2j_au,zh2j_8_aujau.wav,zh2j_8_aujau.wav,,TRUE,FALSE,,,,,,,,,,,,,,j,0.4593,space,0.9675,,,,,,,,0,0,0,57,1,,
60d1c82e42c14a1bfe66293c,2023-06-16_10h31.00.221,phx_ver10,2022.2.5,Win32,60.12867537,,,,,,,,,,,,78,testing_3,j2x,ai,j2x_ai,j2x_8_aixai.wav,j2x_8_aixai.wav,,TRUE,FALSE,,,,,,,,,,,,,,j,0.2267,space,1.101099999,,,,,,,,0,1,1,77,1,,
60d1c82e42c14a1bfe66293c,2023-06-16_10h31.00.221,phx_ver10,2022.2.5,Win32,60.12867537,,,,,,,,,,,,133,testing_3,sh2j,e,sh2j_e,sh2j_1_eshe.wav,sh2j_1_eshe.wav,,TRUE,FALSE,,,,,,,,,,,,,,j,0.184,space,1.0005,,,,,,,,0,2,2,132,1,,
60d1c82e42c14a1bfe66293c,2023-06-16_10h31.00.221,phx_ver10,2022.2.5,Win32,60.12867537,,,,,,,,,,,,119,testing_3,sh2x,i,sh2x_i,sh2x_1_ishi.wav,sh2x_8_ixi.wav,,FALSE,FALSE,,,,,,,,,,,,,,f,0.167,space,0.7169,,,,,,,,0,3,3,118,1,,
60d1c82e42c14a1bfe66293c,2023-06-16_10h31.00.221,phx_ver10,2022.2.5,Win32,60.12867537,,,,,,,,,,,,42,testing_3,zh2sh,ei,zh2sh_ei,zh2sh_8_eishei.wav,zh2sh_8_eishei.wav,,TRUE,FALSE,,,,,,,,,,,,,,f,0.2761,space,0.644,,,,,,,,0,4,4,41,1,,
60d1c82e42c14a1bfe66293c,2023-06-16_10h31.00.221,phx_ver10,2022.2.5,Win32,60.12867537,,,,,,,,,,,,54,testing_3,zh2j,ai,zh2j_ai,zh2j_8_aijai.wav,zh2j_8_aijai.wav,,TRUE,FALSE,,,,,,,,,,,,,,j,1.21,space,1.5098,,,,,,,,0,5,5,53,1,,
60d1c82e42c14a1bfe66293c,2023-06-16_10h31.00.221,phx_ver10,2022.2.5,Win32,60.12867537,,,,,,,,,,,,89,testing_3,j2x,ei,j2x_ei,j2x_1_eijei.wav,j2x_1_eijei.wav,,TRUE,FALSE,,,,,,,,,,,,,,f,0.000599999,space,0.534400001,,,,,,,,0,6,6,88,1,,
60d1c82e42c14a1bfe66293c,2023-06-16_10h31.00.221,phx_ver10,2022.2.5,Win32,60.12867537,,,,,,,,,,,,117,testing_3,sh2x,i,sh2x_i,sh2x_1_ishi.wav,sh2x_1_ishi.wav,,TRUE,FALSE,,,,,,,,,,,,,,f,0.151,space,0.7203,,,,,,,,0,7,7,116,1,,
60d1c82e42c14a1bfe66293c,2023-06-16_10h31.00.221,phx_ver10,2022.2.5,Win32,60.12867537,,,,,,,,,,,,131,testing_3,sh2j,au,sh2j_au,sh2j_1_aushau.wav,sh2j_8_aujau.wav,,FALSE,FALSE,,,,,,,,,,,,,,j,0.9102,space,1.291400001,,,,,,,,0,8,8,130,1,,
60d1c82e42c14a1bfe66293c,2023-06-16_10h31.00.221,phx_ver10,2022.2.5,Win32,60.12867537,,,,,,,,,,,,129,testing_3,sh2j,au,sh2j_au,sh2j_1_aushau.wav,sh2j_1_aushau.wav,,TRUE,FALSE,,,,,,,,,,,,,,j,0.3511,space,0.8511,,,,,,,,0,9,9,128,1,,
60d1c82e42c14a1bfe66293c,2023-06-16_10h31.00.221,phx_ver10,2022.2.5,Win32,60.12867537,,,,,,,,,,,,49,testing_3,zh2j,a,zh2j_a,zh2j_1_azha.wav,zh2j_1_azha.wav,,TRUE,FALSE,,,,,,,,,,,,,,f,0.285,space,0.717700001,,,,,,,,0,10,10,48,1,,
60d1c82e42c14a1bfe66293c,2023-06-16_10h31.00.221,phx_ver10,2022.2.5,Win32,60.12867537,,,,,,,,,,,,46,testing_3,zh2sh,i,zh2sh_i,zh2sh_8_ishi.wav,zh2sh_8_ishi.wav,,TRUE,FALSE,,,,,,,,,,,,,,f,0.3266,space,0.7598,,,,,,,,0,11,11,45,1,,
60d1c82e42c14a1bfe66293c,2023-06-16_10h31.00.221,phx_ver10,2022.2.5,Win32,60.12867537,,,,,,,,,,,,3,testing_1,zh2x,a,zh2x_a,zh2x_1_azha.wav,zh2x_8_axa.wav,,FALSE,TRUE,,,,,,,,,,,,,,j,0.367400001,space,0.6768,,,,,,,,0,12,12,2,1,,
60d1c82e42c14a1bfe66293c,2023-06-16_10h31.00.221,phx_ver10,2022.2.5,Win32,60.12867537,,,,,,,,,,,,130,testing_3,sh2j,au,sh2j_au,sh2j_8_aujau.wav,sh2j_8_aujau.wav,,TRUE,FALSE,,,,,,,,,,,,,,j,0.0339,space,0.4167,,,,,,,,0,13,13,129,1,,
60d1c82e42c14a1bfe66293c,2023-06-16_10h31.00.221,phx_ver10,2022.2.5,Win32,60.12867537,,,,,,,,,,,,38,testing_3,zh2sh,e,zh2sh_e,zh2sh_8_eshe.wav,zh2sh_8_eshe.wav,,TRUE,FALSE,,,,,,,,,,,,,,f,0.2479,space,0.5475,,,,,,,,0,14,14,37,1,,
60d1c82e42c14a1bfe66293c,2023-06-16_10h31.00.221,phx_ver10,2022.2.5,Win32,60.12867537,,,,,,,,,,,,29,testing_3,zh2sh,ai,zh2sh_ai,zh2sh_1_aizhai.wav,zh2sh_1_aizhai.wav,,TRUE,FALSE,,,,,,,,,,,,,,j,0.2839,space,0.6505,,,,,,,,0,15,15,28,1,,
60d1c82e42c14a1bfe66293c,2023-06-16_10h31.00.221,phx_ver10,2022.2.5,Win32,60.12867537,,,,,,,,,,,,86,testing_3,j2x,e,j2x_e,j2x_8_exe.wav,j2x_8_exe.wav,,TRUE,FALSE,,,,,,,,,,,,,,f,0.2263,space,0.5757,,,,,,,,0,16,16,85,1,,
60d1c82e42c14a1bfe66293c,2023-06-16_10h31.00.221,phx_ver10,2022.2.5,Win32,60.12867537,,,,,,,,,,,,144,testing_3,sh2j,i,sh2j_i,sh2j_8_iji.wav,sh2j_1_ishi.wav,,FALSE,FALSE,,,,,,,,,,,,,,f,0.183900001,space,0.5586,,,,,,,,0,17,17,143,1,,
60d1c82e42c14a1bfe66293c,2023-06-16_10h31.00.221,phx_ver10,2022.2.5,Win32,60.12867537,,,,,,,,,,,,102,testing_3,sh2x,ai,sh2x_ai,sh2x_8_aixai.wav,sh2x_8_aixai.wav,,TRUE,FALSE,,,,,,,,,,,,,,f,0.034,space,0.4334,,,,,,,,0,18,18,101,1,,
60d1c82e42c14a1bfe66293c,2023-06-16_10h31.00.221,phx_ver10,2022.2.5,Win32,60.12867537,,,,,,,,,,,,65,testing_3,zh2j,ei,zh2j_ei,zh2j_1_eizhei.wav,zh2j_1_eizhei.wav,,TRUE,FALSE,,,,,,,,,,,,,,j,0.1506,space,0.4824,,,,,,,,0,19,19,64,1,,
60d1c82e42c14a1bfe66293c,2023-06-16_10h31.00.221,phx_ver10,2022.2.5,Win32,60.12867537,,,,,,,,,,,,4,testing_1,zh2x,a,zh2x_a,zh2x_8_axa.wav,zh2x_1_azha.wav,,FALSE,TRUE,,,,,,,,,,,,,,f,0.3012,space,0.7172,,,,,,,,0,20,20,3,1,,
60d1c82e42c14a1bfe66293c,2023-06-16_10h31.00.221,phx_ver10,2022.2.5,Win32,60.12867537,,,,,,,,,,,,113,testing_3,sh2x,ei,sh2x_ei,sh2x_1_eishei.wav,sh2x_1_eishei.wav,,TRUE,FALSE,,,,,,,,,,,,,,j,0.4669,space,1.7643,,,,,,,,0,21,21,112,1,,
60d1c82e42c14a1bfe66293c,2023-06-16_10h31.00.221,phx_ver10,2022.2.5,Win32,60.12867537,,,,,,,,,,,,36,testing_3,zh2sh,au,zh2sh_au,zh2sh_8_aushau.wav,zh2sh_1_auzhau.wav,,FALSE,FALSE,,,,,,,,,,,,,,j,0.0679,space,0.3932,,,,,,,,0,22,22,35,1,,
60d1c82e42c14a1bfe66293c,2023-06-16_10h31.00.221,phx_ver10,2022.2.5,Win32,60.12867537,,,,,,,,,,,,27,testing_3,zh2sh,a,zh2sh_a,zh2sh_1_azha.wav,zh2sh_8_asha.wav,,FALSE,FALSE,,,,,,,,,,,,,,f,0.5109,space,0.8268,,,,,,,,0,23,23,26,1,,
60d1c82e42c14a1bfe66293c,2023-06-16_10h31.00.221,phx_ver10,2022.2.5,Win32,60.12867537,,,,,,,,,,,,53,testing_3,zh2j,ai,zh2j_ai,zh2j_1_aizhai.wav,zh2j_1_aizhai.wav,,TRUE,FALSE,,,,,,,,,,,,,,j,0.2839,space,0.7419,,,,,,,,0,24,24,52,1,,
60d1c82e42c14a1bfe66293c,2023-06-16_10h31.00.221,phx_ver10,2022.2.5,Win32,60.12867537,,,,,,,,,,,,66,testing_3,zh2j,ei,zh2j_ei,zh2j_8_eijei.wav,zh2j_8_eijei.wav,,TRUE,FALSE,,,,,,,,,,,,,,j,0.017099999,space,0.384,,,,,,,,0,25,25,65,1,,
60d1c82e42c14a1bfe66293c,2023-06-16_10h31.00.221,phx_ver10,2022.2.5,Win32,60.12867537,,,,,,,,,,,,12,testing_1,zh2x,i,zh2x_i,zh2x_8_ixi.wav,zh2x_1_izhi.wav,,FALSE,TRUE,,,,,,,,,,,,,,f,0.335,space,0.700900001,,,,,,,,0,26,26,11,1,,
60d1c82e42c14a1bfe66293c,2023-06-16_10h31.00.221,phx_ver10,2022.2.5,Win32,60.12867537,,,,,,,,,,,,118,testing_3,sh2x,i,sh2x_i,sh2x_8_ixi.wav,sh2x_8_ixi.wav,,TRUE,FALSE,,,,,,,,,,,,,,f,0.0434,space,0.630599999,,,,,,,,0,27,27,117,1,,
60d1c82e42c14a1bfe66293c,2023-06-16_10h31.00.221,phx_ver10,2022.2.5,Win32,60.12867537,,,,,,,,,,,,31,testing_3,zh2sh,ai,zh2sh_ai,zh2sh_1_aizhai.wav,zh2sh_8_aishai.wav,,FALSE,FALSE,,,,,,,,,,,,,,j,0.0101,space,4.7325,,,,,,,,0,28,28,30,1,,
60d1c82e42c14a1bfe66293c,2023-06-16_10h31.00.221,phx_ver10,2022.2.5,Win32,60.12867537,,,,,,,,,,,,88,testing_3,j2x,e,j2x_e,j2x_8_exe.wav,j2x_1_eje.wav,,FALSE,FALSE,,,,,,,,,,,,,,f,0.270700001,space,0.8006,,,,,,,,0,29,29,87,1,,
60d1c82e42c14a1bfe66293c,2023-06-16_10h31.00.221,phx_ver10,2022.2.5,Win32,60.12867537,,,,,,,,,,,,77,testing_3,j2x,ai,j2x_ai,j2x_1_aijai.wav,j2x_1_aijai.wav,,TRUE,FALSE,,,,,,,,,,,,,,j,0.5778,space,0.860400001,,,,,,,,0,30,30,76,1,,
60d1c82e42c14a1bfe66293c,2023-06-16_10h31.00.221,phx_ver10,2022.2.5,Win32,60.12867537,,,,,,,,,,,,43,testing_3,zh2sh,ei,zh2sh_ei,zh2sh_1_eizhei.wav,zh2sh_8_eishei.wav,,FALSE,FALSE,,,,,,,,,,,,,,j,0.0008,space,0.559799999,,,,,,,,0,31,31,42,1,,
60d1c82e42c14a1bfe66293c,2023-06-16_10h31.00.221,phx_ver10,2022.2.5,Win32,60.12867537,,,,,,,,,,,,62,testing_3,zh2j,e,zh2j_e,zh2j_8_eje.wav,zh2j_8_eje.wav,,TRUE,FALSE,,,,,,,,,,,,,,f,0.5995,space,1.2782,,,,,,,,0,32,32,61,1,,
60d1c82e42c14a1bfe66293c,2023-06-16_10h31.00.221,phx_ver10,2022.2.5,Win32,60.12867537,,,,,,,,,,,,114,testing_3,sh2x,ei,sh2x_ei,sh2x_8_eixei.wav,sh2x_8_eixei.wav,,TRUE,FALSE,,,,,,,,,,,,,,j,0.332700001,space,0.8229,,,,,,,,0,33,33,113,1,,
60d1c82e42c14a1bfe66293c,2023-06-16_10h31.00.221,phx_ver10,2022.2.5,Win32,60.12867537,,,,,,,,,,,,15,testing_2,zh2x,ai,zh2x_ai,zh2x_1_aizhai.wav,zh2x_8_aixai.wav,,FALSE,FALSE,,,,,,,,,,,,,,j,0.275900001,space,0.6088,,,,,,,,0,34,34,14,1,,
60d1c82e42c14a1bfe66293c,2023-06-16_10h31.00.221,phx_ver10,2022.2.5,Win32,60.12867537,,,,,,,,,,,,105,testing_3,sh2x,au,sh2x_au,sh2x_1_aushau.wav,sh2x_1_aushau.wav,,TRUE,FALSE,,,,,,,,,,,,,,j,0.0773,space,0.5845,,,,,,,,0,35,35,104,1,,
60d1c82e42c14a1bfe66293c,2023-06-16_10h31.00.221,phx_ver10,2022.2.5,Win32,60.12867537,,,,,,,,,,,,82,testing_3,j2x,au,j2x_au,j2x_8_auxau.wav,j2x_8_auxau.wav,,TRUE,FALSE,,,,,,,,,,,,,,j,0.659,space,1.333799999,,,,,,,,0,36,36,81,1,,
60d1c82e42c14a1bfe66293c,2023-06-16_10h31.00.221,phx_ver10,2022.2.5,Win32,60.12867537,,,,,,,,,,,,73,testing_3,j2x,a,j2x_a,j2x_1_aja.wav,j2x_1_aja.wav,,TRUE,FALSE,,,,,,,,,,,,,,f,0.3175,space,0.651099999,,,,,,,,0,37,37,72,1,,
60d1c82e42c14a1bfe66293c,2023-06-16_10h31.00.221,phx_ver10,2022.2.5,Win32,60.12867537,,,,,,,,,,,,13,testing_2,zh2x,ai,zh2x_ai,zh2x_1_aizhai.wav,zh2x_1_aizhai.wav,,TRUE,FALSE,,,,,,,,,,,,,,j,1.8046,space,2.1695,,,,,,,,0,38,38,12,1,,
60d1c82e42c14a1bfe66293c,2023-06-16_10h31.00.221,phx_ver10,2022.2.5,Win32,60.12867537,,,,,,,,,,,,142,testing_3,sh2j,i,sh2j_i,sh2j_8_iji.wav,sh2j_8_iji.wav,,TRUE,FALSE,,,,,,,,,,,,,,f,0.121599999,space,0.5719,,,,,,,,0,39,39,141,1,,
60d1c82e42c14a1bfe66293c,2023-06-16_10h31.00.221,phx_ver10,2022.2.5,Win32,60.12867537,,,,,,,,,,,,134,testing_3,sh2j,e,sh2j_e,sh2j_8_eje.wav,sh2j_8_eje.wav,,TRUE,FALSE,,,,,,,,,,,,,,f,0.349700001,space,0.851400001,,,,,,,,0,40,40,133,1,,
60d1c82e42c14a1bfe66293c,2023-06-16_10h31.00.221,phx_ver10,2022.2.5,Win32,60.12867537,,,,,,,,,,,,143,testing_3,sh2j,i,sh2j_i,sh2j_1_ishi.wav,sh2j_8_iji.wav,,FALSE,FALSE,,,,,,,,,,,,,,f,2.4014,space,2.7472,,,,,,,,0,41,41,142,1,,
60d1c82e42c14a1bfe66293c,2023-06-16_10h31.00.221,phx_ver10,2022.2.5,Win32,60.12867537,,,,,,,,,,,,92,testing_3,j2x,ei,j2x_ei,j2x_8_eixei.wav,j2x_1_eijei.wav,,FALSE,FALSE,,,,,,,,,,,,,,j,0.3011,space,0.6675,,,,,,,,0,42,42,91,1,,
60d1c82e42c14a1bfe66293c,2023-06-16_10h31.00.221,phx_ver10,2022.2.5,Win32,60.12867537,,,,,,,,,,,,2,testing_1,zh2x,a,zh2x_a,zh2x_8_axa.wav,zh2x_8_axa_copy.wav,,TRUE,TRUE,,,,,,,,,,,,,,j,0.3838,space,0.7652,,,,,,,,0,43,43,1,1,,
60d1c82e42c14a1bfe66293c,2023-06-16_10h31.00.221,phx_ver10,2022.2.5,Win32,60.12867537,,,,,,,,,,,,138,testing_3,sh2j,ei,sh2j_ei,sh2j_8_eijei.wav,sh2j_8_eijei.wav,,TRUE,FALSE,,,,,,,,,,,,,,j,0.367,space,0.7667,,,,,,,,0,44,44,137,1,,
60d1c82e42c14a1bfe66293c,2023-06-16_10h31.00.221,phx_ver10,2022.2.5,Win32,60.12867537,,,,,,,,,,,,14,testing_2,zh2x,ai,zh2x_ai,zh2x_8_aixai.wav,zh2x_8_aixai.wav,,TRUE,FALSE,,,,,,,,,,,,,,j,0.2252,space,0.7169,,,,,,,,0,45,45,13,1,,
60d1c82e42c14a1bfe66293c,2023-06-16_10h31.00.221,phx_ver10,2022.2.5,Win32,60.12867537,,,,,,,,,,,,94,testing_3,j2x,i,j2x_i,j2x_8_ixi.wav,j2x_8_ixi.wav,,TRUE,FALSE,,,,,,,,,,,,,,f,0.166799999,space,0.6002,,,,,,,,0,46,46,93,1,,
60d1c82e42c14a1bfe66293c,2023-06-16_10h31.00.221,phx_ver10,2022.2.5,Win32,60.12867537,,,,,,,,,,,,56,testing_3,zh2j,ai,zh2j_ai,zh2j_8_aijai.wav,zh2j_1_aizhai.wav,,FALSE,FALSE,,,,,,,,,,,,,,j,0.3054,space,0.756,,,,,,,,0,47,47,55,1,,
60d1c82e42c14a1bfe66293c,2023-06-16_10h31.00.221,phx_ver10,2022.2.5,Win32,60.12867537,,,,,,,,,,,,20,testing_2,zh2x,au,zh2x_au,zh2x_8_auxau.wav,zh2x_1_auzhau.wav,,FALSE,FALSE,,,,,,,,,,,,,,j,0.2884,space,0.7127,,,,,,,,0,48,48,19,1,,
60d1c82e42c14a1bfe66293c,2023-06-16_10h31.00.221,phx_ver10,2022.2.5,Win32,60.12867537,,,,,,,,,,,,74,testing_3,j2x,a,j2x_a,j2x_8_axa.wav,j2x_8_axa.wav,,TRUE,FALSE,,,,,,,,,,,,,,j,0.1511,space,0.669099999,,,,,,,,0,49,49,73,1,,
60d1c82e42c14a1bfe66293c,2023-06-16_10h31.00.221,phx_ver10,2022.2.5,Win32,60.12867537,,,,,,,,,,,,47,testing_3,zh2sh,i,zh2sh_i,zh2sh_1_izhi.wav,zh2sh_8_ishi.wav,,FALSE,FALSE,,,,,,,,,,,,,,f,0.298900001,space,0.887900001,,,,,,,,0,50,50,46,1,,
60d1c82e42c14a1bfe66293c,2023-06-16_10h31.00.221,phx_ver10,2022.2.5,Win32,60.12867537,,,,,,,,,,,,87,testing_3,j2x,e,j2x_e,j2x_1_eje.wav,j2x_8_exe.wav,,FALSE,FALSE,,,,,,,,,,,,,,f,0.2759,space,0.670400001,,,,,,,,0,51,51,86,1,,
60d1c82e42c14a1bfe66293c,2023-06-16_10h31.00.221,phx_ver10,2022.2.5,Win32,60.12867537,,,,,,,,,,,,25,testing_3,zh2sh,a,zh2sh_a,zh2sh_1_azha.wav,zh2sh_1_azha.wav,,TRUE,FALSE,,,,,,,,,,,,,,j,0.2006,space,0.7671,,,,,,,,0,52,52,24,1,,
60d1c82e42c14a1bfe66293c,2023-06-16_10h31.00.221,phx_ver10,2022.2.5,Win32,60.12867537,,,,,,,,,,,,44,testing_3,zh2sh,ei,zh2sh_ei,zh2sh_8_eishei.wav,zh2sh_1_eizhei.wav,,FALSE,FALSE,,,,,,,,,,,,,,j,0.351,space,0.968599999,,,,,,,,0,53,53,43,1,,
60d1c82e42c14a1bfe66293c,2023-06-16_10h31.00.221,phx_ver10,2022.2.5,Win32,60.12867537,,,,,,,,,,,,33,testing_3,zh2sh,au,zh2sh_au,zh2sh_1_auzhau.wav,zh2sh_1_auzhau.wav,,TRUE,FALSE,,,,,,,,,,,,,,j,0.219,space,0.867299999,,,,,,,,0,54,54,32,1,,
60d1c82e42c14a1bfe66293c,2023-06-16_10h31.00.221,phx_ver10,2022.2.5,Win32,60.12867537,,,,,,,,,,,,85,testing_3,j2x,e,j2x_e,j2x_1_eje.wav,j2x_1_eje.wav,,TRUE,FALSE,,,,,,,,,,,,,,f,0.6374,space,1.4323,,,,,,,,0,55,55,84,1,,
60d1c82e42c14a1bfe66293c,2023-06-16_10h31.00.221,phx_ver10,2022.2.5,Win32,60.12867537,,,,,,,,,,,,21,testing_2,zh2x,ei,zh2x_ei,zh2x_1_eizhei.wav,zh2x_1_eizhei.wav,,TRUE,FALSE,,,,,,,,,,,,,,j,0.300900001,space,0.9003,,,,,,,,0,56,56,20,1,,
60d1c82e42c14a1bfe66293c,2023-06-16_10h31.00.221,phx_ver10,2022.2.5,Win32,60.12867537,,,,,,,,,,,,7,testing_1,zh2x,e,zh2x_e,zh2x_1_ezhe.wav,zh2x_8_exe.wav,,FALSE,TRUE,,,,,,,,,,,,,,f,0.3027,space,0.902599999,,,,,,,,0,57,57,6,1,,
60d1c82e42c14a1bfe66293c,2023-06-16_10h31.00.221,phx_ver10,2022.2.5,Win32,60.12867537,,,,,,,,,,,,59,testing_3,zh2j,au,zh2j_au,zh2j_1_auzhau.wav,zh2j_8_aujau.wav,,FALSE,FALSE,,,,,,,,,,,,,,j,0.592700001,space,1.1931,,,,,,,,0,58,58,58,1,,
60d1c82e42c14a1bfe66293c,2023-06-16_10h31.00.221,phx_ver10,2022.2.5,Win32,60.12867537,,,,,,,,,,,,121,testing_3,sh2j,a,sh2j_a,sh2j_1_asha.wav,sh2j_1_asha.wav,,TRUE,FALSE,,,,,,,,,,,,,,f,0.3511,space,0.8028,,,,,,,,0,59,59,120,1,,
60d1c82e42c14a1bfe66293c,2023-06-16_10h31.00.221,phx_ver10,2022.2.5,Win32,60.12867537,,,,,,,,,,,,52,testing_3,zh2j,a,zh2j_a,zh2j_8_aja.wav,zh2j_1_azha.wav,,FALSE,FALSE,,,,,,,,,,,,,,f,0.1187,space,0.5023,,,,,,,,0,60,60,51,1,,
60d1c82e42c14a1bfe66293c,2023-06-16_10h31.00.221,phx_ver10,2022.2.5,Win32,60.12867537,,,,,,,,,,,,115,testing_3,sh2x,ei,sh2x_ei,sh2x_1_eishei.wav,sh2x_8_eixei.wav,,FALSE,FALSE,,,,,,,,,,,,,,j,0.3187,space,0.6854,,,,,,,,0,61,61,114,1,,
60d1c82e42c14a1bfe66293c,2023-06-16_10h31.00.221,phx_ver10,2022.2.5,Win32,60.12867537,,,,,,,,,,,,57,testing_3,zh2j,au,zh2j_au,zh2j_1_auzhau.wav,zh2j_1_auzhau.wav,,TRUE,FALSE,,,,,,,,,,,,,,j,1.067599999,space,1.4173,,,,,,,,0,62,62,56,1,,
60d1c82e42c14a1bfe66293c,2023-06-16_10h31.00.221,phx_ver10,2022.2.5,Win32,60.12867537,,,,,,,,,,,,123,testing_3,sh2j,a,sh2j_a,sh2j_1_asha.wav,sh2j_8_aja.wav,,FALSE,FALSE,,,,,,,,,,,,,,f,0.460200001,space,0.8935,,,,,,,,0,63,63,122,1,,
60d1c82e42c14a1bfe66293c,2023-06-16_10h31.00.221,phx_ver10,2022.2.5,Win32,60.12867537,,,,,,,,,,,,107,testing_3,sh2x,au,sh2x_au,sh2x_1_aushau.wav,sh2x_8_auxau.wav,,FALSE,FALSE,,,,,,,,,,,,,,j,1.2672,space,1.6008,,,,,,,,0,64,64,106,1,,
60d1c82e42c14a1bfe66293c,2023-06-16_10h31.00.221,phx_ver10,2022.2.5,Win32,60.12867537,,,,,,,,,,,,35,testing_3,zh2sh,au,zh2sh_au,zh2sh_1_auzhau.wav,zh2sh_8_aushau.wav,,FALSE,FALSE,,,,,,,,,,,,,,j,1.135400001,space,1.627099999,,,,,,,,0,65,65,34,1,,
60d1c82e42c14a1bfe66293c,2023-06-16_10h31.00.221,phx_ver10,2022.2.5,Win32,60.12867537,,,,,,,,,,,,122,testing_3,sh2j,a,sh2j_a,sh2j_8_aja.wav,sh2j_8_aja.wav,,TRUE,FALSE,,,,,,,,,,,,,,f,0.266299999,space,0.5663,,,,,,,,0,66,66,121,1,,
60d1c82e42c14a1bfe66293c,2023-06-16_10h31.00.221,phx_ver10,2022.2.5,Win32,60.12867537,,,,,,,,,,,,136,testing_3,sh2j,e,sh2j_e,sh2j_8_eje.wav,sh2j_1_eshe.wav,,FALSE,FALSE,,,,,,,,,,,,,,f,0.342700001,space,0.643,,,,,,,,0,67,67,135,1,,
60d1c82e42c14a1bfe66293c,2023-06-16_10h31.00.221,phx_ver10,2022.2.5,Win32,60.12867537,,,,,,,,,,,,68,testing_3,zh2j,ei,zh2j_ei,zh2j_8_eijei.wav,zh2j_1_eizhei.wav,,FALSE,FALSE,,,,,,,,,,,,,,j,0.193200001,space,0.577,,,,,,,,0,68,68,67,1,,
60d1c82e42c14a1bfe66293c,2023-06-16_10h31.00.221,phx_ver10,2022.2.5,Win32,60.12867537,,,,,,,,,,,,120,testing_3,sh2x,i,sh2x_i,sh2x_8_ixi.wav,sh2x_1_ishi.wav,,FALSE,FALSE,,,,,,,,,,,,,,f,0.2342,space,0.559,,,,,,,,0,69,69,119,1,,
60d1c82e42c14a1bfe66293c,2023-06-16_10h31.00.221,phx_ver10,2022.2.5,Win32,60.12867537,,,,,,,,,,,,104,testing_3,sh2x,ai,sh2x_ai,sh2x_8_aixai.wav,sh2x_1_aishai.wav,,FALSE,FALSE,,,,,,,,,,,,,,j,0.0832,space,0.4017,,,,,,,,0,70,70,103,1,,
60d1c82e42c14a1bfe66293c,2023-06-16_10h31.00.221,phx_ver10,2022.2.5,Win32,60.12867537,,,,,,,,,,,,69,testing_3,zh2j,i,zh2j_i,zh2j_1_izhi.wav,zh2j_1_izhi.wav,,TRUE,FALSE,,,,,,,,,,,,,,f,0.2269,space,0.542799999,,,,,,,,0,71,71,68,1,,
60d1c82e42c14a1bfe66293c,2023-06-16_10h31.00.221,phx_ver10,2022.2.5,Win32,60.12867537,,,,,,,,,,,,55,testing_3,zh2j,ai,zh2j_ai,zh2j_1_aizhai.wav,zh2j_8_aijai.wav,,FALSE,FALSE,,,,,,,,,,,,,,j,0.2305,space,0.5844,,,,,,,,0,72,72,54,1,,
60d1c82e42c14a1bfe66293c,2023-06-16_10h31.00.221,phx_ver10,2022.2.5,Win32,60.12867537,,,,,,,,,,,,98,testing_3,sh2x,a,sh2x_a,sh2x_8_axa.wav,sh2x_8_axa.wav,,TRUE,FALSE,,,,,,,,,,,,,,f,0.9435,space,1.276599999,,,,,,,,0,73,73,97,1,,
60d1c82e42c14a1bfe66293c,2023-06-16_10h31.00.221,phx_ver10,2022.2.5,Win32,60.12867537,,,,,,,,,,,,116,testing_3,sh2x,ei,sh2x_ei,sh2x_8_eixei.wav,sh2x_1_eishei.wav,,FALSE,FALSE,,,,,,,,,,,,,,j,0.127299999,space,0.4927,,,,,,,,0,74,74,115,1,,
60d1c82e42c14a1bfe66293c,2023-06-16_10h31.00.221,phx_ver10,2022.2.5,Win32,60.12867537,,,,,,,,,,,,50,testing_3,zh2j,a,zh2j_a,zh2j_8_aja.wav,zh2j_8_aja.wav,,TRUE,FALSE,,,,,,,,,,,,,,f,0.7288,space,0.9595,,,,,,,,0,75,75,49,1,,
60d1c82e42c14a1bfe66293c,2023-06-16_10h31.00.221,phx_ver10,2022.2.5,Win32,60.12867537,,,,,,,,,,,,71,testing_3,zh2j,i,zh2j_i,zh2j_1_izhi.wav,zh2j_8_iji.wav,,FALSE,FALSE,,,,,,,,,,,,,,f,0.2345,space,0.5345,,,,,,,,0,76,76,70,1,,
60d1c82e42c14a1bfe66293c,2023-06-16_10h31.00.221,phx_ver10,2022.2.5,Win32,60.12867537,,,,,,,,,,,,100,testing_3,sh2x,a,sh2x_a,sh2x_8_axa.wav,sh2x_1_asha.wav,,FALSE,FALSE,,,,,,,,,,,,,,f,0.3007,space,0.605400001,,,,,,,,0,77,77,99,1,,
60d1c82e42c14a1bfe66293c,2023-06-16_10h31.00.221,phx_ver10,2022.2.5,Win32,60.12867537,,,,,,,,,,,,76,testing_3,j2x,a,j2x_a,j2x_8_axa.wav,j2x_1_aja.wav,,FALSE,FALSE,,,,,,,,,,,,,,f,0.2007,space,0.534,,,,,,,,0,78,78,75,1,,
60d1c82e42c14a1bfe66293c,2023-06-16_10h31.00.221,phx_ver10,2022.2.5,Win32,60.12867537,,,,,,,,,,,,34,testing_3,zh2sh,au,zh2sh_au,zh2sh_8_aushau.wav,zh2sh_8_aushau.wav,,TRUE,FALSE,,,,,,,,,,,,,,j,0.4362,space,0.7503,,,,,,,,0,79,79,33,1,,
60d1c82e42c14a1bfe66293c,2023-06-16_10h31.00.221,phx_ver10,2022.2.5,Win32,60.12867537,,,,,,,,,,,,80,testing_3,j2x,ai,j2x_ai,j2x_8_aixai.wav,j2x_1_aijai.wav,,FALSE,FALSE,,,,,,,,,,,,,,j,0.226599999,space,0.5267,,,,,,,,0,80,80,79,1,,
60d1c82e42c14a1bfe66293c,2023-06-16_10h31.00.221,phx_ver10,2022.2.5,Win32,60.12867537,,,,,,,,,,,,132,testing_3,sh2j,au,sh2j_au,sh2j_8_aujau.wav,sh2j_1_aushau.wav,,FALSE,FALSE,,,,,,,,,,,,,,j,0.718400001,space,1.1683,,,,,,,,0,81,81,131,1,,
60d1c82e42c14a1bfe66293c,2023-06-16_10h31.00.221,phx_ver10,2022.2.5,Win32,60.12867537,,,,,,,,,,,,24,testing_2,zh2x,ei,zh2x_ei,zh2x_8_eixei.wav,zh2x_1_eizhei.wav,,FALSE,FALSE,,,,,,,,,,,,,,j,1.417,space,1.6589,,,,,,,,0,82,82,23,1,,
60d1c82e42c14a1bfe66293c,2023-06-16_10h31.00.221,phx_ver10,2022.2.5,Win32,60.12867537,,,,,,,,,,,,99,testing_3,sh2x,a,sh2x_a,sh2x_1_asha.wav,sh2x_8_axa.wav,,FALSE,FALSE,,,,,,,,,,,,,,f,1.316900001,space,1.6,,,,,,,,0,83,83,98,1,,
60d1c82e42c14a1bfe66293c,2023-06-16_10h31.00.221,phx_ver10,2022.2.5,Win32,60.12867537,,,,,,,,,,,,137,testing_3,sh2j,ei,sh2j_ei,sh2j_1_eishei.wav,sh2j_1_eishei.wav,,TRUE,FALSE,,,,,,,,,,,,,,f,1.0656,space,1.315400001,,,,,,,,0,84,84,136,1,,
60d1c82e42c14a1bfe66293c,2023-06-16_10h31.00.221,phx_ver10,2022.2.5,Win32,60.12867537,,,,,,,,,,,,9,testing_1,zh2x,i,zh2x_i,zh2x_1_izhi.wav,zh2x_1_izhi_copy.wav,,TRUE,TRUE,,,,,,,,,,,,,,f,0.4921,space,0.8185,,,,,,,,0,85,85,8,1,,
60d1c82e42c14a1bfe66293c,2023-06-16_10h31.00.221,phx_ver10,2022.2.5,Win32,60.12867537,,,,,,,,,,,,101,testing_3,sh2x,ai,sh2x_ai,sh2x_1_aishai.wav,sh2x_1_aishai.wav,,TRUE,FALSE,,,,,,,,,,,,,,j,0.7676,space,1.0171,,,,,,,,0,86,86,100,1,,
60d1c82e42c14a1bfe66293c,2023-06-16_10h31.00.221,phx_ver10,2022.2.5,Win32,60.12867537,,,,,,,,,,,,109,testing_3,sh2x,e,sh2x_e,sh2x_1_eshe.wav,sh2x_1_eshe.wav,,TRUE,FALSE,,,,,,,,,,,,,,f,0.5675,space,0.8172,,,,,,,,0,87,87,108,1,,
60d1c82e42c14a1bfe66293c,2023-06-16_10h31.00.221,phx_ver10,2022.2.5,Win32,60.12867537,,,,,,,,,,,,19,testing_2,zh2x,au,zh2x_au,zh2x_1_auzhau.wav,zh2x_8_auxau.wav,,FALSE,FALSE,,,,,,,,,,,,,,j,1.7583,space,2.0498,,,,,,,,0,88,88,18,1,,
60d1c82e42c14a1bfe66293c,2023-06-16_10h31.00.221,phx_ver10,2022.2.5,Win32,60.12867537,,,,,,,,,,,,103,testing_3,sh2x,ai,sh2x_ai,sh2x_1_aishai.wav,sh2x_8_aixai.wav,,FALSE,FALSE,,,,,,,,,,,,,,j,1.425099999,space,1.6416,,,,,,,,0,89,89,102,1,,
60d1c82e42c14a1bfe66293c,2023-06-16_10h31.00.221,phx_ver10,2022.2.5,Win32,60.12867537,,,,,,,,,,,,64,testing_3,zh2j,e,zh2j_e,zh2j_8_eje.wav,zh2j_1_ezhe.wav,,FALSE,FALSE,,,,,,,,,,,,,,f,1.300099999,space,1.615799999,,,,,,,,0,90,90,63,1,,
60d1c82e42c14a1bfe66293c,2023-06-16_10h31.00.221,phx_ver10,2022.2.5,Win32,60.12867537,,,,,,,,,,,,111,testing_3,sh2x,e,sh2x_e,sh2x_1_eshe.wav,sh2x_8_exe.wav,,FALSE,FALSE,,,,,,,,,,,,,,j,42.6977,space,43.0972,,,,,,,,0,91,91,110,1,,
60d1c82e42c14a1bfe66293c,2023-06-16_10h31.00.221,phx_ver10,2022.2.5,Win32,60.12867537,,,,,,,,,,,,108,testing_3,sh2x,au,sh2x_au,sh2x_8_auxau.wav,sh2x_1_aushau.wav,,FALSE,FALSE,,,,,,,,,,,,,,j,0.600900001,space,0.7676,,,,,,,,0,92,92,107,1,,
60d1c82e42c14a1bfe66293c,2023-06-16_10h31.00.221,phx_ver10,2022.2.5,Win32,60.12867537,,,,,,,,,,,,51,testing_3,zh2j,a,zh2j_a,zh2j_1_azha.wav,zh2j_8_aja.wav,,FALSE,FALSE,,,,,,,,,,,,,,f,0.0766,space,0.576200001,,,,,,,,0,93,93,50,1,,
60d1c82e42c14a1bfe66293c,2023-06-16_10h31.00.221,phx_ver10,2022.2.5,Win32,60.12867537,,,,,,,,,,,,112,testing_3,sh2x,e,sh2x_e,sh2x_8_exe.wav,sh2x_1_eshe.wav,,FALSE,FALSE,,,,,,,,,,,,,,f,0.1997,space,0.5827,,,,,,,,0,94,94,111,1,,
60d1c82e42c14a1bfe66293c,2023-06-16_10h31.00.221,phx_ver10,2022.2.5,Win32,60.12867537,,,,,,,,,,,,141,testing_3,sh2j,i,sh2j_i,sh2j_1_ishi.wav,sh2j_1_ishi.wav,,TRUE,FALSE,,,,,,,,,,,,,,f,0.150299999,space,0.4672,,,,,,,,0,95,95,140,1,,
60d1c82e42c14a1bfe66293c,2023-06-16_10h31.00.221,phx_ver10,2022.2.5,Win32,60.12867537,,,,,,,,,,,,26,testing_3,zh2sh,a,zh2sh_a,zh2sh_8_asha.wav,zh2sh_8_asha.wav,,TRUE,FALSE,,,,,,,,,,,,,,f,2.1086,space,2.4585,,,,,,,,0,96,96,25,1,,
60d1c82e42c14a1bfe66293c,2023-06-16_10h31.00.221,phx_ver10,2022.2.5,Win32,60.12867537,,,,,,,,,,,,79,testing_3,j2x,ai,j2x_ai,j2x_1_aijai.wav,j2x_8_aixai.wav,,FALSE,FALSE,,,,,,,,,,,,,,f,10.8654,space,11.5735,,,,,,,,0,97,97,78,1,,
60d1c82e42c14a1bfe66293c,2023-06-16_10h31.00.221,phx_ver10,2022.2.5,Win32,60.12867537,,,,,,,,,,,,110,testing_3,sh2x,e,sh2x_e,sh2x_8_exe.wav,sh2x_8_exe.wav,,TRUE,FALSE,,,,,,,,,,,,,,f,0.2198,space,0.550700001,,,,,,,,0,98,98,109,1,,
60d1c82e42c14a1bfe66293c,2023-06-16_10h31.00.221,phx_ver10,2022.2.5,Win32,60.12867537,,,,,,,,,,,,93,testing_3,j2x,i,j2x_i,j2x_1_iji.wav,j2x_1_iji.wav,,TRUE,FALSE,,,,,,,,,,,,,,f,0.067599999,space,0.4179,,,,,,,,0,99,99,92,1,,
60d1c82e42c14a1bfe66293c,2023-06-16_10h31.00.221,phx_ver10,2022.2.5,Win32,60.12867537,,,,,,,,,,,,75,testing_3,j2x,a,j2x_a,j2x_1_aja.wav,j2x_8_axa.wav,,FALSE,FALSE,,,,,,,,,,,,,,j,0.3162,space,0.5814,,,,,,,,0,100,100,74,1,,
60d1c82e42c14a1bfe66293c,2023-06-16_10h31.00.221,phx_ver10,2022.2.5,Win32,60.12867537,,,,,,,,,,,,11,testing_1,zh2x,i,zh2x_i,zh2x_1_izhi.wav,zh2x_8_ixi.wav,,FALSE,TRUE,,,,,,,,,,,,,,f,0.134299999,space,0.433799999,,,,,,,,0,101,101,10,1,,
60d1c82e42c14a1bfe66293c,2023-06-16_10h31.00.221,phx_ver10,2022.2.5,Win32,60.12867537,,,,,,,,,,,,18,testing_2,zh2x,au,zh2x_au,zh2x_8_auxau.wav,zh2x_8_auxau.wav,,TRUE,FALSE,,,,,,,,,,,,,,f,0.235700001,space,0.5332,,,,,,,,0,102,102,17,1,,
60d1c82e42c14a1bfe66293c,2023-06-16_10h31.00.221,phx_ver10,2022.2.5,Win32,60.12867537,,,,,,,,,,,,70,testing_3,zh2j,i,zh2j_i,zh2j_8_iji.wav,zh2j_8_iji.wav,,TRUE,FALSE,,,,,,,,,,,,,,f,0.900400001,space,1.183700001,,,,,,,,0,103,103,69,1,,
60d1c82e42c14a1bfe66293c,2023-06-16_10h31.00.221,phx_ver10,2022.2.5,Win32,60.12867537,,,,,,,,,,,,83,testing_3,j2x,au,j2x_au,j2x_1_aujau.wav,j2x_8_auxau.wav,,FALSE,FALSE,,,,,,,,,,,,,,j,0.3656,space,1.4486,,,,,,,,0,104,104,82,1,,
60d1c82e42c14a1bfe66293c,2023-06-16_10h31.00.221,phx_ver10,2022.2.5,Win32,60.12867537,,,,,,,,,,,,30,testing_3,zh2sh,ai,zh2sh_ai,zh2sh_8_aishai.wav,zh2sh_8_aishai.wav,,TRUE,FALSE,,,,,,,,,,,,,,f,0.3835,space,0.6347,,,,,,,,0,105,105,29,1,,
60d1c82e42c14a1bfe66293c,2023-06-16_10h31.00.221,phx_ver10,2022.2.5,Win32,60.12867537,,,,,,,,,,,,91,testing_3,j2x,ei,j2x_ei,j2x_1_eijei.wav,j2x_8_eixei.wav,,FALSE,FALSE,,,,,,,,,,,,,,f,0.4442,space,0.7348,,,,,,,,0,106,106,90,1,,
60d1c82e42c14a1bfe66293c,2023-06-16_10h31.00.221,phx_ver10,2022.2.5,Win32,60.12867537,,,,,,,,,,,,37,testing_3,zh2sh,e,zh2sh_e,zh2sh_1_ezhe.wav,zh2sh_1_ezhe.wav,,TRUE,FALSE,,,,,,,,,,,,,,f,0.2945,space,0.6274,,,,,,,,0,107,107,36,1,,
60d1c82e42c14a1bfe66293c,2023-06-16_10h31.00.221,phx_ver10,2022.2.5,Win32,60.12867537,,,,,,,,,,,,40,testing_3,zh2sh,e,zh2sh_e,zh2sh_8_eshe.wav,zh2sh_1_ezhe.wav,,FALSE,FALSE,,,,,,,,,,,,,,f,0.386,space,1.0535,,,,,,,,0,108,108,39,1,,
60d1c82e42c14a1bfe66293c,2023-06-16_10h31.00.221,phx_ver10,2022.2.5,Win32,60.12867537,,,,,,,,,,,,28,testing_3,zh2sh,a,zh2sh_a,zh2sh_8_asha.wav,zh2sh_1_azha.wav,,FALSE,FALSE,,,,,,,,,,,,,,f,0.0015,space,0.501200001,,,,,,,,0,109,109,27,1,,
60d1c82e42c14a1bfe66293c,2023-06-16_10h31.00.221,phx_ver10,2022.2.5,Win32,60.12867537,,,,,,,,,,,,128,testing_3,sh2j,ai,sh2j_ai,sh2j_8_aijai.wav,sh2j_1_aishai.wav,,FALSE,FALSE,,,,,,,,,,,,,,j,0.386200001,space,0.6437,,,,,,,,0,110,110,127,1,,
60d1c82e42c14a1bfe66293c,2023-06-16_10h31.00.221,phx_ver10,2022.2.5,Win32,60.12867537,,,,,,,,,,,,61,testing_3,zh2j,e,zh2j_e,zh2j_1_ezhe.wav,zh2j_1_ezhe.wav,,TRUE,FALSE,,,,,,,,,,,,,,f,0.217099999,space,0.813099999,,,,,,,,0,111,111,60,1,,
60d1c82e42c14a1bfe66293c,2023-06-16_10h31.00.221,phx_ver10,2022.2.5,Win32,60.12867537,,,,,,,,,,,,126,testing_3,sh2j,ai,sh2j_ai,sh2j_8_aijai.wav,sh2j_8_aijai.wav,,TRUE,FALSE,,,,,,,,,,,,,,f,0.035799999,space,0.3604,,,,,,,,0,112,112,125,1,,
60d1c82e42c14a1bfe66293c,2023-06-16_10h31.00.221,phx_ver10,2022.2.5,Win32,60.12867537,,,,,,,,,,,,135,testing_3,sh2j,e,sh2j_e,sh2j_1_eshe.wav,sh2j_8_eje.wav,,FALSE,FALSE,,,,,,,,,,,,,,j,0.2922,space,0.5603,,,,,,,,0,113,113,134,1,,
60d1c82e42c14a1bfe66293c,2023-06-16_10h31.00.221,phx_ver10,2022.2.5,Win32,60.12867537,,,,,,,,,,,,8,testing_1,zh2x,e,zh2x_e,zh2x_8_exe.wav,zh2x_1_ezhe.wav,,FALSE,TRUE,,,,,,,,,,,,,,j,0.051299999,space,0.3175,,,,,,,,0,114,114,7,1,,
60d1c82e42c14a1bfe66293c,2023-06-16_10h31.00.221,phx_ver10,2022.2.5,Win32,60.12867537,,,,,,,,,,,,96,testing_3,j2x,i,j2x_i,j2x_8_ixi.wav,j2x_1_iji.wav,,FALSE,FALSE,,,,,,,,,,,,,,f,0.215299999,space,0.5655,,,,,,,,0,115,115,95,1,,
60d1c82e42c14a1bfe66293c,2023-06-16_10h31.00.221,phx_ver10,2022.2.5,Win32,60.12867537,,,,,,,,,,,,84,testing_3,j2x,au,j2x_au,j2x_8_auxau.wav,j2x_1_aujau.wav,,FALSE,FALSE,,,,,,,,,,,,,,j,0.228700001,space,0.4671,,,,,,,,0,116,116,83,1,,
60d1c82e42c14a1bfe66293c,2023-06-16_10h31.00.221,phx_ver10,2022.2.5,Win32,60.12867537,,,,,,,,,,,,127,testing_3,sh2j,ai,sh2j_ai,sh2j_1_aishai.wav,sh2j_8_aijai.wav,,FALSE,FALSE,,,,,,,,,,,,,,f,0.1549,space,0.5325,,,,,,,,0,117,117,126,1,,
60d1c82e42c14a1bfe66293c,2023-06-16_10h31.00.221,phx_ver10,2022.2.5,Win32,60.12867537,,,,,,,,,,,,5,testing_1,zh2x,e,zh2x_e,zh2x_1_ezhe.wav,zh2x_1_ezhe_copy.wav,,TRUE,TRUE,,,,,,,,,,,,,,f,0.887599999,space,1.218799999,,,,,,,,0,118,118,4,1,,
60d1c82e42c14a1bfe66293c,2023-06-16_10h31.00.221,phx_ver10,2022.2.5,Win32,60.12867537,,,,,,,,,,,,22,testing_2,zh2x,ei,zh2x_ei,zh2x_8_eixei.wav,zh2x_8_eixei.wav,,TRUE,FALSE,,,,,,,,,,,,,,f,0.1012,space,0.4671,,,,,,,,0,119,119,21,1,,
60d1c82e42c14a1bfe66293c,2023-06-16_10h31.00.221,phx_ver10,2022.2.5,Win32,60.12867537,,,,,,,,,,,,72,testing_3,zh2j,i,zh2j_i,zh2j_8_iji.wav,zh2j_1_izhi.wav,,FALSE,FALSE,,,,,,,,,,,,,,f,0.000599999,space,0.3012,,,,,,,,0,120,120,71,1,,
60d1c82e42c14a1bfe66293c,2023-06-16_10h31.00.221,phx_ver10,2022.2.5,Win32,60.12867537,,,,,,,,,,,,125,testing_3,sh2j,ai,sh2j_ai,sh2j_1_aishai.wav,sh2j_1_aishai.wav,,TRUE,FALSE,,,,,,,,,,,,,,f,0.1007,space,0.400599999,,,,,,,,0,121,121,124,1,,
60d1c82e42c14a1bfe66293c,2023-06-16_10h31.00.221,phx_ver10,2022.2.5,Win32,60.12867537,,,,,,,,,,,,63,testing_3,zh2j,e,zh2j_e,zh2j_1_ezhe.wav,zh2j_8_eje.wav,,FALSE,FALSE,,,,,,,,,,,,,,j,0.7257,space,0.9425,,,,,,,,0,122,122,62,1,,
60d1c82e42c14a1bfe66293c,2023-06-16_10h31.00.221,phx_ver10,2022.2.5,Win32,60.12867537,,,,,,,,,,,,95,testing_3,j2x,i,j2x_i,j2x_1_iji.wav,j2x_8_ixi.wav,,FALSE,FALSE,,,,,,,,,,,,,,f,1.050099999,space,1.3342,,,,,,,,0,123,123,94,1,,
60d1c82e42c14a1bfe66293c,2023-06-16_10h31.00.221,phx_ver10,2022.2.5,Win32,60.12867537,,,,,,,,,,,,32,testing_3,zh2sh,ai,zh2sh_ai,zh2sh_8_aishai.wav,zh2sh_1_aizhai.wav,,FALSE,FALSE,,,,,,,,,,,,,,j,0.126099999,space,0.4932,,,,,,,,0,124,124,31,1,,
60d1c82e42c14a1bfe66293c,2023-06-16_10h31.00.221,phx_ver10,2022.2.5,Win32,60.12867537,,,,,,,,,,,,97,testing_3,sh2x,a,sh2x_a,sh2x_1_asha.wav,sh2x_1_asha.wav,,TRUE,FALSE,,,,,,,,,,,,,,f,0.1005,space,0.450099999,,,,,,,,0,125,125,96,1,,
60d1c82e42c14a1bfe66293c,2023-06-16_10h31.00.221,phx_ver10,2022.2.5,Win32,60.12867537,,,,,,,,,,,,1,testing_1,zh2x,a,zh2x_a,zh2x_1_azha.wav,zh2x_1_azha_copy.wav,,TRUE,TRUE,,,,,,,,,,,,,,f,0.3587,space,0.6918,,,,,,,,0,126,126,0,1,,
60d1c82e42c14a1bfe66293c,2023-06-16_10h31.00.221,phx_ver10,2022.2.5,Win32,60.12867537,,,,,,,,,,,,6,testing_1,zh2x,e,zh2x_e,zh2x_8_exe.wav,zh2x_8_exe_copy.wav,,TRUE,TRUE,,,,,,,,,,,,,,f,2.917099999,space,3.2004,,,,,,,,0,127,127,5,1,,
60d1c82e42c14a1bfe66293c,2023-06-16_10h31.00.221,phx_ver10,2022.2.5,Win32,60.12867537,,,,,,,,,,,,10,testing_1,zh2x,i,zh2x_i,zh2x_8_ixi.wav,zh2x_8_ixi_copy.wav,,TRUE,TRUE,,,,,,,,,,,,,,f,0.1837,space,0.6005,,,,,,,,0,128,128,9,1,,
60d1c82e42c14a1bfe66293c,2023-06-16_10h31.00.221,phx_ver10,2022.2.5,Win32,60.12867537,,,,,,,,,,,,23,testing_2,zh2x,ei,zh2x_ei,zh2x_1_eizhei.wav,zh2x_8_eixei.wav,,FALSE,FALSE,,,,,,,,,,,,,,j,0.517,space,0.8338,,,,,,,,0,129,129,22,1,,
60d1c82e42c14a1bfe66293c,2023-06-16_10h31.00.221,phx_ver10,2022.2.5,Win32,60.12867537,,,,,,,,,,,,48,testing_3,zh2sh,i,zh2sh_i,zh2sh_8_ishi.wav,zh2sh_1_izhi.wav,,FALSE,FALSE,,,,,,,,,,,,,,j,0.5505,space,0.800900001,,,,,,,,0,130,130,47,1,,
60d1c82e42c14a1bfe66293c,2023-06-16_10h31.00.221,phx_ver10,2022.2.5,Win32,60.12867537,,,,,,,,,,,,45,testing_3,zh2sh,i,zh2sh_i,zh2sh_1_izhi.wav,zh2sh_1_izhi.wav,,TRUE,FALSE,,,,,,,,,,,,,,j,0.5744,space,0.8172,,,,,,,,0,131,131,44,1,,
60d1c82e42c14a1bfe66293c,2023-06-16_10h31.00.221,phx_ver10,2022.2.5,Win32,60.12867537,,,,,,,,,,,,60,testing_3,zh2j,au,zh2j_au,zh2j_8_aujau.wav,zh2j_1_auzhau.wav,,FALSE,FALSE,,,,,,,,,,,,,,f,0.2347,space,0.4847,,,,,,,,0,132,132,59,1,,
60d1c82e42c14a1bfe66293c,2023-06-16_10h31.00.221,phx_ver10,2022.2.5,Win32,60.12867537,,,,,,,,,,,,140,testing_3,sh2j,ei,sh2j_ei,sh2j_8_eijei.wav,sh2j_1_eishei.wav,,FALSE,FALSE,,,,,,,,,,,,,,j,0.376,space,0.6022,,,,,,,,0,133,133,139,1,,
60d1c82e42c14a1bfe66293c,2023-06-16_10h31.00.221,phx_ver10,2022.2.5,Win32,60.12867537,,,,,,,,,,,,106,testing_3,sh2x,au,sh2x_au,sh2x_8_auxau.wav,sh2x_8_auxau.wav,,TRUE,FALSE,,,,,,,,,,,,,,f,0.4419,space,0.7506,,,,,,,,0,134,134,105,1,,
60d1c82e42c14a1bfe66293c,2023-06-16_10h31.00.221,phx_ver10,2022.2.5,Win32,60.12867537,,,,,,,,,,,,67,testing_3,zh2j,ei,zh2j_ei,zh2j_1_eizhei.wav,zh2j_8_eijei.wav,,FALSE,FALSE,,,,,,,,,,,,,,f,0.1129,space,0.650299999,,,,,,,,0,135,135,66,1,,
60d1c82e42c14a1bfe66293c,2023-06-16_10h31.00.221,phx_ver10,2022.2.5,Win32,60.12867537,,,,,,,,,,,,90,testing_3,j2x,ei,j2x_ei,j2x_8_eixei.wav,j2x_8_eixei.wav,,TRUE,FALSE,,,,,,,,,,,,,,f,0.3674,space,1.0004,,,,,,,,0,136,136,89,1,,
60d1c82e42c14a1bfe66293c,2023-06-16_10h31.00.221,phx_ver10,2022.2.5,Win32,60.12867537,,,,,,,,,,,,39,testing_3,zh2sh,e,zh2sh_e,zh2sh_1_ezhe.wav,zh2sh_8_eshe.wav,,FALSE,FALSE,,,,,,,,,,,,,,j,0.2772,space,0.6193,,,,,,,,0,137,137,38,1,,
60d1c82e42c14a1bfe66293c,2023-06-16_10h31.00.221,phx_ver10,2022.2.5,Win32,60.12867537,,,,,,,,,,,,139,testing_3,sh2j,ei,sh2j_ei,sh2j_1_eishei.wav,sh2j_8_eijei.wav,,FALSE,FALSE,,,,,,,,,,,,,,j,0.1559,space,0.4884,,,,,,,,0,138,138,138,1,,
60d1c82e42c14a1bfe66293c,2023-06-16_10h31.00.221,phx_ver10,2022.2.5,Win32,60.12867537,,,,,,,,,,,,124,testing_3,sh2j,a,sh2j_a,sh2j_8_aja.wav,sh2j_1_asha.wav,,FALSE,FALSE,,,,,,,,,,,,,,f,0.0586,space,0.5672,,,,,,,,0,139,139,123,1,,
60d1c82e42c14a1bfe66293c,2023-06-16_10h31.00.221,phx_ver10,2022.2.5,Win32,60.12867537,,,,,,,,,,,,41,testing_3,zh2sh,ei,zh2sh_ei,zh2sh_1_eizhei.wav,zh2sh_1_eizhei.wav,,TRUE,FALSE,,,,,,,,,,,,,,f,0.234200001,space,0.700900001,,,,,,,,0,140,140,40,1,,
60d1c82e42c14a1bfe66293c,2023-06-16_10h31.00.221,phx_ver10,2022.2.5,Win32,60.12867537,,,,,,,,,,,,17,testing_2,zh2x,au,zh2x_au,zh2x_1_auzhau.wav,zh2x_1_auzhau.wav,,TRUE,FALSE,,,,,,,,,,,,,,f,0.9018,space,1.184799999,,,,,,,,0,141,141,16,1,,
60d1c82e42c14a1bfe66293c,2023-06-16_10h31.00.221,phx_ver10,2022.2.5,Win32,60.12867537,,,,,,,,,,,,16,testing_2,zh2x,ai,zh2x_ai,zh2x_8_aixai.wav,zh2x_1_aizhai.wav,,FALSE,FALSE,,,,,,,,,,,,,,j,0.2635,space,1.0365,,,,,,,,0,142,142,15,1,,
60d1c82e42c14a1bfe66293c,2023-06-16_10h31.00.221,phx_ver10,2022.2.5,Win32,60.12867537,,,,,,,,,,,,81,testing_3,j2x,au,j2x_au,j2x_1_aujau.wav,j2x_1_aujau.wav,,TRUE,FALSE,,,,,,,,,,,,,,f,0.3265,space,0.7427,,,,,,,,0,143,143,80,1,,
60d1c82e42c14a1bfe66293c,2023-06-16_10h31.00.221,phx_ver10,2022.2.5,Win32,60.12867537,,,,,,,,,,,,,,,,,,,,,,,,,,,,,,,,,,,,,,,,,,,,,,,,,,,space,4.7977
