participant,date,expName,psychopyVersion,OS,frameRate,space_1.keys,space_1.rt,space_2.keys,space_2.rt,space_train.keys,space_train.rt,training.thisRepN,training.thisTrialN,training.thisN,training.thisIndex,training.ran,token_id,task,continuum,vowel,series,sound_1,sound_2,img,same,trained,FJ_attn.keys,FJ_attn.rt,space_attn.keys,space_attn.rt,if_attn_test.thisRepN,if_attn_test.thisTrialN,if_attn_test.thisN,if_attn_test.thisIndex,if_attn_test.ran,space_trans_1.keys,space_trans_1.rt,space_trans_11.keys,space_trans_11.rt,FJ_test.keys,FJ_test.rt,space_test.keys,space_test.rt,testing_pre.thisRepN,testing_pre.thisTrialN,testing_pre.thisN,testing_pre.thisIndex,testing_pre.ran,space_trans_2.keys,space_trans_2.rt,testing_all.thisRepN,testing_all.thisTrialN,testing_all.thisN,testing_all.thisIndex,testing_all.ran,space_ending.keys,space_ending.rt
60d9f1f5e766b5f3eb00a7c4,2023-06-16_10h26.47.745,phx_ver10,2022.2.5,MacIntel,52.63157895,,,,,,,,,,,,,,,,,,,,,,,,,,,,,,,,,,,,,,,,,,,,,,,,,,,,
60d9f1f5e766b5f3eb00a7c4,2023-06-16_10h26.47.745,phx_ver10,2022.2.5,MacIntel,52.63157895,space,7.351,,,,,,,,,,,,,,,,,,,,,,,,,,,,,,,,,,,,,,,,,,,,,,,,,,
60d9f1f5e766b5f3eb00a7c4,2023-06-16_10h26.47.745,phx_ver10,2022.2.5,MacIntel,52.63157895,,,space,1.847,,,,,,,,,,,,,,,,,,,,,,,,,,,,,,,,,,,,,,,,,,,,,,,,
60d9f1f5e766b5f3eb00a7c4,2023-06-16_10h26.47.745,phx_ver10,2022.2.5,MacIntel,52.63157895,,,,,space,1.797,0,0,0,45,1,46,training,zh2x,i,zh2x_i,zh2x_7_ixi.wav,,ixi.jpg,,,,,,,,,,,,,,,,,,,,,,,,,,,,,,,,,
60d9f1f5e766b5f3eb00a7c4,2023-06-16_10h26.47.745,phx_ver10,2022.2.5,MacIntel,52.63157895,,,,,space,1.419,0,1,1,4,1,5,training,zh2x,a,zh2x_a,zh2x_2_azha.wav,,azha.jpg,,,,,,,,,,,,,,,,,,,,,,,,,,,,,,,,,
60d9f1f5e766b5f3eb00a7c4,2023-06-16_10h26.47.745,phx_ver10,2022.2.5,MacIntel,52.63157895,,,,,space,0.408,0,2,2,43,1,44,training,zh2x,i,zh2x_i,zh2x_7_ixi.wav,,ixi.jpg,,,,,,,,,,,,,,,,,,,,,,,,,,,,,,,,,
60d9f1f5e766b5f3eb00a7c4,2023-06-16_10h26.47.745,phx_ver10,2022.2.5,MacIntel,52.63157895,,,,,space,0.573,0,3,3,39,1,40,training,zh2x,i,zh2x_i,zh2x_4_izhi.wav,,izhi.jpg,,,,,,,,,,,,,,,,,,,,,,,,,,,,,,,,,
60d9f1f5e766b5f3eb00a7c4,2023-06-16_10h26.47.745,phx_ver10,2022.2.5,MacIntel,52.63157895,,,,,space,0.513,0,4,4,44,1,45,training,zh2x,i,zh2x_i,zh2x_7_ixi.wav,,ixi.jpg,,,,,,,,,,,,,,,,,,,,,,,,,,,,,,,,,
60d9f1f5e766b5f3eb00a7c4,2023-06-16_10h26.47.745,phx_ver10,2022.2.5,MacIntel,52.63157895,,,,,space,0.453,0,5,5,16,1,17,training,zh2x,e,zh2x_e,zh2x_1_ezhe.wav,,ezhe.jpg,,,,,,,,,,,,,,,,,,,,,,,,,,,,,,,,,
60d9f1f5e766b5f3eb00a7c4,2023-06-16_10h26.47.745,phx_ver10,2022.2.5,MacIntel,52.63157895,,,,,,,,,,,,,attn_test,,,,zh2x_1_ezhe.wav,zh2x_8_exe.wav,ezhe.jpg,LEFT,,f,0.539,space,2.178,0,0,0,0,1,,,,,,,,,,,,,,,,,,,,,,
60d9f1f5e766b5f3eb00a7c4,2023-06-16_10h26.47.745,phx_ver10,2022.2.5,MacIntel,52.63157895,,,,,space,0.739,0,6,6,33,1,34,training,zh2x,i,zh2x_i,zh2x_2_izhi.wav,,izhi.jpg,,,,,,,,,,,,,,,,,,,,,,,,,,,,,,,,,
60d9f1f5e766b5f3eb00a7c4,2023-06-16_10h26.47.745,phx_ver10,2022.2.5,MacIntel,52.63157895,,,,,space,0.426,0,7,7,27,1,28,training,zh2x,e,zh2x_e,zh2x_7_exe.wav,,exe.jpg,,,,,,,,,,,,,,,,,,,,,,,,,,,,,,,,,
60d9f1f5e766b5f3eb00a7c4,2023-06-16_10h26.47.745,phx_ver10,2022.2.5,MacIntel,52.63157895,,,,,space,0.446,0,8,8,9,1,10,training,zh2x,a,zh2x_a,zh2x_6_axa.wav,,axa.jpg,,,,,,,,,,,,,,,,,,,,,,,,,,,,,,,,,
60d9f1f5e766b5f3eb00a7c4,2023-06-16_10h26.47.745,phx_ver10,2022.2.5,MacIntel,52.63157895,,,,,space,0.267,0,9,9,46,1,47,training,zh2x,i,zh2x_i,zh2x_7_ixi.wav,,ixi.jpg,,,,,,,,,,,,,,,,,,,,,,,,,,,,,,,,,
60d9f1f5e766b5f3eb00a7c4,2023-06-16_10h26.47.745,phx_ver10,2022.2.5,MacIntel,52.63157895,,,,,space,0.33,0,10,10,28,1,29,training,zh2x,e,zh2x_e,zh2x_7_exe.wav,,exe.jpg,,,,,,,,,,,,,,,,,,,,,,,,,,,,,,,,,
60d9f1f5e766b5f3eb00a7c4,2023-06-16_10h26.47.745,phx_ver10,2022.2.5,MacIntel,52.63157895,,,,,space,0.051,0,11,11,24,1,25,training,zh2x,e,zh2x_e,zh2x_5_exe.wav,,exe.jpg,,,,,,,,,,,,,,,,,,,,,,,,,,,,,,,,,
60d9f1f5e766b5f3eb00a7c4,2023-06-16_10h26.47.745,phx_ver10,2022.2.5,MacIntel,52.63157895,,,,,,,,,,,,,attn_test,,,,zh2x_8_ixi.wav,zh2x_1_ezhe.wav,ixi.jpg,LEFT,,f,0.382,space,0.783,0,0,0,0,1,,,,,,,,,,,,,,,,,,,,,,
60d9f1f5e766b5f3eb00a7c4,2023-06-16_10h26.47.745,phx_ver10,2022.2.5,MacIntel,52.63157895,,,,,space,0.849,0,12,12,18,1,19,training,zh2x,e,zh2x_e,zh2x_2_ezhe.wav,,ezhe.jpg,,,,,,,,,,,,,,,,,,,,,,,,,,,,,,,,,
60d9f1f5e766b5f3eb00a7c4,2023-06-16_10h26.47.745,phx_ver10,2022.2.5,MacIntel,52.63157895,,,,,space,0.325,0,13,13,36,1,37,training,zh2x,i,zh2x_i,zh2x_2_izhi.wav,,izhi.jpg,,,,,,,,,,,,,,,,,,,,,,,,,,,,,,,,,
60d9f1f5e766b5f3eb00a7c4,2023-06-16_10h26.47.745,phx_ver10,2022.2.5,MacIntel,52.63157895,,,,,space,0.367,0,14,14,6,1,7,training,zh2x,a,zh2x_a,zh2x_3_azha.wav,,azha.jpg,,,,,,,,,,,,,,,,,,,,,,,,,,,,,,,,,
60d9f1f5e766b5f3eb00a7c4,2023-06-16_10h26.47.745,phx_ver10,2022.2.5,MacIntel,52.63157895,,,,,space,0.299,0,15,15,25,1,26,training,zh2x,e,zh2x_e,zh2x_6_exe.wav,,exe.jpg,,,,,,,,,,,,,,,,,,,,,,,,,,,,,,,,,
60d9f1f5e766b5f3eb00a7c4,2023-06-16_10h26.47.745,phx_ver10,2022.2.5,MacIntel,52.63157895,,,,,space,0.315,0,16,16,2,1,3,training,zh2x,a,zh2x_a,zh2x_2_azha.wav,,azha.jpg,,,,,,,,,,,,,,,,,,,,,,,,,,,,,,,,,
60d9f1f5e766b5f3eb00a7c4,2023-06-16_10h26.47.745,phx_ver10,2022.2.5,MacIntel,52.63157895,,,,,space,0.355,0,17,17,37,1,38,training,zh2x,i,zh2x_i,zh2x_3_izhi.wav,,izhi.jpg,,,,,,,,,,,,,,,,,,,,,,,,,,,,,,,,,
60d9f1f5e766b5f3eb00a7c4,2023-06-16_10h26.47.745,phx_ver10,2022.2.5,MacIntel,52.63157895,,,,,,,,,,,,,attn_test,,,,zh2x_1_izhi.wav,zh2x_1_ezhe.wav,izhi.jpg,LEFT,,f,0.701,space,1.123,0,0,0,0,1,,,,,,,,,,,,,,,,,,,,,,
60d9f1f5e766b5f3eb00a7c4,2023-06-16_10h26.47.745,phx_ver10,2022.2.5,MacIntel,52.63157895,,,,,space,0.349,0,18,18,22,1,23,training,zh2x,e,zh2x_e,zh2x_3_ezhe.wav,,ezhe.jpg,,,,,,,,,,,,,,,,,,,,,,,,,,,,,,,,,
60d9f1f5e766b5f3eb00a7c4,2023-06-16_10h26.47.745,phx_ver10,2022.2.5,MacIntel,52.63157895,,,,,space,0.496,0,19,19,29,1,30,training,zh2x,e,zh2x_e,zh2x_7_exe.wav,,exe.jpg,,,,,,,,,,,,,,,,,,,,,,,,,,,,,,,,,
60d9f1f5e766b5f3eb00a7c4,2023-06-16_10h26.47.745,phx_ver10,2022.2.5,MacIntel,52.63157895,,,,,space,0.553,0,20,20,42,1,43,training,zh2x,i,zh2x_i,zh2x_6_ixi.wav,,ixi.jpg,,,,,,,,,,,,,,,,,,,,,,,,,,,,,,,,,
60d9f1f5e766b5f3eb00a7c4,2023-06-16_10h26.47.745,phx_ver10,2022.2.5,MacIntel,52.63157895,,,,,space,0.316,0,21,21,7,1,8,training,zh2x,a,zh2x_a,zh2x_4_azha.wav,,azha.jpg,,,,,,,,,,,,,,,,,,,,,,,,,,,,,,,,,
60d9f1f5e766b5f3eb00a7c4,2023-06-16_10h26.47.745,phx_ver10,2022.2.5,MacIntel,52.63157895,,,,,space,0.34,0,22,22,8,1,9,training,zh2x,a,zh2x_a,zh2x_5_axa.wav,,axa.jpg,,,,,,,,,,,,,,,,,,,,,,,,,,,,,,,,,
60d9f1f5e766b5f3eb00a7c4,2023-06-16_10h26.47.745,phx_ver10,2022.2.5,MacIntel,52.63157895,,,,,space,0.026,0,23,23,1,1,2,training,zh2x,a,zh2x_a,zh2x_2_azha.wav,,azha.jpg,,,,,,,,,,,,,,,,,,,,,,,,,,,,,,,,,
60d9f1f5e766b5f3eb00a7c4,2023-06-16_10h26.47.745,phx_ver10,2022.2.5,MacIntel,52.63157895,,,,,,,,,,,,,attn_test,,,,zh2x_1_ezhe.wav,zh2x_8_exe.wav,ezhe.jpg,LEFT,,f,0.414,space,0.77,0,0,0,0,1,,,,,,,,,,,,,,,,,,,,,,
60d9f1f5e766b5f3eb00a7c4,2023-06-16_10h26.47.745,phx_ver10,2022.2.5,MacIntel,52.63157895,,,,,space,0.284,0,24,24,26,1,27,training,zh2x,e,zh2x_e,zh2x_6_exe.wav,,exe.jpg,,,,,,,,,,,,,,,,,,,,,,,,,,,,,,,,,
60d9f1f5e766b5f3eb00a7c4,2023-06-16_10h26.47.745,phx_ver10,2022.2.5,MacIntel,52.63157895,,,,,space,0.072,0,25,25,23,1,24,training,zh2x,e,zh2x_e,zh2x_4_ezhe.wav,,ezhe.jpg,,,,,,,,,,,,,,,,,,,,,,,,,,,,,,,,,
60d9f1f5e766b5f3eb00a7c4,2023-06-16_10h26.47.745,phx_ver10,2022.2.5,MacIntel,52.63157895,,,,,space,0.09,0,26,26,10,1,11,training,zh2x,a,zh2x_a,zh2x_6_axa.wav,,axa.jpg,,,,,,,,,,,,,,,,,,,,,,,,,,,,,,,,,
60d9f1f5e766b5f3eb00a7c4,2023-06-16_10h26.47.745,phx_ver10,2022.2.5,MacIntel,52.63157895,,,,,space,0.365,0,27,27,5,1,6,training,zh2x,a,zh2x_a,zh2x_3_azha.wav,,azha.jpg,,,,,,,,,,,,,,,,,,,,,,,,,,,,,,,,,
60d9f1f5e766b5f3eb00a7c4,2023-06-16_10h26.47.745,phx_ver10,2022.2.5,MacIntel,52.63157895,,,,,space,0.151,0,28,28,13,1,14,training,zh2x,a,zh2x_a,zh2x_7_axa.wav,,axa.jpg,,,,,,,,,,,,,,,,,,,,,,,,,,,,,,,,,
60d9f1f5e766b5f3eb00a7c4,2023-06-16_10h26.47.745,phx_ver10,2022.2.5,MacIntel,52.63157895,,,,,space,0.27,0,29,29,34,1,35,training,zh2x,i,zh2x_i,zh2x_2_izhi.wav,,izhi.jpg,,,,,,,,,,,,,,,,,,,,,,,,,,,,,,,,,
60d9f1f5e766b5f3eb00a7c4,2023-06-16_10h26.47.745,phx_ver10,2022.2.5,MacIntel,52.63157895,,,,,,,,,,,,,attn_test,,,,zh2x_1_izhi.wav,zh2x_1_azha.wav,izhi.jpg,LEFT,,f,0.095,space,0.579,0,0,0,0,1,,,,,,,,,,,,,,,,,,,,,,
60d9f1f5e766b5f3eb00a7c4,2023-06-16_10h26.47.745,phx_ver10,2022.2.5,MacIntel,52.63157895,,,,,space,0.319,0,30,30,30,1,31,training,zh2x,e,zh2x_e,zh2x_7_exe.wav,,exe.jpg,,,,,,,,,,,,,,,,,,,,,,,,,,,,,,,,,
60d9f1f5e766b5f3eb00a7c4,2023-06-16_10h26.47.745,phx_ver10,2022.2.5,MacIntel,52.63157895,,,,,space,0.265,0,31,31,20,1,21,training,zh2x,e,zh2x_e,zh2x_2_ezhe.wav,,ezhe.jpg,,,,,,,,,,,,,,,,,,,,,,,,,,,,,,,,,
60d9f1f5e766b5f3eb00a7c4,2023-06-16_10h26.47.745,phx_ver10,2022.2.5,MacIntel,52.63157895,,,,,space,0.235,0,32,32,14,1,15,training,zh2x,a,zh2x_a,zh2x_7_axa.wav,,axa.jpg,,,,,,,,,,,,,,,,,,,,,,,,,,,,,,,,,
60d9f1f5e766b5f3eb00a7c4,2023-06-16_10h26.47.745,phx_ver10,2022.2.5,MacIntel,52.63157895,,,,,space,0.068,0,33,33,19,1,20,training,zh2x,e,zh2x_e,zh2x_2_ezhe.wav,,ezhe.jpg,,,,,,,,,,,,,,,,,,,,,,,,,,,,,,,,,
60d9f1f5e766b5f3eb00a7c4,2023-06-16_10h26.47.745,phx_ver10,2022.2.5,MacIntel,52.63157895,,,,,space,0.122,0,34,34,12,1,13,training,zh2x,a,zh2x_a,zh2x_7_axa.wav,,axa.jpg,,,,,,,,,,,,,,,,,,,,,,,,,,,,,,,,,
60d9f1f5e766b5f3eb00a7c4,2023-06-16_10h26.47.745,phx_ver10,2022.2.5,MacIntel,52.63157895,,,,,space,0.161,0,35,35,38,1,39,training,zh2x,i,zh2x_i,zh2x_3_izhi.wav,,izhi.jpg,,,,,,,,,,,,,,,,,,,,,,,,,,,,,,,,,
60d9f1f5e766b5f3eb00a7c4,2023-06-16_10h26.47.745,phx_ver10,2022.2.5,MacIntel,52.63157895,,,,,,,,,,,,,attn_test,,,,zh2x_1_izhi.wav,zh2x_8_ixi.wav,izhi.jpg,LEFT,,f,0.231,space,0.643,0,0,0,0,1,,,,,,,,,,,,,,,,,,,,,,
60d9f1f5e766b5f3eb00a7c4,2023-06-16_10h26.47.745,phx_ver10,2022.2.5,MacIntel,52.63157895,,,,,space,0.356,0,36,36,32,1,33,training,zh2x,i,zh2x_i,zh2x_1_izhi.wav,,izhi.jpg,,,,,,,,,,,,,,,,,,,,,,,,,,,,,,,,,
60d9f1f5e766b5f3eb00a7c4,2023-06-16_10h26.47.745,phx_ver10,2022.2.5,MacIntel,52.63157895,,,,,space,0.473,0,37,37,47,1,48,training,zh2x,i,zh2x_i,zh2x_8_ixi.wav,,ixi.jpg,,,,,,,,,,,,,,,,,,,,,,,,,,,,,,,,,
60d9f1f5e766b5f3eb00a7c4,2023-06-16_10h26.47.745,phx_ver10,2022.2.5,MacIntel,52.63157895,,,,,space,0.495,0,38,38,31,1,32,training,zh2x,e,zh2x_e,zh2x_8_exe.wav,,exe.jpg,,,,,,,,,,,,,,,,,,,,,,,,,,,,,,,,,
60d9f1f5e766b5f3eb00a7c4,2023-06-16_10h26.47.745,phx_ver10,2022.2.5,MacIntel,52.63157895,,,,,space,0.265,0,39,39,0,1,1,training,zh2x,a,zh2x_a,zh2x_1_azha.wav,,azha.jpg,,,,,,,,,,,,,,,,,,,,,,,,,,,,,,,,,
60d9f1f5e766b5f3eb00a7c4,2023-06-16_10h26.47.745,phx_ver10,2022.2.5,MacIntel,52.63157895,,,,,space,0.993,0,40,40,21,1,22,training,zh2x,e,zh2x_e,zh2x_3_ezhe.wav,,ezhe.jpg,,,,,,,,,,,,,,,,,,,,,,,,,,,,,,,,,
60d9f1f5e766b5f3eb00a7c4,2023-06-16_10h26.47.745,phx_ver10,2022.2.5,MacIntel,52.63157895,,,,,space,0.356,0,41,41,11,1,12,training,zh2x,a,zh2x_a,zh2x_7_axa.wav,,axa.jpg,,,,,,,,,,,,,,,,,,,,,,,,,,,,,,,,,
60d9f1f5e766b5f3eb00a7c4,2023-06-16_10h26.47.745,phx_ver10,2022.2.5,MacIntel,52.63157895,,,,,,,,,,,,,attn_test,,,,zh2x_1_azha.wav,zh2x_8_axa.wav,axa.jpg,RIGHT,,f,0.425,space,0.804,0,0,0,0,1,,,,,,,,,,,,,,,,,,,,,,
60d9f1f5e766b5f3eb00a7c4,2023-06-16_10h26.47.745,phx_ver10,2022.2.5,MacIntel,52.63157895,,,,,space,0.432,0,42,42,40,1,41,training,zh2x,i,zh2x_i,zh2x_5_ixi.wav,,ixi.jpg,,,,,,,,,,,,,,,,,,,,,,,,,,,,,,,,,
60d9f1f5e766b5f3eb00a7c4,2023-06-16_10h26.47.745,phx_ver10,2022.2.5,MacIntel,52.63157895,,,,,space,0.185,0,43,43,35,1,36,training,zh2x,i,zh2x_i,zh2x_2_izhi.wav,,izhi.jpg,,,,,,,,,,,,,,,,,,,,,,,,,,,,,,,,,
60d9f1f5e766b5f3eb00a7c4,2023-06-16_10h26.47.745,phx_ver10,2022.2.5,MacIntel,52.63157895,,,,,space,0.574,0,44,44,3,1,4,training,zh2x,a,zh2x_a,zh2x_2_azha.wav,,azha.jpg,,,,,,,,,,,,,,,,,,,,,,,,,,,,,,,,,
60d9f1f5e766b5f3eb00a7c4,2023-06-16_10h26.47.745,phx_ver10,2022.2.5,MacIntel,52.63157895,,,,,space,0.7,0,45,45,41,1,42,training,zh2x,i,zh2x_i,zh2x_6_ixi.wav,,ixi.jpg,,,,,,,,,,,,,,,,,,,,,,,,,,,,,,,,,
60d9f1f5e766b5f3eb00a7c4,2023-06-16_10h26.47.745,phx_ver10,2022.2.5,MacIntel,52.63157895,,,,,space,0.619,0,46,46,15,1,16,training,zh2x,a,zh2x_a,zh2x_8_axa.wav,,axa.jpg,,,,,,,,,,,,,,,,,,,,,,,,,,,,,,,,,
60d9f1f5e766b5f3eb00a7c4,2023-06-16_10h26.47.745,phx_ver10,2022.2.5,MacIntel,52.63157895,,,,,space,0.58,0,47,47,17,1,18,training,zh2x,e,zh2x_e,zh2x_2_ezhe.wav,,ezhe.jpg,,,,,,,,,,,,,,,,,,,,,,,,,,,,,,,,,
60d9f1f5e766b5f3eb00a7c4,2023-06-16_10h26.47.745,phx_ver10,2022.2.5,MacIntel,52.63157895,,,,,,,,,,,,,attn_test,,,,zh2x_8_axa.wav,zh2x_1_ezhe.wav,ezhe.jpg,RIGHT,,f,0.679,space,1.249,,,,,,,,,,,,,,,,,,,,,,,,,,,
60d9f1f5e766b5f3eb00a7c4,2023-06-16_10h26.47.745,phx_ver10,2022.2.5,MacIntel,52.63157895,,,,,,,,,,,,,,,,,,,,,,,,,,,,,,,space,0.796,,,,,,,,,,,,,,,,,,,,
60d9f1f5e766b5f3eb00a7c4,2023-06-16_10h26.47.745,phx_ver10,2022.2.5,MacIntel,52.63157895,,,,,,,,,,,,,,,,,,,,,,,,,,,,,,,,,space,4.12,,,,,,,,,,,,,,,,,,
60d9f1f5e766b5f3eb00a7c4,2023-06-16_10h26.47.745,phx_ver10,2022.2.5,MacIntel,52.63157895,,,,,,,,,,,,3,testing_pre,,,,afa.wav,aha.wav,,FALSE,,,,,,,,,,,,,,,j,3.819,space,4.269,0,0,0,2,1,,,,,,,,,
60d9f1f5e766b5f3eb00a7c4,2023-06-16_10h26.47.745,phx_ver10,2022.2.5,MacIntel,52.63157895,,,,,,,,,,,,1,testing_pre,,,,ifi.wav,ifi.wav,,TRUE,,,,,,,,,,,,,,,f,0.527,space,0.927,0,1,1,0,1,,,,,,,,,
60d9f1f5e766b5f3eb00a7c4,2023-06-16_10h26.47.745,phx_ver10,2022.2.5,MacIntel,52.63157895,,,,,,,,,,,,4,testing_pre,,,,eihei.wav,eihei.wav,,TRUE,,,,,,,,,,,,,,,f,0.745,space,1.199,0,2,2,3,1,,,,,,,,,
60d9f1f5e766b5f3eb00a7c4,2023-06-16_10h26.47.745,phx_ver10,2022.2.5,MacIntel,52.63157895,,,,,,,,,,,,2,testing_pre,,,,auhau.wav,aufau.wav,,FALSE,,,,,,,,,,,,,,,j,0.088,space,0.478,0,3,3,1,1,,,,,,,,,
60d9f1f5e766b5f3eb00a7c4,2023-06-16_10h26.47.745,phx_ver10,2022.2.5,MacIntel,52.63157895,,,,,,,,,,,,5,testing_pre,,,,ihi.wav,ifi.wav,,FALSE,,,,,,,,,,,,,,,j,0.175,space,0.564,0,4,4,4,1,,,,,,,,,
60d9f1f5e766b5f3eb00a7c4,2023-06-16_10h26.47.745,phx_ver10,2022.2.5,MacIntel,52.63157895,,,,,,,,,,,,,,,,,,,,,,,,,,,,,,,,,,,,,,,,,,,,space,0.46,,,,,,,
60d9f1f5e766b5f3eb00a7c4,2023-06-16_10h26.47.745,phx_ver10,2022.2.5,MacIntel,52.63157895,,,,,,,,,,,,48,testing_3,zh2sh,i,zh2sh_i,zh2sh_8_ishi.wav,zh2sh_1_izhi.wav,,FALSE,FALSE,,,,,,,,,,,,,,j,0.409,space,0.832,,,,,,,,0,0,0,47,1,,
60d9f1f5e766b5f3eb00a7c4,2023-06-16_10h26.47.745,phx_ver10,2022.2.5,MacIntel,52.63157895,,,,,,,,,,,,57,testing_3,zh2j,au,zh2j_au,zh2j_1_auzhau.wav,zh2j_1_auzhau.wav,,TRUE,FALSE,,,,,,,,,,,,,,f,0.061,space,0.478,,,,,,,,0,1,1,56,1,,
60d9f1f5e766b5f3eb00a7c4,2023-06-16_10h26.47.745,phx_ver10,2022.2.5,MacIntel,52.63157895,,,,,,,,,,,,101,testing_3,sh2x,ai,sh2x_ai,sh2x_1_aishai.wav,sh2x_1_aishai.wav,,TRUE,FALSE,,,,,,,,,,,,,,f,0.032,space,0.313,,,,,,,,0,2,2,100,1,,
60d9f1f5e766b5f3eb00a7c4,2023-06-16_10h26.47.745,phx_ver10,2022.2.5,MacIntel,52.63157895,,,,,,,,,,,,33,testing_3,zh2sh,au,zh2sh_au,zh2sh_1_auzhau.wav,zh2sh_1_auzhau.wav,,TRUE,FALSE,,,,,,,,,,,,,,f,0.918,space,1.347,,,,,,,,0,3,3,32,1,,
60d9f1f5e766b5f3eb00a7c4,2023-06-16_10h26.47.745,phx_ver10,2022.2.5,MacIntel,52.63157895,,,,,,,,,,,,8,testing_1,zh2x,e,zh2x_e,zh2x_8_exe.wav,zh2x_1_ezhe.wav,,FALSE,TRUE,,,,,,,,,,,,,,j,0.032,space,0.569,,,,,,,,0,4,4,7,1,,
60d9f1f5e766b5f3eb00a7c4,2023-06-16_10h26.47.745,phx_ver10,2022.2.5,MacIntel,52.63157895,,,,,,,,,,,,126,testing_3,sh2j,ai,sh2j_ai,sh2j_8_aijai.wav,sh2j_8_aijai.wav,,TRUE,FALSE,,,,,,,,,,,,,,f,0.001,space,0.372,,,,,,,,0,5,5,125,1,,
60d9f1f5e766b5f3eb00a7c4,2023-06-16_10h26.47.745,phx_ver10,2022.2.5,MacIntel,52.63157895,,,,,,,,,,,,20,testing_2,zh2x,au,zh2x_au,zh2x_8_auxau.wav,zh2x_1_auzhau.wav,,FALSE,FALSE,,,,,,,,,,,,,,j,1.001,space,1.377,,,,,,,,0,6,6,19,1,,
60d9f1f5e766b5f3eb00a7c4,2023-06-16_10h26.47.745,phx_ver10,2022.2.5,MacIntel,52.63157895,,,,,,,,,,,,130,testing_3,sh2j,au,sh2j_au,sh2j_8_aujau.wav,sh2j_8_aujau.wav,,TRUE,FALSE,,,,,,,,,,,,,,f,0.501,space,0.896,,,,,,,,0,7,7,129,1,,
60d9f1f5e766b5f3eb00a7c4,2023-06-16_10h26.47.745,phx_ver10,2022.2.5,MacIntel,52.63157895,,,,,,,,,,,,6,testing_1,zh2x,e,zh2x_e,zh2x_8_exe.wav,zh2x_8_exe_copy.wav,,TRUE,TRUE,,,,,,,,,,,,,,f,0.973,space,1.315,,,,,,,,0,8,8,5,1,,
60d9f1f5e766b5f3eb00a7c4,2023-06-16_10h26.47.745,phx_ver10,2022.2.5,MacIntel,52.63157895,,,,,,,,,,,,92,testing_3,j2x,ei,j2x_ei,j2x_8_eixei.wav,j2x_1_eijei.wav,,FALSE,FALSE,,,,,,,,,,,,,,j,0.257,space,0.575,,,,,,,,0,9,9,91,1,,
60d9f1f5e766b5f3eb00a7c4,2023-06-16_10h26.47.745,phx_ver10,2022.2.5,MacIntel,52.63157895,,,,,,,,,,,,71,testing_3,zh2j,i,zh2j_i,zh2j_1_izhi.wav,zh2j_8_iji.wav,,FALSE,FALSE,,,,,,,,,,,,,,f,0.455,space,0.938,,,,,,,,0,10,10,70,1,,
60d9f1f5e766b5f3eb00a7c4,2023-06-16_10h26.47.745,phx_ver10,2022.2.5,MacIntel,52.63157895,,,,,,,,,,,,41,testing_3,zh2sh,ei,zh2sh_ei,zh2sh_1_eizhei.wav,zh2sh_1_eizhei.wav,,TRUE,FALSE,,,,,,,,,,,,,,f,0.09,space,0.543,,,,,,,,0,11,11,40,1,,
60d9f1f5e766b5f3eb00a7c4,2023-06-16_10h26.47.745,phx_ver10,2022.2.5,MacIntel,52.63157895,,,,,,,,,,,,51,testing_3,zh2j,a,zh2j_a,zh2j_1_azha.wav,zh2j_8_aja.wav,,FALSE,FALSE,,,,,,,,,,,,,,f,0.06,space,0.538,,,,,,,,0,12,12,50,1,,
60d9f1f5e766b5f3eb00a7c4,2023-06-16_10h26.47.745,phx_ver10,2022.2.5,MacIntel,52.63157895,,,,,,,,,,,,140,testing_3,sh2j,ei,sh2j_ei,sh2j_8_eijei.wav,sh2j_1_eishei.wav,,FALSE,FALSE,,,,,,,,,,,,,,j,1.998,space,2.594,,,,,,,,0,13,13,139,1,,
60d9f1f5e766b5f3eb00a7c4,2023-06-16_10h26.47.745,phx_ver10,2022.2.5,MacIntel,52.63157895,,,,,,,,,,,,3,testing_1,zh2x,a,zh2x_a,zh2x_1_azha.wav,zh2x_8_axa.wav,,FALSE,TRUE,,,,,,,,,,,,,,j,0.092,space,0.554,,,,,,,,0,14,14,2,1,,
60d9f1f5e766b5f3eb00a7c4,2023-06-16_10h26.47.745,phx_ver10,2022.2.5,MacIntel,52.63157895,,,,,,,,,,,,94,testing_3,j2x,i,j2x_i,j2x_8_ixi.wav,j2x_8_ixi.wav,,TRUE,FALSE,,,,,,,,,,,,,,f,0.081,space,0.463,,,,,,,,0,15,15,93,1,,
60d9f1f5e766b5f3eb00a7c4,2023-06-16_10h26.47.745,phx_ver10,2022.2.5,MacIntel,52.63157895,,,,,,,,,,,,67,testing_3,zh2j,ei,zh2j_ei,zh2j_1_eizhei.wav,zh2j_8_eijei.wav,,FALSE,FALSE,,,,,,,,,,,,,,f,0.148,space,0.677,,,,,,,,0,16,16,66,1,,
60d9f1f5e766b5f3eb00a7c4,2023-06-16_10h26.47.745,phx_ver10,2022.2.5,MacIntel,52.63157895,,,,,,,,,,,,56,testing_3,zh2j,ai,zh2j_ai,zh2j_8_aijai.wav,zh2j_1_aizhai.wav,,FALSE,FALSE,,,,,,,,,,,,,,f,0.509,space,0.87,,,,,,,,0,17,17,55,1,,
60d9f1f5e766b5f3eb00a7c4,2023-06-16_10h26.47.745,phx_ver10,2022.2.5,MacIntel,52.63157895,,,,,,,,,,,,15,testing_2,zh2x,ai,zh2x_ai,zh2x_1_aizhai.wav,zh2x_8_aixai.wav,,FALSE,FALSE,,,,,,,,,,,,,,j,0.262,space,0.616,,,,,,,,0,18,18,14,1,,
60d9f1f5e766b5f3eb00a7c4,2023-06-16_10h26.47.745,phx_ver10,2022.2.5,MacIntel,52.63157895,,,,,,,,,,,,1,testing_1,zh2x,a,zh2x_a,zh2x_1_azha.wav,zh2x_1_azha_copy.wav,,TRUE,TRUE,,,,,,,,,,,,,,f,0.092,space,0.647,,,,,,,,0,19,19,0,1,,
60d9f1f5e766b5f3eb00a7c4,2023-06-16_10h26.47.745,phx_ver10,2022.2.5,MacIntel,52.63157895,,,,,,,,,,,,69,testing_3,zh2j,i,zh2j_i,zh2j_1_izhi.wav,zh2j_1_izhi.wav,,TRUE,FALSE,,,,,,,,,,,,,,f,3.224,space,3.554,,,,,,,,0,20,20,68,1,,
60d9f1f5e766b5f3eb00a7c4,2023-06-16_10h26.47.745,phx_ver10,2022.2.5,MacIntel,52.63157895,,,,,,,,,,,,84,testing_3,j2x,au,j2x_au,j2x_8_auxau.wav,j2x_1_aujau.wav,,FALSE,FALSE,,,,,,,,,,,,,,j,0.414,space,0.835,,,,,,,,0,21,21,83,1,,
60d9f1f5e766b5f3eb00a7c4,2023-06-16_10h26.47.745,phx_ver10,2022.2.5,MacIntel,52.63157895,,,,,,,,,,,,128,testing_3,sh2j,ai,sh2j_ai,sh2j_8_aijai.wav,sh2j_1_aishai.wav,,FALSE,FALSE,,,,,,,,,,,,,,j,0.493,space,0.945,,,,,,,,0,22,22,127,1,,
60d9f1f5e766b5f3eb00a7c4,2023-06-16_10h26.47.745,phx_ver10,2022.2.5,MacIntel,52.63157895,,,,,,,,,,,,60,testing_3,zh2j,au,zh2j_au,zh2j_8_aujau.wav,zh2j_1_auzhau.wav,,FALSE,FALSE,,,,,,,,,,,,,,f,3.538,space,3.891,,,,,,,,0,23,23,59,1,,
60d9f1f5e766b5f3eb00a7c4,2023-06-16_10h26.47.745,phx_ver10,2022.2.5,MacIntel,52.63157895,,,,,,,,,,,,119,testing_3,sh2x,i,sh2x_i,sh2x_1_ishi.wav,sh2x_8_ixi.wav,,FALSE,FALSE,,,,,,,,,,,,,,f,0.588,space,0.95,,,,,,,,0,24,24,118,1,,
60d9f1f5e766b5f3eb00a7c4,2023-06-16_10h26.47.745,phx_ver10,2022.2.5,MacIntel,52.63157895,,,,,,,,,,,,87,testing_3,j2x,e,j2x_e,j2x_1_eje.wav,j2x_8_exe.wav,,FALSE,FALSE,,,,,,,,,,,,,,j,0.443,space,1.366,,,,,,,,0,25,25,86,1,,
60d9f1f5e766b5f3eb00a7c4,2023-06-16_10h26.47.745,phx_ver10,2022.2.5,MacIntel,52.63157895,,,,,,,,,,,,37,testing_3,zh2sh,e,zh2sh_e,zh2sh_1_ezhe.wav,zh2sh_1_ezhe.wav,,TRUE,FALSE,,,,,,,,,,,,,,f,0.412,space,0.799,,,,,,,,0,26,26,36,1,,
60d9f1f5e766b5f3eb00a7c4,2023-06-16_10h26.47.745,phx_ver10,2022.2.5,MacIntel,52.63157895,,,,,,,,,,,,21,testing_2,zh2x,ei,zh2x_ei,zh2x_1_eizhei.wav,zh2x_1_eizhei.wav,,TRUE,FALSE,,,,,,,,,,,,,,f,0.315,space,0.674,,,,,,,,0,27,27,20,1,,
60d9f1f5e766b5f3eb00a7c4,2023-06-16_10h26.47.745,phx_ver10,2022.2.5,MacIntel,52.63157895,,,,,,,,,,,,109,testing_3,sh2x,e,sh2x_e,sh2x_1_eshe.wav,sh2x_1_eshe.wav,,TRUE,FALSE,,,,,,,,,,,,,,f,0.281,space,0.695,,,,,,,,0,28,28,108,1,,
60d9f1f5e766b5f3eb00a7c4,2023-06-16_10h26.47.745,phx_ver10,2022.2.5,MacIntel,52.63157895,,,,,,,,,,,,11,testing_1,zh2x,i,zh2x_i,zh2x_1_izhi.wav,zh2x_8_ixi.wav,,FALSE,TRUE,,,,,,,,,,,,,,j,0.401,space,0.762,,,,,,,,0,29,29,10,1,,
60d9f1f5e766b5f3eb00a7c4,2023-06-16_10h26.47.745,phx_ver10,2022.2.5,MacIntel,52.63157895,,,,,,,,,,,,49,testing_3,zh2j,a,zh2j_a,zh2j_1_azha.wav,zh2j_1_azha.wav,,TRUE,FALSE,,,,,,,,,,,,,,f,0.177,space,0.591,,,,,,,,0,30,30,48,1,,
60d9f1f5e766b5f3eb00a7c4,2023-06-16_10h26.47.745,phx_ver10,2022.2.5,MacIntel,52.63157895,,,,,,,,,,,,23,testing_2,zh2x,ei,zh2x_ei,zh2x_1_eizhei.wav,zh2x_8_eixei.wav,,FALSE,FALSE,,,,,,,,,,,,,,j,0.411,space,0.864,,,,,,,,0,31,31,22,1,,
60d9f1f5e766b5f3eb00a7c4,2023-06-16_10h26.47.745,phx_ver10,2022.2.5,MacIntel,52.63157895,,,,,,,,,,,,81,testing_3,j2x,au,j2x_au,j2x_1_aujau.wav,j2x_1_aujau.wav,,TRUE,FALSE,,,,,,,,,,,,,,f,0.196,space,0.855,,,,,,,,0,32,32,80,1,,
60d9f1f5e766b5f3eb00a7c4,2023-06-16_10h26.47.745,phx_ver10,2022.2.5,MacIntel,52.63157895,,,,,,,,,,,,90,testing_3,j2x,ei,j2x_ei,j2x_8_eixei.wav,j2x_8_eixei.wav,,TRUE,FALSE,,,,,,,,,,,,,,f,0.119,space,0.468,,,,,,,,0,33,33,89,1,,
60d9f1f5e766b5f3eb00a7c4,2023-06-16_10h26.47.745,phx_ver10,2022.2.5,MacIntel,52.63157895,,,,,,,,,,,,19,testing_2,zh2x,au,zh2x_au,zh2x_1_auzhau.wav,zh2x_8_auxau.wav,,FALSE,FALSE,,,,,,,,,,,,,,j,0.178,space,0.59,,,,,,,,0,34,34,18,1,,
60d9f1f5e766b5f3eb00a7c4,2023-06-16_10h26.47.745,phx_ver10,2022.2.5,MacIntel,52.63157895,,,,,,,,,,,,112,testing_3,sh2x,e,sh2x_e,sh2x_8_exe.wav,sh2x_1_eshe.wav,,FALSE,FALSE,,,,,,,,,,,,,,f,0.179,space,0.533,,,,,,,,0,35,35,111,1,,
60d9f1f5e766b5f3eb00a7c4,2023-06-16_10h26.47.745,phx_ver10,2022.2.5,MacIntel,52.63157895,,,,,,,,,,,,10,testing_1,zh2x,i,zh2x_i,zh2x_8_ixi.wav,zh2x_8_ixi_copy.wav,,TRUE,TRUE,,,,,,,,,,,,,,f,0.117,space,0.52,,,,,,,,0,36,36,9,1,,
60d9f1f5e766b5f3eb00a7c4,2023-06-16_10h26.47.745,phx_ver10,2022.2.5,MacIntel,52.63157895,,,,,,,,,,,,136,testing_3,sh2j,e,sh2j_e,sh2j_8_eje.wav,sh2j_1_eshe.wav,,FALSE,FALSE,,,,,,,,,,,,,,j,0.143,space,0.589,,,,,,,,0,37,37,135,1,,
60d9f1f5e766b5f3eb00a7c4,2023-06-16_10h26.47.745,phx_ver10,2022.2.5,MacIntel,52.63157895,,,,,,,,,,,,63,testing_3,zh2j,e,zh2j_e,zh2j_1_ezhe.wav,zh2j_8_eje.wav,,FALSE,FALSE,,,,,,,,,,,,,,f,0.258,space,0.321,,,,,,,,0,38,38,62,1,,
60d9f1f5e766b5f3eb00a7c4,2023-06-16_10h26.47.745,phx_ver10,2022.2.5,MacIntel,52.63157895,,,,,,,,,,,,47,testing_3,zh2sh,i,zh2sh_i,zh2sh_1_izhi.wav,zh2sh_8_ishi.wav,,FALSE,FALSE,,,,,,,,,,,,,,j,0.106,space,0.226,,,,,,,,0,39,39,46,1,,
60d9f1f5e766b5f3eb00a7c4,2023-06-16_10h26.47.745,phx_ver10,2022.2.5,MacIntel,52.63157895,,,,,,,,,,,,52,testing_3,zh2j,a,zh2j_a,zh2j_8_aja.wav,zh2j_1_azha.wav,,FALSE,FALSE,,,,,,,,,,,,,,f,0.163,space,0.225,,,,,,,,0,40,40,51,1,,
60d9f1f5e766b5f3eb00a7c4,2023-06-16_10h26.47.745,phx_ver10,2022.2.5,MacIntel,52.63157895,,,,,,,,,,,,104,testing_3,sh2x,ai,sh2x_ai,sh2x_8_aixai.wav,sh2x_1_aishai.wav,,FALSE,FALSE,,,,,,,,,,,,,,f,0.842,space,0.933,,,,,,,,0,41,41,103,1,,
60d9f1f5e766b5f3eb00a7c4,2023-06-16_10h26.47.745,phx_ver10,2022.2.5,MacIntel,52.63157895,,,,,,,,,,,,5,testing_1,zh2x,e,zh2x_e,zh2x_1_ezhe.wav,zh2x_1_ezhe_copy.wav,,TRUE,TRUE,,,,,,,,,,,,,,f,0.127,space,0.431,,,,,,,,0,42,42,4,1,,
60d9f1f5e766b5f3eb00a7c4,2023-06-16_10h26.47.745,phx_ver10,2022.2.5,MacIntel,52.63157895,,,,,,,,,,,,75,testing_3,j2x,a,j2x_a,j2x_1_aja.wav,j2x_8_axa.wav,,FALSE,FALSE,,,,,,,,,,,,,,j,0.352,space,0.713,,,,,,,,0,43,43,74,1,,
60d9f1f5e766b5f3eb00a7c4,2023-06-16_10h26.47.745,phx_ver10,2022.2.5,MacIntel,52.63157895,,,,,,,,,,,,121,testing_3,sh2j,a,sh2j_a,sh2j_1_asha.wav,sh2j_1_asha.wav,,TRUE,FALSE,,,,,,,,,,,,,,f,0.609,space,0.949,,,,,,,,0,44,44,120,1,,
60d9f1f5e766b5f3eb00a7c4,2023-06-16_10h26.47.745,phx_ver10,2022.2.5,MacIntel,52.63157895,,,,,,,,,,,,42,testing_3,zh2sh,ei,zh2sh_ei,zh2sh_8_eishei.wav,zh2sh_8_eishei.wav,,TRUE,FALSE,,,,,,,,,,,,,,f,0.345,space,0.728,,,,,,,,0,45,45,41,1,,
60d9f1f5e766b5f3eb00a7c4,2023-06-16_10h26.47.745,phx_ver10,2022.2.5,MacIntel,52.63157895,,,,,,,,,,,,113,testing_3,sh2x,ei,sh2x_ei,sh2x_1_eishei.wav,sh2x_1_eishei.wav,,TRUE,FALSE,,,,,,,,,,,,,,f,0.762,space,0.989,,,,,,,,0,46,46,112,1,,
60d9f1f5e766b5f3eb00a7c4,2023-06-16_10h26.47.745,phx_ver10,2022.2.5,MacIntel,52.63157895,,,,,,,,,,,,96,testing_3,j2x,i,j2x_i,j2x_8_ixi.wav,j2x_1_iji.wav,,FALSE,FALSE,,,,,,,,,,,,,,j,0.384,space,0.583,,,,,,,,0,47,47,95,1,,
60d9f1f5e766b5f3eb00a7c4,2023-06-16_10h26.47.745,phx_ver10,2022.2.5,MacIntel,52.63157895,,,,,,,,,,,,83,testing_3,j2x,au,j2x_au,j2x_1_aujau.wav,j2x_8_auxau.wav,,FALSE,FALSE,,,,,,,,,,,,,,j,0.135,space,0.69,,,,,,,,0,48,48,82,1,,
60d9f1f5e766b5f3eb00a7c4,2023-06-16_10h26.47.745,phx_ver10,2022.2.5,MacIntel,52.63157895,,,,,,,,,,,,124,testing_3,sh2j,a,sh2j_a,sh2j_8_aja.wav,sh2j_1_asha.wav,,FALSE,FALSE,,,,,,,,,,,,,,j,1.475,space,1.835,,,,,,,,0,49,49,123,1,,
60d9f1f5e766b5f3eb00a7c4,2023-06-16_10h26.47.745,phx_ver10,2022.2.5,MacIntel,52.63157895,,,,,,,,,,,,141,testing_3,sh2j,i,sh2j_i,sh2j_1_ishi.wav,sh2j_1_ishi.wav,,TRUE,FALSE,,,,,,,,,,,,,,f,0.001,space,0.348,,,,,,,,0,50,50,140,1,,
60d9f1f5e766b5f3eb00a7c4,2023-06-16_10h26.47.745,phx_ver10,2022.2.5,MacIntel,52.63157895,,,,,,,,,,,,127,testing_3,sh2j,ai,sh2j_ai,sh2j_1_aishai.wav,sh2j_8_aijai.wav,,FALSE,FALSE,,,,,,,,,,,,,,j,7.654,space,8.112,,,,,,,,0,51,51,126,1,,
60d9f1f5e766b5f3eb00a7c4,2023-06-16_10h26.47.745,phx_ver10,2022.2.5,MacIntel,52.63157895,,,,,,,,,,,,115,testing_3,sh2x,ei,sh2x_ei,sh2x_1_eishei.wav,sh2x_8_eixei.wav,,FALSE,FALSE,,,,,,,,,,,,,,j,0.036,space,0.511,,,,,,,,0,52,52,114,1,,
60d9f1f5e766b5f3eb00a7c4,2023-06-16_10h26.47.745,phx_ver10,2022.2.5,MacIntel,52.63157895,,,,,,,,,,,,39,testing_3,zh2sh,e,zh2sh_e,zh2sh_1_ezhe.wav,zh2sh_8_eshe.wav,,FALSE,FALSE,,,,,,,,,,,,,,j,0.521,space,0.966,,,,,,,,0,53,53,38,1,,
60d9f1f5e766b5f3eb00a7c4,2023-06-16_10h26.47.745,phx_ver10,2022.2.5,MacIntel,52.63157895,,,,,,,,,,,,139,testing_3,sh2j,ei,sh2j_ei,sh2j_1_eishei.wav,sh2j_8_eijei.wav,,FALSE,FALSE,,,,,,,,,,,,,,j,0.439,space,0.899,,,,,,,,0,54,54,138,1,,
60d9f1f5e766b5f3eb00a7c4,2023-06-16_10h26.47.745,phx_ver10,2022.2.5,MacIntel,52.63157895,,,,,,,,,,,,7,testing_1,zh2x,e,zh2x_e,zh2x_1_ezhe.wav,zh2x_8_exe.wav,,FALSE,TRUE,,,,,,,,,,,,,,j,0.305,space,0.752,,,,,,,,0,55,55,6,1,,
60d9f1f5e766b5f3eb00a7c4,2023-06-16_10h26.47.745,phx_ver10,2022.2.5,MacIntel,52.63157895,,,,,,,,,,,,55,testing_3,zh2j,ai,zh2j_ai,zh2j_1_aizhai.wav,zh2j_8_aijai.wav,,FALSE,FALSE,,,,,,,,,,,,,,f,0.099,space,0.551,,,,,,,,0,56,56,54,1,,
60d9f1f5e766b5f3eb00a7c4,2023-06-16_10h26.47.745,phx_ver10,2022.2.5,MacIntel,52.63157895,,,,,,,,,,,,64,testing_3,zh2j,e,zh2j_e,zh2j_8_eje.wav,zh2j_1_ezhe.wav,,FALSE,FALSE,,,,,,,,,,,,,,f,0.257,space,0.576,,,,,,,,0,57,57,63,1,,
60d9f1f5e766b5f3eb00a7c4,2023-06-16_10h26.47.745,phx_ver10,2022.2.5,MacIntel,52.63157895,,,,,,,,,,,,122,testing_3,sh2j,a,sh2j_a,sh2j_8_aja.wav,sh2j_8_aja.wav,,TRUE,FALSE,,,,,,,,,,,,,,f,0.386,space,0.804,,,,,,,,0,58,58,121,1,,
60d9f1f5e766b5f3eb00a7c4,2023-06-16_10h26.47.745,phx_ver10,2022.2.5,MacIntel,52.63157895,,,,,,,,,,,,76,testing_3,j2x,a,j2x_a,j2x_8_axa.wav,j2x_1_aja.wav,,FALSE,FALSE,,,,,,,,,,,,,,j,0.267,space,0.837,,,,,,,,0,59,59,75,1,,
60d9f1f5e766b5f3eb00a7c4,2023-06-16_10h26.47.745,phx_ver10,2022.2.5,MacIntel,52.63157895,,,,,,,,,,,,77,testing_3,j2x,ai,j2x_ai,j2x_1_aijai.wav,j2x_1_aijai.wav,,TRUE,FALSE,,,,,,,,,,,,,,f,0.256,space,0.701,,,,,,,,0,60,60,76,1,,
60d9f1f5e766b5f3eb00a7c4,2023-06-16_10h26.47.745,phx_ver10,2022.2.5,MacIntel,52.63157895,,,,,,,,,,,,36,testing_3,zh2sh,au,zh2sh_au,zh2sh_8_aushau.wav,zh2sh_1_auzhau.wav,,FALSE,FALSE,,,,,,,,,,,,,,j,0,space,0.396,,,,,,,,0,61,61,35,1,,
60d9f1f5e766b5f3eb00a7c4,2023-06-16_10h26.47.745,phx_ver10,2022.2.5,MacIntel,52.63157895,,,,,,,,,,,,4,testing_1,zh2x,a,zh2x_a,zh2x_8_axa.wav,zh2x_1_azha.wav,,FALSE,TRUE,,,,,,,,,,,,,,j,19.358,space,19.848,,,,,,,,0,62,62,3,1,,
60d9f1f5e766b5f3eb00a7c4,2023-06-16_10h26.47.745,phx_ver10,2022.2.5,MacIntel,52.63157895,,,,,,,,,,,,14,testing_2,zh2x,ai,zh2x_ai,zh2x_8_aixai.wav,zh2x_8_aixai.wav,,TRUE,FALSE,,,,,,,,,,,,,,f,0.279,space,0.802,,,,,,,,0,63,63,13,1,,
60d9f1f5e766b5f3eb00a7c4,2023-06-16_10h26.47.745,phx_ver10,2022.2.5,MacIntel,52.63157895,,,,,,,,,,,,91,testing_3,j2x,ei,j2x_ei,j2x_1_eijei.wav,j2x_8_eixei.wav,,FALSE,FALSE,,,,,,,,,,,,,,j,0.363,space,0.879,,,,,,,,0,64,64,90,1,,
60d9f1f5e766b5f3eb00a7c4,2023-06-16_10h26.47.745,phx_ver10,2022.2.5,MacIntel,52.63157895,,,,,,,,,,,,26,testing_3,zh2sh,a,zh2sh_a,zh2sh_8_asha.wav,zh2sh_8_asha.wav,,TRUE,FALSE,,,,,,,,,,,,,,f,3.88,space,4.389,,,,,,,,0,65,65,25,1,,
60d9f1f5e766b5f3eb00a7c4,2023-06-16_10h26.47.745,phx_ver10,2022.2.5,MacIntel,52.63157895,,,,,,,,,,,,18,testing_2,zh2x,au,zh2x_au,zh2x_8_auxau.wav,zh2x_8_auxau.wav,,TRUE,FALSE,,,,,,,,,,,,,,f,31.471,space,31.943,,,,,,,,0,66,66,17,1,,
60d9f1f5e766b5f3eb00a7c4,2023-06-16_10h26.47.745,phx_ver10,2022.2.5,MacIntel,52.63157895,,,,,,,,,,,,65,testing_3,zh2j,ei,zh2j_ei,zh2j_1_eizhei.wav,zh2j_1_eizhei.wav,,TRUE,FALSE,,,,,,,,,,,,,,f,0.465,space,0.819,,,,,,,,0,67,67,64,1,,
60d9f1f5e766b5f3eb00a7c4,2023-06-16_10h26.47.745,phx_ver10,2022.2.5,MacIntel,52.63157895,,,,,,,,,,,,99,testing_3,sh2x,a,sh2x_a,sh2x_1_asha.wav,sh2x_8_axa.wav,,FALSE,FALSE,,,,,,,,,,,,,,f,3.143,space,3.612,,,,,,,,0,68,68,98,1,,
60d9f1f5e766b5f3eb00a7c4,2023-06-16_10h26.47.745,phx_ver10,2022.2.5,MacIntel,52.63157895,,,,,,,,,,,,123,testing_3,sh2j,a,sh2j_a,sh2j_1_asha.wav,sh2j_8_aja.wav,,FALSE,FALSE,,,,,,,,,,,,,,f,0.766,space,1.206,,,,,,,,0,69,69,122,1,,
60d9f1f5e766b5f3eb00a7c4,2023-06-16_10h26.47.745,phx_ver10,2022.2.5,MacIntel,52.63157895,,,,,,,,,,,,137,testing_3,sh2j,ei,sh2j_ei,sh2j_1_eishei.wav,sh2j_1_eishei.wav,,TRUE,FALSE,,,,,,,,,,,,,,f,0.426,space,0.912,,,,,,,,0,70,70,136,1,,
60d9f1f5e766b5f3eb00a7c4,2023-06-16_10h26.47.745,phx_ver10,2022.2.5,MacIntel,52.63157895,,,,,,,,,,,,114,testing_3,sh2x,ei,sh2x_ei,sh2x_8_eixei.wav,sh2x_8_eixei.wav,,TRUE,FALSE,,,,,,,,,,,,,,f,8.684,space,9.119,,,,,,,,0,71,71,113,1,,
60d9f1f5e766b5f3eb00a7c4,2023-06-16_10h26.47.745,phx_ver10,2022.2.5,MacIntel,52.63157895,,,,,,,,,,,,31,testing_3,zh2sh,ai,zh2sh_ai,zh2sh_1_aizhai.wav,zh2sh_8_aishai.wav,,FALSE,FALSE,,,,,,,,,,,,,,f,0.827,space,1.357,,,,,,,,0,72,72,30,1,,
60d9f1f5e766b5f3eb00a7c4,2023-06-16_10h26.47.745,phx_ver10,2022.2.5,MacIntel,52.63157895,,,,,,,,,,,,85,testing_3,j2x,e,j2x_e,j2x_1_eje.wav,j2x_1_eje.wav,,TRUE,FALSE,,,,,,,,,,,,,,f,0.147,space,0.594,,,,,,,,0,73,73,84,1,,
60d9f1f5e766b5f3eb00a7c4,2023-06-16_10h26.47.745,phx_ver10,2022.2.5,MacIntel,52.63157895,,,,,,,,,,,,117,testing_3,sh2x,i,sh2x_i,sh2x_1_ishi.wav,sh2x_1_ishi.wav,,TRUE,FALSE,,,,,,,,,,,,,,f,4.457,space,4.873,,,,,,,,0,74,74,116,1,,
60d9f1f5e766b5f3eb00a7c4,2023-06-16_10h26.47.745,phx_ver10,2022.2.5,MacIntel,52.63157895,,,,,,,,,,,,78,testing_3,j2x,ai,j2x_ai,j2x_8_aixai.wav,j2x_8_aixai.wav,,TRUE,FALSE,,,,,,,,,,,,,,f,0.775,space,1.208,,,,,,,,0,75,75,77,1,,
60d9f1f5e766b5f3eb00a7c4,2023-06-16_10h26.47.745,phx_ver10,2022.2.5,MacIntel,52.63157895,,,,,,,,,,,,13,testing_2,zh2x,ai,zh2x_ai,zh2x_1_aizhai.wav,zh2x_1_aizhai.wav,,TRUE,FALSE,,,,,,,,,,,,,,f,1.437,space,1.822,,,,,,,,0,76,76,12,1,,
60d9f1f5e766b5f3eb00a7c4,2023-06-16_10h26.47.745,phx_ver10,2022.2.5,MacIntel,52.63157895,,,,,,,,,,,,28,testing_3,zh2sh,a,zh2sh_a,zh2sh_8_asha.wav,zh2sh_1_azha.wav,,FALSE,FALSE,,,,,,,,,,,,,,j,0.143,space,0.565,,,,,,,,0,77,77,27,1,,
60d9f1f5e766b5f3eb00a7c4,2023-06-16_10h26.47.745,phx_ver10,2022.2.5,MacIntel,52.63157895,,,,,,,,,,,,110,testing_3,sh2x,e,sh2x_e,sh2x_8_exe.wav,sh2x_8_exe.wav,,TRUE,FALSE,,,,,,,,,,,,,,f,0.386,space,0.815,,,,,,,,0,78,78,109,1,,
60d9f1f5e766b5f3eb00a7c4,2023-06-16_10h26.47.745,phx_ver10,2022.2.5,MacIntel,52.63157895,,,,,,,,,,,,105,testing_3,sh2x,au,sh2x_au,sh2x_1_aushau.wav,sh2x_1_aushau.wav,,TRUE,FALSE,,,,,,,,,,,,,,f,1.389,space,2.301,,,,,,,,0,79,79,104,1,,
60d9f1f5e766b5f3eb00a7c4,2023-06-16_10h26.47.745,phx_ver10,2022.2.5,MacIntel,52.63157895,,,,,,,,,,,,102,testing_3,sh2x,ai,sh2x_ai,sh2x_8_aixai.wav,sh2x_8_aixai.wav,,TRUE,FALSE,,,,,,,,,,,,,,f,15.277,space,15.725,,,,,,,,0,80,80,101,1,,
60d9f1f5e766b5f3eb00a7c4,2023-06-16_10h26.47.745,phx_ver10,2022.2.5,MacIntel,52.63157895,,,,,,,,,,,,138,testing_3,sh2j,ei,sh2j_ei,sh2j_8_eijei.wav,sh2j_8_eijei.wav,,TRUE,FALSE,,,,,,,,,,,,,,f,0.49,space,0.779,,,,,,,,0,81,81,137,1,,
60d9f1f5e766b5f3eb00a7c4,2023-06-16_10h26.47.745,phx_ver10,2022.2.5,MacIntel,52.63157895,,,,,,,,,,,,111,testing_3,sh2x,e,sh2x_e,sh2x_1_eshe.wav,sh2x_8_exe.wav,,FALSE,FALSE,,,,,,,,,,,,,,f,0.597,space,0.846,,,,,,,,0,82,82,110,1,,
60d9f1f5e766b5f3eb00a7c4,2023-06-16_10h26.47.745,phx_ver10,2022.2.5,MacIntel,52.63157895,,,,,,,,,,,,50,testing_3,zh2j,a,zh2j_a,zh2j_8_aja.wav,zh2j_8_aja.wav,,TRUE,FALSE,,,,,,,,,,,,,,f,0.766,space,1.057,,,,,,,,0,83,83,49,1,,
60d9f1f5e766b5f3eb00a7c4,2023-06-16_10h26.47.745,phx_ver10,2022.2.5,MacIntel,52.63157895,,,,,,,,,,,,116,testing_3,sh2x,ei,sh2x_ei,sh2x_8_eixei.wav,sh2x_1_eishei.wav,,FALSE,FALSE,,,,,,,,,,,,,,f,0.48,space,0.919,,,,,,,,0,84,84,115,1,,
60d9f1f5e766b5f3eb00a7c4,2023-06-16_10h26.47.745,phx_ver10,2022.2.5,MacIntel,52.63157895,,,,,,,,,,,,32,testing_3,zh2sh,ai,zh2sh_ai,zh2sh_8_aishai.wav,zh2sh_1_aizhai.wav,,FALSE,FALSE,,,,,,,,,,,,,,j,0.437,space,0.853,,,,,,,,0,85,85,31,1,,
60d9f1f5e766b5f3eb00a7c4,2023-06-16_10h26.47.745,phx_ver10,2022.2.5,MacIntel,52.63157895,,,,,,,,,,,,46,testing_3,zh2sh,i,zh2sh_i,zh2sh_8_ishi.wav,zh2sh_8_ishi.wav,,TRUE,FALSE,,,,,,,,,,,,,,f,1.166,space,1.512,,,,,,,,0,86,86,45,1,,
60d9f1f5e766b5f3eb00a7c4,2023-06-16_10h26.47.745,phx_ver10,2022.2.5,MacIntel,52.63157895,,,,,,,,,,,,9,testing_1,zh2x,i,zh2x_i,zh2x_1_izhi.wav,zh2x_1_izhi_copy.wav,,TRUE,TRUE,,,,,,,,,,,,,,f,0.103,space,0.436,,,,,,,,0,87,87,8,1,,
60d9f1f5e766b5f3eb00a7c4,2023-06-16_10h26.47.745,phx_ver10,2022.2.5,MacIntel,52.63157895,,,,,,,,,,,,22,testing_2,zh2x,ei,zh2x_ei,zh2x_8_eixei.wav,zh2x_8_eixei.wav,,TRUE,FALSE,,,,,,,,,,,,,,f,0.167,space,0.488,,,,,,,,0,88,88,21,1,,
60d9f1f5e766b5f3eb00a7c4,2023-06-16_10h26.47.745,phx_ver10,2022.2.5,MacIntel,52.63157895,,,,,,,,,,,,62,testing_3,zh2j,e,zh2j_e,zh2j_8_eje.wav,zh2j_8_eje.wav,,TRUE,FALSE,,,,,,,,,,,,,,f,0.219,space,0.486,,,,,,,,0,89,89,61,1,,
60d9f1f5e766b5f3eb00a7c4,2023-06-16_10h26.47.745,phx_ver10,2022.2.5,MacIntel,52.63157895,,,,,,,,,,,,73,testing_3,j2x,a,j2x_a,j2x_1_aja.wav,j2x_1_aja.wav,,TRUE,FALSE,,,,,,,,,,,,,,f,0.362,space,0.699,,,,,,,,0,90,90,72,1,,
60d9f1f5e766b5f3eb00a7c4,2023-06-16_10h26.47.745,phx_ver10,2022.2.5,MacIntel,52.63157895,,,,,,,,,,,,2,testing_1,zh2x,a,zh2x_a,zh2x_8_axa.wav,zh2x_8_axa_copy.wav,,TRUE,TRUE,,,,,,,,,,,,,,f,0.373,space,0.794,,,,,,,,0,91,91,1,1,,
60d9f1f5e766b5f3eb00a7c4,2023-06-16_10h26.47.745,phx_ver10,2022.2.5,MacIntel,52.63157895,,,,,,,,,,,,27,testing_3,zh2sh,a,zh2sh_a,zh2sh_1_azha.wav,zh2sh_8_asha.wav,,FALSE,FALSE,,,,,,,,,,,,,,j,0.276,space,0.768,,,,,,,,0,92,92,26,1,,
60d9f1f5e766b5f3eb00a7c4,2023-06-16_10h26.47.745,phx_ver10,2022.2.5,MacIntel,52.63157895,,,,,,,,,,,,143,testing_3,sh2j,i,sh2j_i,sh2j_1_ishi.wav,sh2j_8_iji.wav,,FALSE,FALSE,,,,,,,,,,,,,,j,0.18,space,0.601,,,,,,,,0,93,93,142,1,,
60d9f1f5e766b5f3eb00a7c4,2023-06-16_10h26.47.745,phx_ver10,2022.2.5,MacIntel,52.63157895,,,,,,,,,,,,106,testing_3,sh2x,au,sh2x_au,sh2x_8_auxau.wav,sh2x_8_auxau.wav,,TRUE,FALSE,,,,,,,,,,,,,,f,1.484,space,1.812,,,,,,,,0,94,94,105,1,,
60d9f1f5e766b5f3eb00a7c4,2023-06-16_10h26.47.745,phx_ver10,2022.2.5,MacIntel,52.63157895,,,,,,,,,,,,24,testing_2,zh2x,ei,zh2x_ei,zh2x_8_eixei.wav,zh2x_1_eizhei.wav,,FALSE,FALSE,,,,,,,,,,,,,,j,0.622,space,0.935,,,,,,,,0,95,95,23,1,,
60d9f1f5e766b5f3eb00a7c4,2023-06-16_10h26.47.745,phx_ver10,2022.2.5,MacIntel,52.63157895,,,,,,,,,,,,34,testing_3,zh2sh,au,zh2sh_au,zh2sh_8_aushau.wav,zh2sh_8_aushau.wav,,TRUE,FALSE,,,,,,,,,,,,,,f,0.039,space,0.468,,,,,,,,0,96,96,33,1,,
60d9f1f5e766b5f3eb00a7c4,2023-06-16_10h26.47.745,phx_ver10,2022.2.5,MacIntel,52.63157895,,,,,,,,,,,,144,testing_3,sh2j,i,sh2j_i,sh2j_8_iji.wav,sh2j_1_ishi.wav,,FALSE,FALSE,,,,,,,,,,,,,,j,0.175,space,0.537,,,,,,,,0,97,97,143,1,,
60d9f1f5e766b5f3eb00a7c4,2023-06-16_10h26.47.745,phx_ver10,2022.2.5,MacIntel,52.63157895,,,,,,,,,,,,129,testing_3,sh2j,au,sh2j_au,sh2j_1_aushau.wav,sh2j_1_aushau.wav,,TRUE,FALSE,,,,,,,,,,,,,,f,0.824,space,1.244,,,,,,,,0,98,98,128,1,,
60d9f1f5e766b5f3eb00a7c4,2023-06-16_10h26.47.745,phx_ver10,2022.2.5,MacIntel,52.63157895,,,,,,,,,,,,108,testing_3,sh2x,au,sh2x_au,sh2x_8_auxau.wav,sh2x_1_aushau.wav,,FALSE,FALSE,,,,,,,,,,,,,,f,0.379,space,0.688,,,,,,,,0,99,99,107,1,,
60d9f1f5e766b5f3eb00a7c4,2023-06-16_10h26.47.745,phx_ver10,2022.2.5,MacIntel,52.63157895,,,,,,,,,,,,38,testing_3,zh2sh,e,zh2sh_e,zh2sh_8_eshe.wav,zh2sh_8_eshe.wav,,TRUE,FALSE,,,,,,,,,,,,,,f,0.344,space,0.819,,,,,,,,0,100,100,37,1,,
60d9f1f5e766b5f3eb00a7c4,2023-06-16_10h26.47.745,phx_ver10,2022.2.5,MacIntel,52.63157895,,,,,,,,,,,,25,testing_3,zh2sh,a,zh2sh_a,zh2sh_1_azha.wav,zh2sh_1_azha.wav,,TRUE,FALSE,,,,,,,,,,,,,,f,0.281,space,0.655,,,,,,,,0,101,101,24,1,,
60d9f1f5e766b5f3eb00a7c4,2023-06-16_10h26.47.745,phx_ver10,2022.2.5,MacIntel,52.63157895,,,,,,,,,,,,16,testing_2,zh2x,ai,zh2x_ai,zh2x_8_aixai.wav,zh2x_1_aizhai.wav,,FALSE,FALSE,,,,,,,,,,,,,,j,0.216,space,0.693,,,,,,,,0,102,102,15,1,,
60d9f1f5e766b5f3eb00a7c4,2023-06-16_10h26.47.745,phx_ver10,2022.2.5,MacIntel,52.63157895,,,,,,,,,,,,68,testing_3,zh2j,ei,zh2j_ei,zh2j_8_eijei.wav,zh2j_1_eizhei.wav,,FALSE,FALSE,,,,,,,,,,,,,,f,0.429,space,0.842,,,,,,,,0,103,103,67,1,,
60d9f1f5e766b5f3eb00a7c4,2023-06-16_10h26.47.745,phx_ver10,2022.2.5,MacIntel,52.63157895,,,,,,,,,,,,82,testing_3,j2x,au,j2x_au,j2x_8_auxau.wav,j2x_8_auxau.wav,,TRUE,FALSE,,,,,,,,,,,,,,f,0.189,space,0.483,,,,,,,,0,104,104,81,1,,
60d9f1f5e766b5f3eb00a7c4,2023-06-16_10h26.47.745,phx_ver10,2022.2.5,MacIntel,52.63157895,,,,,,,,,,,,80,testing_3,j2x,ai,j2x_ai,j2x_8_aixai.wav,j2x_1_aijai.wav,,FALSE,FALSE,,,,,,,,,,,,,,j,0.183,space,0.566,,,,,,,,0,105,105,79,1,,
60d9f1f5e766b5f3eb00a7c4,2023-06-16_10h26.47.745,phx_ver10,2022.2.5,MacIntel,52.63157895,,,,,,,,,,,,35,testing_3,zh2sh,au,zh2sh_au,zh2sh_1_auzhau.wav,zh2sh_8_aushau.wav,,FALSE,FALSE,,,,,,,,,,,,,,j,0.343,space,0.629,,,,,,,,0,106,106,34,1,,
60d9f1f5e766b5f3eb00a7c4,2023-06-16_10h26.47.745,phx_ver10,2022.2.5,MacIntel,52.63157895,,,,,,,,,,,,53,testing_3,zh2j,ai,zh2j_ai,zh2j_1_aizhai.wav,zh2j_1_aizhai.wav,,TRUE,FALSE,,,,,,,,,,,,,,f,0.001,space,0.286,,,,,,,,0,107,107,52,1,,
60d9f1f5e766b5f3eb00a7c4,2023-06-16_10h26.47.745,phx_ver10,2022.2.5,MacIntel,52.63157895,,,,,,,,,,,,45,testing_3,zh2sh,i,zh2sh_i,zh2sh_1_izhi.wav,zh2sh_1_izhi.wav,,TRUE,FALSE,,,,,,,,,,,,,,f,0.133,space,0.281,,,,,,,,0,108,108,44,1,,
60d9f1f5e766b5f3eb00a7c4,2023-06-16_10h26.47.745,phx_ver10,2022.2.5,MacIntel,52.63157895,,,,,,,,,,,,142,testing_3,sh2j,i,sh2j_i,sh2j_8_iji.wav,sh2j_8_iji.wav,,TRUE,FALSE,,,,,,,,,,,,,,f,0.114,space,0.358,,,,,,,,0,109,109,141,1,,
60d9f1f5e766b5f3eb00a7c4,2023-06-16_10h26.47.745,phx_ver10,2022.2.5,MacIntel,52.63157895,,,,,,,,,,,,43,testing_3,zh2sh,ei,zh2sh_ei,zh2sh_1_eizhei.wav,zh2sh_8_eishei.wav,,FALSE,FALSE,,,,,,,,,,,,,,j,0.226,space,0.483,,,,,,,,0,110,110,42,1,,
60d9f1f5e766b5f3eb00a7c4,2023-06-16_10h26.47.745,phx_ver10,2022.2.5,MacIntel,52.63157895,,,,,,,,,,,,86,testing_3,j2x,e,j2x_e,j2x_8_exe.wav,j2x_8_exe.wav,,TRUE,FALSE,,,,,,,,,,,,,,f,0.412,space,0.607,,,,,,,,0,111,111,85,1,,
60d9f1f5e766b5f3eb00a7c4,2023-06-16_10h26.47.745,phx_ver10,2022.2.5,MacIntel,52.63157895,,,,,,,,,,,,120,testing_3,sh2x,i,sh2x_i,sh2x_8_ixi.wav,sh2x_1_ishi.wav,,FALSE,FALSE,,,,,,,,,,,,,,f,0.07,space,0.318,,,,,,,,0,112,112,119,1,,
60d9f1f5e766b5f3eb00a7c4,2023-06-16_10h26.47.745,phx_ver10,2022.2.5,MacIntel,52.63157895,,,,,,,,,,,,135,testing_3,sh2j,e,sh2j_e,sh2j_1_eshe.wav,sh2j_8_eje.wav,,FALSE,FALSE,,,,,,,,,,,,,,j,0.711,space,1.131,,,,,,,,0,113,113,134,1,,
60d9f1f5e766b5f3eb00a7c4,2023-06-16_10h26.47.745,phx_ver10,2022.2.5,MacIntel,52.63157895,,,,,,,,,,,,103,testing_3,sh2x,ai,sh2x_ai,sh2x_1_aishai.wav,sh2x_8_aixai.wav,,FALSE,FALSE,,,,,,,,,,,,,,j,0.15,space,0.52,,,,,,,,0,114,114,102,1,,
60d9f1f5e766b5f3eb00a7c4,2023-06-16_10h26.47.745,phx_ver10,2022.2.5,MacIntel,52.63157895,,,,,,,,,,,,74,testing_3,j2x,a,j2x_a,j2x_8_axa.wav,j2x_8_axa.wav,,TRUE,FALSE,,,,,,,,,,,,,,j,0.346,space,0.68,,,,,,,,0,115,115,73,1,,
60d9f1f5e766b5f3eb00a7c4,2023-06-16_10h26.47.745,phx_ver10,2022.2.5,MacIntel,52.63157895,,,,,,,,,,,,133,testing_3,sh2j,e,sh2j_e,sh2j_1_eshe.wav,sh2j_1_eshe.wav,,TRUE,FALSE,,,,,,,,,,,,,,j,0.171,space,0.433,,,,,,,,0,116,116,132,1,,
60d9f1f5e766b5f3eb00a7c4,2023-06-16_10h26.47.745,phx_ver10,2022.2.5,MacIntel,52.63157895,,,,,,,,,,,,66,testing_3,zh2j,ei,zh2j_ei,zh2j_8_eijei.wav,zh2j_8_eijei.wav,,TRUE,FALSE,,,,,,,,,,,,,,f,0.379,space,0.781,,,,,,,,0,117,117,65,1,,
60d9f1f5e766b5f3eb00a7c4,2023-06-16_10h26.47.745,phx_ver10,2022.2.5,MacIntel,52.63157895,,,,,,,,,,,,44,testing_3,zh2sh,ei,zh2sh_ei,zh2sh_8_eishei.wav,zh2sh_1_eizhei.wav,,FALSE,FALSE,,,,,,,,,,,,,,j,0.266,space,0.715,,,,,,,,0,118,118,43,1,,
60d9f1f5e766b5f3eb00a7c4,2023-06-16_10h26.47.745,phx_ver10,2022.2.5,MacIntel,52.63157895,,,,,,,,,,,,134,testing_3,sh2j,e,sh2j_e,sh2j_8_eje.wav,sh2j_8_eje.wav,,TRUE,FALSE,,,,,,,,,,,,,,f,0.151,space,0.566,,,,,,,,0,119,119,133,1,,
60d9f1f5e766b5f3eb00a7c4,2023-06-16_10h26.47.745,phx_ver10,2022.2.5,MacIntel,52.63157895,,,,,,,,,,,,54,testing_3,zh2j,ai,zh2j_ai,zh2j_8_aijai.wav,zh2j_8_aijai.wav,,TRUE,FALSE,,,,,,,,,,,,,,f,50.631,space,51.003,,,,,,,,0,120,120,53,1,,
60d9f1f5e766b5f3eb00a7c4,2023-06-16_10h26.47.745,phx_ver10,2022.2.5,MacIntel,52.63157895,,,,,,,,,,,,61,testing_3,zh2j,e,zh2j_e,zh2j_1_ezhe.wav,zh2j_1_ezhe.wav,,TRUE,FALSE,,,,,,,,,,,,,,f,0.236,space,0.866,,,,,,,,0,121,121,60,1,,
60d9f1f5e766b5f3eb00a7c4,2023-06-16_10h26.47.745,phx_ver10,2022.2.5,MacIntel,52.63157895,,,,,,,,,,,,72,testing_3,zh2j,i,zh2j_i,zh2j_8_iji.wav,zh2j_1_izhi.wav,,FALSE,FALSE,,,,,,,,,,,,,,f,0.208,space,0.717,,,,,,,,0,122,122,71,1,,
60d9f1f5e766b5f3eb00a7c4,2023-06-16_10h26.47.745,phx_ver10,2022.2.5,MacIntel,52.63157895,,,,,,,,,,,,79,testing_3,j2x,ai,j2x_ai,j2x_1_aijai.wav,j2x_8_aixai.wav,,FALSE,FALSE,,,,,,,,,,,,,,j,0.405,space,0.739,,,,,,,,0,123,123,78,1,,
60d9f1f5e766b5f3eb00a7c4,2023-06-16_10h26.47.745,phx_ver10,2022.2.5,MacIntel,52.63157895,,,,,,,,,,,,12,testing_1,zh2x,i,zh2x_i,zh2x_8_ixi.wav,zh2x_1_izhi.wav,,FALSE,TRUE,,,,,,,,,,,,,,f,22.566,space,22.834,,,,,,,,0,124,124,11,1,,
60d9f1f5e766b5f3eb00a7c4,2023-06-16_10h26.47.745,phx_ver10,2022.2.5,MacIntel,52.63157895,,,,,,,,,,,,40,testing_3,zh2sh,e,zh2sh_e,zh2sh_8_eshe.wav,zh2sh_1_ezhe.wav,,FALSE,FALSE,,,,,,,,,,,,,,j,0.647,space,0.995,,,,,,,,0,125,125,39,1,,
60d9f1f5e766b5f3eb00a7c4,2023-06-16_10h26.47.745,phx_ver10,2022.2.5,MacIntel,52.63157895,,,,,,,,,,,,30,testing_3,zh2sh,ai,zh2sh_ai,zh2sh_8_aishai.wav,zh2sh_8_aishai.wav,,TRUE,FALSE,,,,,,,,,,,,,,f,0.409,space,0.763,,,,,,,,0,126,126,29,1,,
60d9f1f5e766b5f3eb00a7c4,2023-06-16_10h26.47.745,phx_ver10,2022.2.5,MacIntel,52.63157895,,,,,,,,,,,,97,testing_3,sh2x,a,sh2x_a,sh2x_1_asha.wav,sh2x_1_asha.wav,,TRUE,FALSE,,,,,,,,,,,,,,f,3.71,space,4.358,,,,,,,,0,127,127,96,1,,
60d9f1f5e766b5f3eb00a7c4,2023-06-16_10h26.47.745,phx_ver10,2022.2.5,MacIntel,52.63157895,,,,,,,,,,,,93,testing_3,j2x,i,j2x_i,j2x_1_iji.wav,j2x_1_iji.wav,,TRUE,FALSE,,,,,,,,,,,,,,f,0.685,space,1.167,,,,,,,,0,128,128,92,1,,
60d9f1f5e766b5f3eb00a7c4,2023-06-16_10h26.47.745,phx_ver10,2022.2.5,MacIntel,52.63157895,,,,,,,,,,,,131,testing_3,sh2j,au,sh2j_au,sh2j_1_aushau.wav,sh2j_8_aujau.wav,,FALSE,FALSE,,,,,,,,,,,,,,f,2.322,space,2.621,,,,,,,,0,129,129,130,1,,
60d9f1f5e766b5f3eb00a7c4,2023-06-16_10h26.47.745,phx_ver10,2022.2.5,MacIntel,52.63157895,,,,,,,,,,,,70,testing_3,zh2j,i,zh2j_i,zh2j_8_iji.wav,zh2j_8_iji.wav,,TRUE,FALSE,,,,,,,,,,,,,,f,0.068,space,0.501,,,,,,,,0,130,130,69,1,,
60d9f1f5e766b5f3eb00a7c4,2023-06-16_10h26.47.745,phx_ver10,2022.2.5,MacIntel,52.63157895,,,,,,,,,,,,58,testing_3,zh2j,au,zh2j_au,zh2j_8_aujau.wav,zh2j_8_aujau.wav,,TRUE,FALSE,,,,,,,,,,,,,,f,0.081,space,0.505,,,,,,,,0,131,131,57,1,,
60d9f1f5e766b5f3eb00a7c4,2023-06-16_10h26.47.745,phx_ver10,2022.2.5,MacIntel,52.63157895,,,,,,,,,,,,98,testing_3,sh2x,a,sh2x_a,sh2x_8_axa.wav,sh2x_8_axa.wav,,TRUE,FALSE,,,,,,,,,,,,,,f,0.219,space,0.598,,,,,,,,0,132,132,97,1,,
60d9f1f5e766b5f3eb00a7c4,2023-06-16_10h26.47.745,phx_ver10,2022.2.5,MacIntel,52.63157895,,,,,,,,,,,,107,testing_3,sh2x,au,sh2x_au,sh2x_1_aushau.wav,sh2x_8_auxau.wav,,FALSE,FALSE,,,,,,,,,,,,,,f,0.128,space,0.487,,,,,,,,0,133,133,106,1,,
60d9f1f5e766b5f3eb00a7c4,2023-06-16_10h26.47.745,phx_ver10,2022.2.5,MacIntel,52.63157895,,,,,,,,,,,,29,testing_3,zh2sh,ai,zh2sh_ai,zh2sh_1_aizhai.wav,zh2sh_1_aizhai.wav,,TRUE,FALSE,,,,,,,,,,,,,,f,0.508,space,0.873,,,,,,,,0,134,134,28,1,,
60d9f1f5e766b5f3eb00a7c4,2023-06-16_10h26.47.745,phx_ver10,2022.2.5,MacIntel,52.63157895,,,,,,,,,,,,89,testing_3,j2x,ei,j2x_ei,j2x_1_eijei.wav,j2x_1_eijei.wav,,TRUE,FALSE,,,,,,,,,,,,,,f,0.128,space,0.56,,,,,,,,0,135,135,88,1,,
60d9f1f5e766b5f3eb00a7c4,2023-06-16_10h26.47.745,phx_ver10,2022.2.5,MacIntel,52.63157895,,,,,,,,,,,,95,testing_3,j2x,i,j2x_i,j2x_1_iji.wav,j2x_8_ixi.wav,,FALSE,FALSE,,,,,,,,,,,,,,j,0.002,space,0.339,,,,,,,,0,136,136,94,1,,
60d9f1f5e766b5f3eb00a7c4,2023-06-16_10h26.47.745,phx_ver10,2022.2.5,MacIntel,52.63157895,,,,,,,,,,,,17,testing_2,zh2x,au,zh2x_au,zh2x_1_auzhau.wav,zh2x_1_auzhau.wav,,TRUE,FALSE,,,,,,,,,,,,,,f,0.308,space,0.622,,,,,,,,0,137,137,16,1,,
60d9f1f5e766b5f3eb00a7c4,2023-06-16_10h26.47.745,phx_ver10,2022.2.5,MacIntel,52.63157895,,,,,,,,,,,,59,testing_3,zh2j,au,zh2j_au,zh2j_1_auzhau.wav,zh2j_8_aujau.wav,,FALSE,FALSE,,,,,,,,,,,,,,f,0.132,space,0.447,,,,,,,,0,138,138,58,1,,
60d9f1f5e766b5f3eb00a7c4,2023-06-16_10h26.47.745,phx_ver10,2022.2.5,MacIntel,52.63157895,,,,,,,,,,,,125,testing_3,sh2j,ai,sh2j_ai,sh2j_1_aishai.wav,sh2j_1_aishai.wav,,TRUE,FALSE,,,,,,,,,,,,,,j,0.649,space,0.912,,,,,,,,0,139,139,124,1,,
60d9f1f5e766b5f3eb00a7c4,2023-06-16_10h26.47.745,phx_ver10,2022.2.5,MacIntel,52.63157895,,,,,,,,,,,,118,testing_3,sh2x,i,sh2x_i,sh2x_8_ixi.wav,sh2x_8_ixi.wav,,TRUE,FALSE,,,,,,,,,,,,,,f,0.104,space,0.469,,,,,,,,0,140,140,117,1,,
60d9f1f5e766b5f3eb00a7c4,2023-06-16_10h26.47.745,phx_ver10,2022.2.5,MacIntel,52.63157895,,,,,,,,,,,,88,testing_3,j2x,e,j2x_e,j2x_8_exe.wav,j2x_1_eje.wav,,FALSE,FALSE,,,,,,,,,,,,,,f,0.78,space,1.146,,,,,,,,0,141,141,87,1,,
60d9f1f5e766b5f3eb00a7c4,2023-06-16_10h26.47.745,phx_ver10,2022.2.5,MacIntel,52.63157895,,,,,,,,,,,,100,testing_3,sh2x,a,sh2x_a,sh2x_8_axa.wav,sh2x_1_asha.wav,,FALSE,FALSE,,,,,,,,,,,,,,f,3.727,space,4.078,,,,,,,,0,142,142,99,1,,
60d9f1f5e766b5f3eb00a7c4,2023-06-16_10h26.47.745,phx_ver10,2022.2.5,MacIntel,52.63157895,,,,,,,,,,,,132,testing_3,sh2j,au,sh2j_au,sh2j_8_aujau.wav,sh2j_1_aushau.wav,,FALSE,FALSE,,,,,,,,,,,,,,f,1.179,space,1.417,,,,,,,,0,143,143,131,1,,
60d9f1f5e766b5f3eb00a7c4,2023-06-16_10h26.47.745,phx_ver10,2022.2.5,MacIntel,52.63157895,,,,,,,,,,,,,,,,,,,,,,,,,,,,,,,,,,,,,,,,,,,,,,,,,,,space,3.296
