participant,date,expName,psychopyVersion,OS,frameRate,space_1.keys,space_1.rt,space_2.keys,space_2.rt,space_train.keys,space_train.rt,training.thisRepN,training.thisTrialN,training.thisN,training.thisIndex,training.ran,token_id,task,continuum,vowel,series,sound_1,sound_2,img,same,trained,FJ_attn.keys,FJ_attn.rt,space_attn.keys,space_attn.rt,if_attn_test.thisRepN,if_attn_test.thisTrialN,if_attn_test.thisN,if_attn_test.thisIndex,if_attn_test.ran,space_trans_1.keys,space_trans_1.rt,space_trans_11.keys,space_trans_11.rt,FJ_test.keys,FJ_test.rt,space_test.keys,space_test.rt,testing_pre.thisRepN,testing_pre.thisTrialN,testing_pre.thisN,testing_pre.thisIndex,testing_pre.ran,space_trans_2.keys,space_trans_2.rt,testing_all.thisRepN,testing_all.thisTrialN,testing_all.thisN,testing_all.thisIndex,testing_all.ran,space_ending.keys,space_ending.rt
611b750d4bb9b61a0400fd61,2023-06-16_10h27.03.512,phx_ver10,2022.2.5,Win32,58.7509547,,,,,,,,,,,,,,,,,,,,,,,,,,,,,,,,,,,,,,,,,,,,,,,,,,,,
611b750d4bb9b61a0400fd61,2023-06-16_10h27.03.512,phx_ver10,2022.2.5,Win32,58.7509547,space,8.9082,,,,,,,,,,,,,,,,,,,,,,,,,,,,,,,,,,,,,,,,,,,,,,,,,,
611b750d4bb9b61a0400fd61,2023-06-16_10h27.03.512,phx_ver10,2022.2.5,Win32,58.7509547,,,space,8.3663,,,,,,,,,,,,,,,,,,,,,,,,,,,,,,,,,,,,,,,,,,,,,,,,
611b750d4bb9b61a0400fd61,2023-06-16_10h27.03.512,phx_ver10,2022.2.5,Win32,58.7509547,,,,,space,1.7869,0,0,0,1,1,2,training,zh2x,a,zh2x_a,zh2x_2_azha.wav,,azha.jpg,,,,,,,,,,,,,,,,,,,,,,,,,,,,,,,,,
611b750d4bb9b61a0400fd61,2023-06-16_10h27.03.512,phx_ver10,2022.2.5,Win32,58.7509547,,,,,space,2.269,0,1,1,26,1,27,training,zh2x,e,zh2x_e,zh2x_6_exe.wav,,exe.jpg,,,,,,,,,,,,,,,,,,,,,,,,,,,,,,,,,
611b750d4bb9b61a0400fd61,2023-06-16_10h27.03.512,phx_ver10,2022.2.5,Win32,58.7509547,,,,,space,1.3502,0,2,2,15,1,16,training,zh2x,a,zh2x_a,zh2x_8_axa.wav,,axa.jpg,,,,,,,,,,,,,,,,,,,,,,,,,,,,,,,,,
611b750d4bb9b61a0400fd61,2023-06-16_10h27.03.512,phx_ver10,2022.2.5,Win32,58.7509547,,,,,space,0.4841,0,3,3,27,1,28,training,zh2x,e,zh2x_e,zh2x_7_exe.wav,,exe.jpg,,,,,,,,,,,,,,,,,,,,,,,,,,,,,,,,,
611b750d4bb9b61a0400fd61,2023-06-16_10h27.03.512,phx_ver10,2022.2.5,Win32,58.7509547,,,,,space,0.3839,0,4,4,6,1,7,training,zh2x,a,zh2x_a,zh2x_3_azha.wav,,azha.jpg,,,,,,,,,,,,,,,,,,,,,,,,,,,,,,,,,
611b750d4bb9b61a0400fd61,2023-06-16_10h27.03.512,phx_ver10,2022.2.5,Win32,58.7509547,,,,,space,0.3341,0,5,5,38,1,39,training,zh2x,i,zh2x_i,zh2x_3_izhi.wav,,izhi.jpg,,,,,,,,,,,,,,,,,,,,,,,,,,,,,,,,,
611b750d4bb9b61a0400fd61,2023-06-16_10h27.03.512,phx_ver10,2022.2.5,Win32,58.7509547,,,,,,,,,,,,,attn_test,,,,zh2x_8_axa.wav,zh2x_8_exe.wav,exe.jpg,RIGHT,,f,5.1651,space,6.3188,0,0,0,0,1,,,,,,,,,,,,,,,,,,,,,,
611b750d4bb9b61a0400fd61,2023-06-16_10h27.03.512,phx_ver10,2022.2.5,Win32,58.7509547,,,,,space,1.9668,0,6,6,24,1,25,training,zh2x,e,zh2x_e,zh2x_5_exe.wav,,exe.jpg,,,,,,,,,,,,,,,,,,,,,,,,,,,,,,,,,
611b750d4bb9b61a0400fd61,2023-06-16_10h27.03.512,phx_ver10,2022.2.5,Win32,58.7509547,,,,,space,0.7173,0,7,7,46,1,47,training,zh2x,i,zh2x_i,zh2x_7_ixi.wav,,ixi.jpg,,,,,,,,,,,,,,,,,,,,,,,,,,,,,,,,,
611b750d4bb9b61a0400fd61,2023-06-16_10h27.03.512,phx_ver10,2022.2.5,Win32,58.7509547,,,,,space,0.1004,0,8,8,9,1,10,training,zh2x,a,zh2x_a,zh2x_6_axa.wav,,axa.jpg,,,,,,,,,,,,,,,,,,,,,,,,,,,,,,,,,
611b750d4bb9b61a0400fd61,2023-06-16_10h27.03.512,phx_ver10,2022.2.5,Win32,58.7509547,,,,,space,1.3675,0,9,9,3,1,4,training,zh2x,a,zh2x_a,zh2x_2_azha.wav,,azha.jpg,,,,,,,,,,,,,,,,,,,,,,,,,,,,,,,,,
611b750d4bb9b61a0400fd61,2023-06-16_10h27.03.512,phx_ver10,2022.2.5,Win32,58.7509547,,,,,space,0.0005,0,10,10,10,1,11,training,zh2x,a,zh2x_a,zh2x_6_axa.wav,,axa.jpg,,,,,,,,,,,,,,,,,,,,,,,,,,,,,,,,,
611b750d4bb9b61a0400fd61,2023-06-16_10h27.03.512,phx_ver10,2022.2.5,Win32,58.7509547,,,,,space,0.1269,0,11,11,47,1,48,training,zh2x,i,zh2x_i,zh2x_8_ixi.wav,,ixi.jpg,,,,,,,,,,,,,,,,,,,,,,,,,,,,,,,,,
611b750d4bb9b61a0400fd61,2023-06-16_10h27.03.512,phx_ver10,2022.2.5,Win32,58.7509547,,,,,,,,,,,,,attn_test,,,,zh2x_8_ixi.wav,zh2x_1_azha.wav,ixi.jpg,LEFT,,f,0.6339,space,1.3503,0,0,0,0,1,,,,,,,,,,,,,,,,,,,,,,
611b750d4bb9b61a0400fd61,2023-06-16_10h27.03.512,phx_ver10,2022.2.5,Win32,58.7509547,,,,,space,0.5228,0,12,12,43,1,44,training,zh2x,i,zh2x_i,zh2x_7_ixi.wav,,ixi.jpg,,,,,,,,,,,,,,,,,,,,,,,,,,,,,,,,,
611b750d4bb9b61a0400fd61,2023-06-16_10h27.03.512,phx_ver10,2022.2.5,Win32,58.7509547,,,,,space,0.0231,0,13,13,33,1,34,training,zh2x,i,zh2x_i,zh2x_2_izhi.wav,,izhi.jpg,,,,,,,,,,,,,,,,,,,,,,,,,,,,,,,,,
611b750d4bb9b61a0400fd61,2023-06-16_10h27.03.512,phx_ver10,2022.2.5,Win32,58.7509547,,,,,space,0.1368,0,14,14,18,1,19,training,zh2x,e,zh2x_e,zh2x_2_ezhe.wav,,ezhe.jpg,,,,,,,,,,,,,,,,,,,,,,,,,,,,,,,,,
611b750d4bb9b61a0400fd61,2023-06-16_10h27.03.512,phx_ver10,2022.2.5,Win32,58.7509547,,,,,space,0.8843,0,15,15,31,1,32,training,zh2x,e,zh2x_e,zh2x_8_exe.wav,,exe.jpg,,,,,,,,,,,,,,,,,,,,,,,,,,,,,,,,,
611b750d4bb9b61a0400fd61,2023-06-16_10h27.03.512,phx_ver10,2022.2.5,Win32,58.7509547,,,,,space,0.4338,0,16,16,39,1,40,training,zh2x,i,zh2x_i,zh2x_4_izhi.wav,,izhi.jpg,,,,,,,,,,,,,,,,,,,,,,,,,,,,,,,,,
611b750d4bb9b61a0400fd61,2023-06-16_10h27.03.512,phx_ver10,2022.2.5,Win32,58.7509547,,,,,space,0.3838,0,17,17,36,1,37,training,zh2x,i,zh2x_i,zh2x_2_izhi.wav,,izhi.jpg,,,,,,,,,,,,,,,,,,,,,,,,,,,,,,,,,
611b750d4bb9b61a0400fd61,2023-06-16_10h27.03.512,phx_ver10,2022.2.5,Win32,58.7509547,,,,,,,,,,,,,attn_test,,,,zh2x_8_exe.wav,zh2x_8_axa.wav,exe.jpg,LEFT,,f,0.4526,space,1.2072,0,0,0,0,1,,,,,,,,,,,,,,,,,,,,,,
611b750d4bb9b61a0400fd61,2023-06-16_10h27.03.512,phx_ver10,2022.2.5,Win32,58.7509547,,,,,space,0.5406,0,18,18,16,1,17,training,zh2x,e,zh2x_e,zh2x_1_ezhe.wav,,ezhe.jpg,,,,,,,,,,,,,,,,,,,,,,,,,,,,,,,,,
611b750d4bb9b61a0400fd61,2023-06-16_10h27.03.512,phx_ver10,2022.2.5,Win32,58.7509547,,,,,space,0.6136,0,19,19,5,1,6,training,zh2x,a,zh2x_a,zh2x_3_azha.wav,,azha.jpg,,,,,,,,,,,,,,,,,,,,,,,,,,,,,,,,,
611b750d4bb9b61a0400fd61,2023-06-16_10h27.03.512,phx_ver10,2022.2.5,Win32,58.7509547,,,,,space,0.0674,0,20,20,17,1,18,training,zh2x,e,zh2x_e,zh2x_2_ezhe.wav,,ezhe.jpg,,,,,,,,,,,,,,,,,,,,,,,,,,,,,,,,,
611b750d4bb9b61a0400fd61,2023-06-16_10h27.03.512,phx_ver10,2022.2.5,Win32,58.7509547,,,,,space,0.2845,0,21,21,20,1,21,training,zh2x,e,zh2x_e,zh2x_2_ezhe.wav,,ezhe.jpg,,,,,,,,,,,,,,,,,,,,,,,,,,,,,,,,,
611b750d4bb9b61a0400fd61,2023-06-16_10h27.03.512,phx_ver10,2022.2.5,Win32,58.7509547,,,,,space,0.3425,0,22,22,11,1,12,training,zh2x,a,zh2x_a,zh2x_7_axa.wav,,axa.jpg,,,,,,,,,,,,,,,,,,,,,,,,,,,,,,,,,
611b750d4bb9b61a0400fd61,2023-06-16_10h27.03.512,phx_ver10,2022.2.5,Win32,58.7509547,,,,,space,0.084,0,23,23,25,1,26,training,zh2x,e,zh2x_e,zh2x_6_exe.wav,,exe.jpg,,,,,,,,,,,,,,,,,,,,,,,,,,,,,,,,,
611b750d4bb9b61a0400fd61,2023-06-16_10h27.03.512,phx_ver10,2022.2.5,Win32,58.7509547,,,,,,,,,,,,,attn_test,,,,zh2x_8_ixi.wav,zh2x_1_azha.wav,azha.jpg,RIGHT,,f,0.9083,space,1.3526,0,0,0,0,1,,,,,,,,,,,,,,,,,,,,,,
611b750d4bb9b61a0400fd61,2023-06-16_10h27.03.512,phx_ver10,2022.2.5,Win32,58.7509547,,,,,space,0.2337,0,24,24,45,1,46,training,zh2x,i,zh2x_i,zh2x_7_ixi.wav,,ixi.jpg,,,,,,,,,,,,,,,,,,,,,,,,,,,,,,,,,
611b750d4bb9b61a0400fd61,2023-06-16_10h27.03.512,phx_ver10,2022.2.5,Win32,58.7509547,,,,,space,0.1008,0,25,25,44,1,45,training,zh2x,i,zh2x_i,zh2x_7_ixi.wav,,ixi.jpg,,,,,,,,,,,,,,,,,,,,,,,,,,,,,,,,,
611b750d4bb9b61a0400fd61,2023-06-16_10h27.03.512,phx_ver10,2022.2.5,Win32,58.7509547,,,,,space,0.4506,0,26,26,40,1,41,training,zh2x,i,zh2x_i,zh2x_5_ixi.wav,,ixi.jpg,,,,,,,,,,,,,,,,,,,,,,,,,,,,,,,,,
611b750d4bb9b61a0400fd61,2023-06-16_10h27.03.512,phx_ver10,2022.2.5,Win32,58.7509547,,,,,space,0.1674,0,27,27,2,1,3,training,zh2x,a,zh2x_a,zh2x_2_azha.wav,,azha.jpg,,,,,,,,,,,,,,,,,,,,,,,,,,,,,,,,,
611b750d4bb9b61a0400fd61,2023-06-16_10h27.03.512,phx_ver10,2022.2.5,Win32,58.7509547,,,,,space,0.117,0,28,28,29,1,30,training,zh2x,e,zh2x_e,zh2x_7_exe.wav,,exe.jpg,,,,,,,,,,,,,,,,,,,,,,,,,,,,,,,,,
611b750d4bb9b61a0400fd61,2023-06-16_10h27.03.512,phx_ver10,2022.2.5,Win32,58.7509547,,,,,space,0.5508,0,29,29,19,1,20,training,zh2x,e,zh2x_e,zh2x_2_ezhe.wav,,ezhe.jpg,,,,,,,,,,,,,,,,,,,,,,,,,,,,,,,,,
611b750d4bb9b61a0400fd61,2023-06-16_10h27.03.512,phx_ver10,2022.2.5,Win32,58.7509547,,,,,,,,,,,,,attn_test,,,,zh2x_1_izhi.wav,zh2x_8_ixi.wav,ixi.jpg,RIGHT,,f,1.638,space,3.5999,0,0,0,0,1,,,,,,,,,,,,,,,,,,,,,,
611b750d4bb9b61a0400fd61,2023-06-16_10h27.03.512,phx_ver10,2022.2.5,Win32,58.7509547,,,,,space,0.4505,0,30,30,42,1,43,training,zh2x,i,zh2x_i,zh2x_6_ixi.wav,,ixi.jpg,,,,,,,,,,,,,,,,,,,,,,,,,,,,,,,,,
611b750d4bb9b61a0400fd61,2023-06-16_10h27.03.512,phx_ver10,2022.2.5,Win32,58.7509547,,,,,space,0.0515,0,31,31,22,1,23,training,zh2x,e,zh2x_e,zh2x_3_ezhe.wav,,ezhe.jpg,,,,,,,,,,,,,,,,,,,,,,,,,,,,,,,,,
611b750d4bb9b61a0400fd61,2023-06-16_10h27.03.512,phx_ver10,2022.2.5,Win32,58.7509547,,,,,space,0.8165,0,32,32,12,1,13,training,zh2x,a,zh2x_a,zh2x_7_axa.wav,,axa.jpg,,,,,,,,,,,,,,,,,,,,,,,,,,,,,,,,,
611b750d4bb9b61a0400fd61,2023-06-16_10h27.03.512,phx_ver10,2022.2.5,Win32,58.7509547,,,,,space,0.3173,0,33,33,13,1,14,training,zh2x,a,zh2x_a,zh2x_7_axa.wav,,axa.jpg,,,,,,,,,,,,,,,,,,,,,,,,,,,,,,,,,
611b750d4bb9b61a0400fd61,2023-06-16_10h27.03.512,phx_ver10,2022.2.5,Win32,58.7509547,,,,,space,0.4007,0,34,34,4,1,5,training,zh2x,a,zh2x_a,zh2x_2_azha.wav,,azha.jpg,,,,,,,,,,,,,,,,,,,,,,,,,,,,,,,,,
611b750d4bb9b61a0400fd61,2023-06-16_10h27.03.512,phx_ver10,2022.2.5,Win32,58.7509547,,,,,space,0.3147,0,35,35,32,1,33,training,zh2x,i,zh2x_i,zh2x_1_izhi.wav,,izhi.jpg,,,,,,,,,,,,,,,,,,,,,,,,,,,,,,,,,
611b750d4bb9b61a0400fd61,2023-06-16_10h27.03.512,phx_ver10,2022.2.5,Win32,58.7509547,,,,,,,,,,,,,attn_test,,,,zh2x_1_azha.wav,zh2x_8_axa.wav,axa.jpg,RIGHT,,f,0.9917,space,1.5706,0,0,0,0,1,,,,,,,,,,,,,,,,,,,,,,
611b750d4bb9b61a0400fd61,2023-06-16_10h27.03.512,phx_ver10,2022.2.5,Win32,58.7509547,,,,,space,0.1335,0,36,36,41,1,42,training,zh2x,i,zh2x_i,zh2x_6_ixi.wav,,ixi.jpg,,,,,,,,,,,,,,,,,,,,,,,,,,,,,,,,,
611b750d4bb9b61a0400fd61,2023-06-16_10h27.03.512,phx_ver10,2022.2.5,Win32,58.7509547,,,,,space,0.4176,0,37,37,7,1,8,training,zh2x,a,zh2x_a,zh2x_4_azha.wav,,azha.jpg,,,,,,,,,,,,,,,,,,,,,,,,,,,,,,,,,
611b750d4bb9b61a0400fd61,2023-06-16_10h27.03.512,phx_ver10,2022.2.5,Win32,58.7509547,,,,,space,0.3611,0,38,38,21,1,22,training,zh2x,e,zh2x_e,zh2x_3_ezhe.wav,,ezhe.jpg,,,,,,,,,,,,,,,,,,,,,,,,,,,,,,,,,
611b750d4bb9b61a0400fd61,2023-06-16_10h27.03.512,phx_ver10,2022.2.5,Win32,58.7509547,,,,,space,0.2917,0,39,39,30,1,31,training,zh2x,e,zh2x_e,zh2x_7_exe.wav,,exe.jpg,,,,,,,,,,,,,,,,,,,,,,,,,,,,,,,,,
611b750d4bb9b61a0400fd61,2023-06-16_10h27.03.512,phx_ver10,2022.2.5,Win32,58.7509547,,,,,space,0.4001,0,40,40,28,1,29,training,zh2x,e,zh2x_e,zh2x_7_exe.wav,,exe.jpg,,,,,,,,,,,,,,,,,,,,,,,,,,,,,,,,,
611b750d4bb9b61a0400fd61,2023-06-16_10h27.03.512,phx_ver10,2022.2.5,Win32,58.7509547,,,,,space,0.091,0,41,41,37,1,38,training,zh2x,i,zh2x_i,zh2x_3_izhi.wav,,izhi.jpg,,,,,,,,,,,,,,,,,,,,,,,,,,,,,,,,,
611b750d4bb9b61a0400fd61,2023-06-16_10h27.03.512,phx_ver10,2022.2.5,Win32,58.7509547,,,,,,,,,,,,,attn_test,,,,zh2x_8_exe.wav,zh2x_1_izhi.wav,izhi.jpg,RIGHT,,j,0.1172,space,0.6839,0,0,0,0,1,,,,,,,,,,,,,,,,,,,,,,
611b750d4bb9b61a0400fd61,2023-06-16_10h27.03.512,phx_ver10,2022.2.5,Win32,58.7509547,,,,,space,0.0281,0,42,42,14,1,15,training,zh2x,a,zh2x_a,zh2x_7_axa.wav,,axa.jpg,,,,,,,,,,,,,,,,,,,,,,,,,,,,,,,,,
611b750d4bb9b61a0400fd61,2023-06-16_10h27.03.512,phx_ver10,2022.2.5,Win32,58.7509547,,,,,space,0.7039,0,43,43,35,1,36,training,zh2x,i,zh2x_i,zh2x_2_izhi.wav,,izhi.jpg,,,,,,,,,,,,,,,,,,,,,,,,,,,,,,,,,
611b750d4bb9b61a0400fd61,2023-06-16_10h27.03.512,phx_ver10,2022.2.5,Win32,58.7509547,,,,,space,0.3843,0,44,44,0,1,1,training,zh2x,a,zh2x_a,zh2x_1_azha.wav,,azha.jpg,,,,,,,,,,,,,,,,,,,,,,,,,,,,,,,,,
611b750d4bb9b61a0400fd61,2023-06-16_10h27.03.512,phx_ver10,2022.2.5,Win32,58.7509547,,,,,space,0.1837,0,45,45,23,1,24,training,zh2x,e,zh2x_e,zh2x_4_ezhe.wav,,ezhe.jpg,,,,,,,,,,,,,,,,,,,,,,,,,,,,,,,,,
611b750d4bb9b61a0400fd61,2023-06-16_10h27.03.512,phx_ver10,2022.2.5,Win32,58.7509547,,,,,space,0.4002,0,46,46,34,1,35,training,zh2x,i,zh2x_i,zh2x_2_izhi.wav,,izhi.jpg,,,,,,,,,,,,,,,,,,,,,,,,,,,,,,,,,
611b750d4bb9b61a0400fd61,2023-06-16_10h27.03.512,phx_ver10,2022.2.5,Win32,58.7509547,,,,,space,0.2505,0,47,47,8,1,9,training,zh2x,a,zh2x_a,zh2x_5_axa.wav,,axa.jpg,,,,,,,,,,,,,,,,,,,,,,,,,,,,,,,,,
611b750d4bb9b61a0400fd61,2023-06-16_10h27.03.512,phx_ver10,2022.2.5,Win32,58.7509547,,,,,,,,,,,,,attn_test,,,,zh2x_1_izhi.wav,zh2x_8_exe.wav,izhi.jpg,LEFT,,f,0.3015,space,0.6838,,,,,,,,,,,,,,,,,,,,,,,,,,,
611b750d4bb9b61a0400fd61,2023-06-16_10h27.03.512,phx_ver10,2022.2.5,Win32,58.7509547,,,,,,,,,,,,,,,,,,,,,,,,,,,,,,,space,4.8492,,,,,,,,,,,,,,,,,,,,
611b750d4bb9b61a0400fd61,2023-06-16_10h27.03.512,phx_ver10,2022.2.5,Win32,58.7509547,,,,,,,,,,,,,,,,,,,,,,,,,,,,,,,,,space,9.7149,,,,,,,,,,,,,,,,,,
611b750d4bb9b61a0400fd61,2023-06-16_10h27.03.512,phx_ver10,2022.2.5,Win32,58.7509547,,,,,,,,,,,,5,testing_pre,,,,ihi.wav,ifi.wav,,FALSE,,,,,,,,,,,,,,,f,4.6157,space,6.0807,0,0,0,4,1,,,,,,,,,
611b750d4bb9b61a0400fd61,2023-06-16_10h27.03.512,phx_ver10,2022.2.5,Win32,58.7509547,,,,,,,,,,,,4,testing_pre,,,,eihei.wav,eihei.wav,,TRUE,,,,,,,,,,,,,,,f,6.0064,space,6.6158,0,1,1,3,1,,,,,,,,,
611b750d4bb9b61a0400fd61,2023-06-16_10h27.03.512,phx_ver10,2022.2.5,Win32,58.7509547,,,,,,,,,,,,3,testing_pre,,,,afa.wav,aha.wav,,FALSE,,,,,,,,,,,,,,,f,0.8725,space,1.1915,0,2,2,2,1,,,,,,,,,
611b750d4bb9b61a0400fd61,2023-06-16_10h27.03.512,phx_ver10,2022.2.5,Win32,58.7509547,,,,,,,,,,,,2,testing_pre,,,,auhau.wav,aufau.wav,,FALSE,,,,,,,,,,,,,,,j,1.0377,space,1.4003,0,3,3,1,1,,,,,,,,,
611b750d4bb9b61a0400fd61,2023-06-16_10h27.03.512,phx_ver10,2022.2.5,Win32,58.7509547,,,,,,,,,,,,1,testing_pre,,,,ifi.wav,ifi.wav,,TRUE,,,,,,,,,,,,,,,j,0.2344,space,0.5586,0,4,4,0,1,,,,,,,,,
611b750d4bb9b61a0400fd61,2023-06-16_10h27.03.512,phx_ver10,2022.2.5,Win32,58.7509547,,,,,,,,,,,,,,,,,,,,,,,,,,,,,,,,,,,,,,,,,,,,space,1.0654,,,,,,,
611b750d4bb9b61a0400fd61,2023-06-16_10h27.03.512,phx_ver10,2022.2.5,Win32,58.7509547,,,,,,,,,,,,129,testing_3,sh2j,au,sh2j_au,sh2j_1_aushau.wav,sh2j_1_aushau.wav,,TRUE,FALSE,,,,,,,,,,,,,,f,7.4158,space,7.8323,,,,,,,,0,0,0,128,1,,
611b750d4bb9b61a0400fd61,2023-06-16_10h27.03.512,phx_ver10,2022.2.5,Win32,58.7509547,,,,,,,,,,,,27,testing_3,zh2sh,a,zh2sh_a,zh2sh_1_azha.wav,zh2sh_8_asha.wav,,FALSE,FALSE,,,,,,,,,,,,,,j,3.9666,space,4.3164,,,,,,,,0,1,1,26,1,,
611b750d4bb9b61a0400fd61,2023-06-16_10h27.03.512,phx_ver10,2022.2.5,Win32,58.7509547,,,,,,,,,,,,89,testing_3,j2x,ei,j2x_ei,j2x_1_eijei.wav,j2x_1_eijei.wav,,TRUE,FALSE,,,,,,,,,,,,,,f,1.6836,space,1.9712,,,,,,,,0,2,2,88,1,,
611b750d4bb9b61a0400fd61,2023-06-16_10h27.03.512,phx_ver10,2022.2.5,Win32,58.7509547,,,,,,,,,,,,72,testing_3,zh2j,i,zh2j_i,zh2j_8_iji.wav,zh2j_1_izhi.wav,,FALSE,FALSE,,,,,,,,,,,,,,f,0.517,space,0.9001,,,,,,,,0,3,3,71,1,,
611b750d4bb9b61a0400fd61,2023-06-16_10h27.03.512,phx_ver10,2022.2.5,Win32,58.7509547,,,,,,,,,,,,25,testing_3,zh2sh,a,zh2sh_a,zh2sh_1_azha.wav,zh2sh_1_azha.wav,,TRUE,FALSE,,,,,,,,,,,,,,f,4.0609,space,4.4121,,,,,,,,0,4,4,24,1,,
611b750d4bb9b61a0400fd61,2023-06-16_10h27.03.512,phx_ver10,2022.2.5,Win32,58.7509547,,,,,,,,,,,,83,testing_3,j2x,au,j2x_au,j2x_1_aujau.wav,j2x_8_auxau.wav,,FALSE,FALSE,,,,,,,,,,,,,,f,1.9334,space,2.2009,,,,,,,,0,5,5,82,1,,
611b750d4bb9b61a0400fd61,2023-06-16_10h27.03.512,phx_ver10,2022.2.5,Win32,58.7509547,,,,,,,,,,,,13,testing_2,zh2x,ai,zh2x_ai,zh2x_1_aizhai.wav,zh2x_1_aizhai.wav,,TRUE,FALSE,,,,,,,,,,,,,,f,0.4811,space,0.7986,,,,,,,,0,6,6,12,1,,
611b750d4bb9b61a0400fd61,2023-06-16_10h27.03.512,phx_ver10,2022.2.5,Win32,58.7509547,,,,,,,,,,,,144,testing_3,sh2j,i,sh2j_i,sh2j_8_iji.wav,sh2j_1_ishi.wav,,FALSE,FALSE,,,,,,,,,,,,,,j,0.833,space,1.1993,,,,,,,,0,7,7,143,1,,
611b750d4bb9b61a0400fd61,2023-06-16_10h27.03.512,phx_ver10,2022.2.5,Win32,58.7509547,,,,,,,,,,,,35,testing_3,zh2sh,au,zh2sh_au,zh2sh_1_auzhau.wav,zh2sh_8_aushau.wav,,FALSE,FALSE,,,,,,,,,,,,,,j,0.7671,space,1.0838,,,,,,,,0,8,8,34,1,,
611b750d4bb9b61a0400fd61,2023-06-16_10h27.03.512,phx_ver10,2022.2.5,Win32,58.7509547,,,,,,,,,,,,142,testing_3,sh2j,i,sh2j_i,sh2j_8_iji.wav,sh2j_8_iji.wav,,TRUE,FALSE,,,,,,,,,,,,,,f,0.2954,space,0.5862,,,,,,,,0,9,9,141,1,,
611b750d4bb9b61a0400fd61,2023-06-16_10h27.03.512,phx_ver10,2022.2.5,Win32,58.7509547,,,,,,,,,,,,75,testing_3,j2x,a,j2x_a,j2x_1_aja.wav,j2x_8_axa.wav,,FALSE,FALSE,,,,,,,,,,,,,,j,0.2507,space,0.5677,,,,,,,,0,10,10,74,1,,
611b750d4bb9b61a0400fd61,2023-06-16_10h27.03.512,phx_ver10,2022.2.5,Win32,58.7509547,,,,,,,,,,,,135,testing_3,sh2j,e,sh2j_e,sh2j_1_eshe.wav,sh2j_8_eje.wav,,FALSE,FALSE,,,,,,,,,,,,,,f,0.8338,space,1.5503,,,,,,,,0,11,11,134,1,,
611b750d4bb9b61a0400fd61,2023-06-16_10h27.03.512,phx_ver10,2022.2.5,Win32,58.7509547,,,,,,,,,,,,63,testing_3,zh2j,e,zh2j_e,zh2j_1_ezhe.wav,zh2j_8_eje.wav,,FALSE,FALSE,,,,,,,,,,,,,,f,0.4671,space,0.7673,,,,,,,,0,12,12,62,1,,
611b750d4bb9b61a0400fd61,2023-06-16_10h27.03.512,phx_ver10,2022.2.5,Win32,58.7509547,,,,,,,,,,,,81,testing_3,j2x,au,j2x_au,j2x_1_aujau.wav,j2x_1_aujau.wav,,TRUE,FALSE,,,,,,,,,,,,,,f,0.2513,space,0.5498,,,,,,,,0,13,13,80,1,,
611b750d4bb9b61a0400fd61,2023-06-16_10h27.03.512,phx_ver10,2022.2.5,Win32,58.7509547,,,,,,,,,,,,12,testing_1,zh2x,i,zh2x_i,zh2x_8_ixi.wav,zh2x_1_izhi.wav,,FALSE,TRUE,,,,,,,,,,,,,,j,0.434,space,0.7836,,,,,,,,0,14,14,11,1,,
611b750d4bb9b61a0400fd61,2023-06-16_10h27.03.512,phx_ver10,2022.2.5,Win32,58.7509547,,,,,,,,,,,,49,testing_3,zh2j,a,zh2j_a,zh2j_1_azha.wav,zh2j_1_azha.wav,,TRUE,FALSE,,,,,,,,,,,,,,f,0.2675,space,0.534,,,,,,,,0,15,15,48,1,,
611b750d4bb9b61a0400fd61,2023-06-16_10h27.03.512,phx_ver10,2022.2.5,Win32,58.7509547,,,,,,,,,,,,87,testing_3,j2x,e,j2x_e,j2x_1_eje.wav,j2x_8_exe.wav,,FALSE,FALSE,,,,,,,,,,,,,,j,0.2672,space,0.5839,,,,,,,,0,16,16,86,1,,
611b750d4bb9b61a0400fd61,2023-06-16_10h27.03.512,phx_ver10,2022.2.5,Win32,58.7509547,,,,,,,,,,,,98,testing_3,sh2x,a,sh2x_a,sh2x_8_axa.wav,sh2x_8_axa.wav,,TRUE,FALSE,,,,,,,,,,,,,,f,0.0841,space,0.3841,,,,,,,,0,17,17,97,1,,
611b750d4bb9b61a0400fd61,2023-06-16_10h27.03.512,phx_ver10,2022.2.5,Win32,58.7509547,,,,,,,,,,,,8,testing_1,zh2x,e,zh2x_e,zh2x_8_exe.wav,zh2x_1_ezhe.wav,,FALSE,TRUE,,,,,,,,,,,,,,j,0.1841,space,0.4879,,,,,,,,0,18,18,7,1,,
611b750d4bb9b61a0400fd61,2023-06-16_10h27.03.512,phx_ver10,2022.2.5,Win32,58.7509547,,,,,,,,,,,,20,testing_2,zh2x,au,zh2x_au,zh2x_8_auxau.wav,zh2x_1_auzhau.wav,,FALSE,FALSE,,,,,,,,,,,,,,j,0.2339,space,0.5171,,,,,,,,0,19,19,19,1,,
611b750d4bb9b61a0400fd61,2023-06-16_10h27.03.512,phx_ver10,2022.2.5,Win32,58.7509547,,,,,,,,,,,,53,testing_3,zh2j,ai,zh2j_ai,zh2j_1_aizhai.wav,zh2j_1_aizhai.wav,,TRUE,FALSE,,,,,,,,,,,,,,f,0.4004,space,0.6671,,,,,,,,0,20,20,52,1,,
611b750d4bb9b61a0400fd61,2023-06-16_10h27.03.512,phx_ver10,2022.2.5,Win32,58.7509547,,,,,,,,,,,,23,testing_2,zh2x,ei,zh2x_ei,zh2x_1_eizhei.wav,zh2x_8_eixei.wav,,FALSE,FALSE,,,,,,,,,,,,,,j,0.1339,space,0.4339,,,,,,,,0,21,21,22,1,,
611b750d4bb9b61a0400fd61,2023-06-16_10h27.03.512,phx_ver10,2022.2.5,Win32,58.7509547,,,,,,,,,,,,86,testing_3,j2x,e,j2x_e,j2x_8_exe.wav,j2x_8_exe.wav,,TRUE,FALSE,,,,,,,,,,,,,,f,0.2507,space,0.5171,,,,,,,,0,22,22,85,1,,
611b750d4bb9b61a0400fd61,2023-06-16_10h27.03.512,phx_ver10,2022.2.5,Win32,58.7509547,,,,,,,,,,,,10,testing_1,zh2x,i,zh2x_i,zh2x_8_ixi.wav,zh2x_8_ixi_copy.wav,,TRUE,TRUE,,,,,,,,,,,,,,f,0.1171,space,0.3914,,,,,,,,0,23,23,9,1,,
611b750d4bb9b61a0400fd61,2023-06-16_10h27.03.512,phx_ver10,2022.2.5,Win32,58.7509547,,,,,,,,,,,,93,testing_3,j2x,i,j2x_i,j2x_1_iji.wav,j2x_1_iji.wav,,TRUE,FALSE,,,,,,,,,,,,,,f,0.0507,space,0.3175,,,,,,,,0,24,24,92,1,,
611b750d4bb9b61a0400fd61,2023-06-16_10h27.03.512,phx_ver10,2022.2.5,Win32,58.7509547,,,,,,,,,,,,1,testing_1,zh2x,a,zh2x_a,zh2x_1_azha.wav,zh2x_1_azha_copy.wav,,TRUE,TRUE,,,,,,,,,,,,,,f,0.2172,space,0.4672,,,,,,,,0,25,25,0,1,,
611b750d4bb9b61a0400fd61,2023-06-16_10h27.03.512,phx_ver10,2022.2.5,Win32,58.7509547,,,,,,,,,,,,45,testing_3,zh2sh,i,zh2sh_i,zh2sh_1_izhi.wav,zh2sh_1_izhi.wav,,TRUE,FALSE,,,,,,,,,,,,,,f,0.1173,space,0.384,,,,,,,,0,26,26,44,1,,
611b750d4bb9b61a0400fd61,2023-06-16_10h27.03.512,phx_ver10,2022.2.5,Win32,58.7509547,,,,,,,,,,,,14,testing_2,zh2x,ai,zh2x_ai,zh2x_8_aixai.wav,zh2x_8_aixai.wav,,TRUE,FALSE,,,,,,,,,,,,,,f,0.0007,space,0.267,,,,,,,,0,27,27,13,1,,
611b750d4bb9b61a0400fd61,2023-06-16_10h27.03.512,phx_ver10,2022.2.5,Win32,58.7509547,,,,,,,,,,,,119,testing_3,sh2x,i,sh2x_i,sh2x_1_ishi.wav,sh2x_8_ixi.wav,,FALSE,FALSE,,,,,,,,,,,,,,j,0.2509,space,0.5233,,,,,,,,0,28,28,118,1,,
611b750d4bb9b61a0400fd61,2023-06-16_10h27.03.512,phx_ver10,2022.2.5,Win32,58.7509547,,,,,,,,,,,,57,testing_3,zh2j,au,zh2j_au,zh2j_1_auzhau.wav,zh2j_1_auzhau.wav,,TRUE,FALSE,,,,,,,,,,,,,,f,0.267,space,0.5506,,,,,,,,0,29,29,56,1,,
611b750d4bb9b61a0400fd61,2023-06-16_10h27.03.512,phx_ver10,2022.2.5,Win32,58.7509547,,,,,,,,,,,,43,testing_3,zh2sh,ei,zh2sh_ei,zh2sh_1_eizhei.wav,zh2sh_8_eishei.wav,,FALSE,FALSE,,,,,,,,,,,,,,j,0.1838,space,0.4506,,,,,,,,0,30,30,42,1,,
611b750d4bb9b61a0400fd61,2023-06-16_10h27.03.512,phx_ver10,2022.2.5,Win32,58.7509547,,,,,,,,,,,,132,testing_3,sh2j,au,sh2j_au,sh2j_8_aujau.wav,sh2j_1_aushau.wav,,FALSE,FALSE,,,,,,,,,,,,,,j,0.1843,space,0.4511,,,,,,,,0,31,31,131,1,,
611b750d4bb9b61a0400fd61,2023-06-16_10h27.03.512,phx_ver10,2022.2.5,Win32,58.7509547,,,,,,,,,,,,6,testing_1,zh2x,e,zh2x_e,zh2x_8_exe.wav,zh2x_8_exe_copy.wav,,TRUE,TRUE,,,,,,,,,,,,,,f,0.8834,space,1.2008,,,,,,,,0,32,32,5,1,,
611b750d4bb9b61a0400fd61,2023-06-16_10h27.03.512,phx_ver10,2022.2.5,Win32,58.7509547,,,,,,,,,,,,47,testing_3,zh2sh,i,zh2sh_i,zh2sh_1_izhi.wav,zh2sh_8_ishi.wav,,FALSE,FALSE,,,,,,,,,,,,,,j,1.7672,space,2.0672,,,,,,,,0,33,33,46,1,,
611b750d4bb9b61a0400fd61,2023-06-16_10h27.03.512,phx_ver10,2022.2.5,Win32,58.7509547,,,,,,,,,,,,105,testing_3,sh2x,au,sh2x_au,sh2x_1_aushau.wav,sh2x_1_aushau.wav,,TRUE,FALSE,,,,,,,,,,,,,,f,0.2004,space,0.4837,,,,,,,,0,34,34,104,1,,
611b750d4bb9b61a0400fd61,2023-06-16_10h27.03.512,phx_ver10,2022.2.5,Win32,58.7509547,,,,,,,,,,,,101,testing_3,sh2x,ai,sh2x_ai,sh2x_1_aishai.wav,sh2x_1_aishai.wav,,TRUE,FALSE,,,,,,,,,,,,,,f,0.0673,space,0.3673,,,,,,,,0,35,35,100,1,,
611b750d4bb9b61a0400fd61,2023-06-16_10h27.03.512,phx_ver10,2022.2.5,Win32,58.7509547,,,,,,,,,,,,71,testing_3,zh2j,i,zh2j_i,zh2j_1_izhi.wav,zh2j_8_iji.wav,,FALSE,FALSE,,,,,,,,,,,,,,j,0.3011,space,0.5679,,,,,,,,0,36,36,70,1,,
611b750d4bb9b61a0400fd61,2023-06-16_10h27.03.512,phx_ver10,2022.2.5,Win32,58.7509547,,,,,,,,,,,,31,testing_3,zh2sh,ai,zh2sh_ai,zh2sh_1_aizhai.wav,zh2sh_8_aishai.wav,,FALSE,FALSE,,,,,,,,,,,,,,j,0.2005,space,0.5003,,,,,,,,0,37,37,30,1,,
611b750d4bb9b61a0400fd61,2023-06-16_10h27.03.512,phx_ver10,2022.2.5,Win32,58.7509547,,,,,,,,,,,,120,testing_3,sh2x,i,sh2x_i,sh2x_8_ixi.wav,sh2x_1_ishi.wav,,FALSE,FALSE,,,,,,,,,,,,,,f,0.5519,space,0.8322,,,,,,,,0,38,38,119,1,,
611b750d4bb9b61a0400fd61,2023-06-16_10h27.03.512,phx_ver10,2022.2.5,Win32,58.7509547,,,,,,,,,,,,54,testing_3,zh2j,ai,zh2j_ai,zh2j_8_aijai.wav,zh2j_8_aijai.wav,,TRUE,FALSE,,,,,,,,,,,,,,f,0.0008,space,0.2821,,,,,,,,0,39,39,53,1,,
611b750d4bb9b61a0400fd61,2023-06-16_10h27.03.512,phx_ver10,2022.2.5,Win32,58.7509547,,,,,,,,,,,,51,testing_3,zh2j,a,zh2j_a,zh2j_1_azha.wav,zh2j_8_aja.wav,,FALSE,FALSE,,,,,,,,,,,,,,f,0.0673,space,0.3341,,,,,,,,0,40,40,50,1,,
611b750d4bb9b61a0400fd61,2023-06-16_10h27.03.512,phx_ver10,2022.2.5,Win32,58.7509547,,,,,,,,,,,,76,testing_3,j2x,a,j2x_a,j2x_8_axa.wav,j2x_1_aja.wav,,FALSE,FALSE,,,,,,,,,,,,,,j,0.7006,space,0.9507,,,,,,,,0,41,41,75,1,,
611b750d4bb9b61a0400fd61,2023-06-16_10h27.03.512,phx_ver10,2022.2.5,Win32,58.7509547,,,,,,,,,,,,7,testing_1,zh2x,e,zh2x_e,zh2x_1_ezhe.wav,zh2x_8_exe.wav,,FALSE,TRUE,,,,,,,,,,,,,,f,2.5337,space,2.8834,,,,,,,,0,42,42,6,1,,
611b750d4bb9b61a0400fd61,2023-06-16_10h27.03.512,phx_ver10,2022.2.5,Win32,58.7509547,,,,,,,,,,,,70,testing_3,zh2j,i,zh2j_i,zh2j_8_iji.wav,zh2j_8_iji.wav,,TRUE,FALSE,,,,,,,,,,,,,,f,0.1843,space,0.4764,,,,,,,,0,43,43,69,1,,
611b750d4bb9b61a0400fd61,2023-06-16_10h27.03.512,phx_ver10,2022.2.5,Win32,58.7509547,,,,,,,,,,,,116,testing_3,sh2x,ei,sh2x_ei,sh2x_8_eixei.wav,sh2x_1_eishei.wav,,FALSE,FALSE,,,,,,,,,,,,,,f,0.534,space,0.8507,,,,,,,,0,44,44,115,1,,
611b750d4bb9b61a0400fd61,2023-06-16_10h27.03.512,phx_ver10,2022.2.5,Win32,58.7509547,,,,,,,,,,,,42,testing_3,zh2sh,ei,zh2sh_ei,zh2sh_8_eishei.wav,zh2sh_8_eishei.wav,,TRUE,FALSE,,,,,,,,,,,,,,f,0.1666,space,0.5204,,,,,,,,0,45,45,41,1,,
611b750d4bb9b61a0400fd61,2023-06-16_10h27.03.512,phx_ver10,2022.2.5,Win32,58.7509547,,,,,,,,,,,,17,testing_2,zh2x,au,zh2x_au,zh2x_1_auzhau.wav,zh2x_1_auzhau.wav,,TRUE,FALSE,,,,,,,,,,,,,,f,0.3846,space,0.7173,,,,,,,,0,46,46,16,1,,
611b750d4bb9b61a0400fd61,2023-06-16_10h27.03.512,phx_ver10,2022.2.5,Win32,58.7509547,,,,,,,,,,,,103,testing_3,sh2x,ai,sh2x_ai,sh2x_1_aishai.wav,sh2x_8_aixai.wav,,FALSE,FALSE,,,,,,,,,,,,,,f,0.5006,space,0.8005,,,,,,,,0,47,47,102,1,,
611b750d4bb9b61a0400fd61,2023-06-16_10h27.03.512,phx_ver10,2022.2.5,Win32,58.7509547,,,,,,,,,,,,61,testing_3,zh2j,e,zh2j_e,zh2j_1_ezhe.wav,zh2j_1_ezhe.wav,,TRUE,FALSE,,,,,,,,,,,,,,f,0.2171,space,0.3836,,,,,,,,0,48,48,60,1,,
611b750d4bb9b61a0400fd61,2023-06-16_10h27.03.512,phx_ver10,2022.2.5,Win32,58.7509547,,,,,,,,,,,,82,testing_3,j2x,au,j2x_au,j2x_8_auxau.wav,j2x_8_auxau.wav,,TRUE,FALSE,,,,,,,,,,,,,,f,0.1148,space,0.2804,,,,,,,,0,49,49,81,1,,
611b750d4bb9b61a0400fd61,2023-06-16_10h27.03.512,phx_ver10,2022.2.5,Win32,58.7509547,,,,,,,,,,,,4,testing_1,zh2x,a,zh2x_a,zh2x_8_axa.wav,zh2x_1_azha.wav,,FALSE,TRUE,,,,,,,,,,,,,,j,0.4173,space,0.5155,,,,,,,,0,50,50,3,1,,
611b750d4bb9b61a0400fd61,2023-06-16_10h27.03.512,phx_ver10,2022.2.5,Win32,58.7509547,,,,,,,,,,,,36,testing_3,zh2sh,au,zh2sh_au,zh2sh_8_aushau.wav,zh2sh_1_auzhau.wav,,FALSE,FALSE,,,,,,,,,,,,,,j,0.2006,space,0.3005,,,,,,,,0,51,51,35,1,,
611b750d4bb9b61a0400fd61,2023-06-16_10h27.03.512,phx_ver10,2022.2.5,Win32,58.7509547,,,,,,,,,,,,50,testing_3,zh2j,a,zh2j_a,zh2j_8_aja.wav,zh2j_8_aja.wav,,TRUE,FALSE,,,,,,,,,,,,,,f,0.3343,space,0.4343,,,,,,,,0,52,52,49,1,,
611b750d4bb9b61a0400fd61,2023-06-16_10h27.03.512,phx_ver10,2022.2.5,Win32,58.7509547,,,,,,,,,,,,52,testing_3,zh2j,a,zh2j_a,zh2j_8_aja.wav,zh2j_1_azha.wav,,FALSE,FALSE,,,,,,,,,,,,,,f,0.0507,space,0.3005,,,,,,,,0,53,53,51,1,,
611b750d4bb9b61a0400fd61,2023-06-16_10h27.03.512,phx_ver10,2022.2.5,Win32,58.7509547,,,,,,,,,,,,22,testing_2,zh2x,ei,zh2x_ei,zh2x_8_eixei.wav,zh2x_8_eixei.wav,,TRUE,FALSE,,,,,,,,,,,,,,f,0.3836,space,0.6839,,,,,,,,0,54,54,21,1,,
611b750d4bb9b61a0400fd61,2023-06-16_10h27.03.512,phx_ver10,2022.2.5,Win32,58.7509547,,,,,,,,,,,,118,testing_3,sh2x,i,sh2x_i,sh2x_8_ixi.wav,sh2x_8_ixi.wav,,TRUE,FALSE,,,,,,,,,,,,,,f,0.0009,space,0.3001,,,,,,,,0,55,55,117,1,,
611b750d4bb9b61a0400fd61,2023-06-16_10h27.03.512,phx_ver10,2022.2.5,Win32,58.7509547,,,,,,,,,,,,102,testing_3,sh2x,ai,sh2x_ai,sh2x_8_aixai.wav,sh2x_8_aixai.wav,,TRUE,FALSE,,,,,,,,,,,,,,f,0.4341,space,0.6841,,,,,,,,0,56,56,101,1,,
611b750d4bb9b61a0400fd61,2023-06-16_10h27.03.512,phx_ver10,2022.2.5,Win32,58.7509547,,,,,,,,,,,,55,testing_3,zh2j,ai,zh2j_ai,zh2j_1_aizhai.wav,zh2j_8_aijai.wav,,FALSE,FALSE,,,,,,,,,,,,,,f,0.0838,space,0.4006,,,,,,,,0,57,57,54,1,,
611b750d4bb9b61a0400fd61,2023-06-16_10h27.03.512,phx_ver10,2022.2.5,Win32,58.7509547,,,,,,,,,,,,125,testing_3,sh2j,ai,sh2j_ai,sh2j_1_aishai.wav,sh2j_1_aishai.wav,,TRUE,FALSE,,,,,,,,,,,,,,f,0.0098,space,0.3165,,,,,,,,0,58,58,124,1,,
611b750d4bb9b61a0400fd61,2023-06-16_10h27.03.512,phx_ver10,2022.2.5,Win32,58.7509547,,,,,,,,,,,,60,testing_3,zh2j,au,zh2j_au,zh2j_8_aujau.wav,zh2j_1_auzhau.wav,,FALSE,FALSE,,,,,,,,,,,,,,f,0.0508,space,0.4006,,,,,,,,0,59,59,59,1,,
611b750d4bb9b61a0400fd61,2023-06-16_10h27.03.512,phx_ver10,2022.2.5,Win32,58.7509547,,,,,,,,,,,,136,testing_3,sh2j,e,sh2j_e,sh2j_8_eje.wav,sh2j_1_eshe.wav,,FALSE,FALSE,,,,,,,,,,,,,,j,0.6006,space,0.7002,,,,,,,,0,60,60,135,1,,
611b750d4bb9b61a0400fd61,2023-06-16_10h27.03.512,phx_ver10,2022.2.5,Win32,58.7509547,,,,,,,,,,,,80,testing_3,j2x,ai,j2x_ai,j2x_8_aixai.wav,j2x_1_aijai.wav,,FALSE,FALSE,,,,,,,,,,,,,,j,0.2172,space,0.3839,,,,,,,,0,61,61,79,1,,
611b750d4bb9b61a0400fd61,2023-06-16_10h27.03.512,phx_ver10,2022.2.5,Win32,58.7509547,,,,,,,,,,,,133,testing_3,sh2j,e,sh2j_e,sh2j_1_eshe.wav,sh2j_1_eshe.wav,,TRUE,FALSE,,,,,,,,,,,,,,f,0.3004,space,0.5171,,,,,,,,0,62,62,132,1,,
611b750d4bb9b61a0400fd61,2023-06-16_10h27.03.512,phx_ver10,2022.2.5,Win32,58.7509547,,,,,,,,,,,,99,testing_3,sh2x,a,sh2x_a,sh2x_1_asha.wav,sh2x_8_axa.wav,,FALSE,FALSE,,,,,,,,,,,,,,f,0.3176,space,0.6005,,,,,,,,0,63,63,98,1,,
611b750d4bb9b61a0400fd61,2023-06-16_10h27.03.512,phx_ver10,2022.2.5,Win32,58.7509547,,,,,,,,,,,,64,testing_3,zh2j,e,zh2j_e,zh2j_8_eje.wav,zh2j_1_ezhe.wav,,FALSE,FALSE,,,,,,,,,,,,,,f,0.284,space,0.4839,,,,,,,,0,64,64,63,1,,
611b750d4bb9b61a0400fd61,2023-06-16_10h27.03.512,phx_ver10,2022.2.5,Win32,58.7509547,,,,,,,,,,,,34,testing_3,zh2sh,au,zh2sh_au,zh2sh_8_aushau.wav,zh2sh_8_aushau.wav,,TRUE,FALSE,,,,,,,,,,,,,,f,0.2672,space,0.5509,,,,,,,,0,65,65,33,1,,
611b750d4bb9b61a0400fd61,2023-06-16_10h27.03.512,phx_ver10,2022.2.5,Win32,58.7509547,,,,,,,,,,,,130,testing_3,sh2j,au,sh2j_au,sh2j_8_aujau.wav,sh2j_8_aujau.wav,,TRUE,FALSE,,,,,,,,,,,,,,f,0.3504,space,0.6343,,,,,,,,0,66,66,129,1,,
611b750d4bb9b61a0400fd61,2023-06-16_10h27.03.512,phx_ver10,2022.2.5,Win32,58.7509547,,,,,,,,,,,,24,testing_2,zh2x,ei,zh2x_ei,zh2x_8_eixei.wav,zh2x_1_eizhei.wav,,FALSE,FALSE,,,,,,,,,,,,,,j,0.5836,space,0.8682,,,,,,,,0,67,67,23,1,,
611b750d4bb9b61a0400fd61,2023-06-16_10h27.03.512,phx_ver10,2022.2.5,Win32,58.7509547,,,,,,,,,,,,3,testing_1,zh2x,a,zh2x_a,zh2x_1_azha.wav,zh2x_8_axa.wav,,FALSE,TRUE,,,,,,,,,,,,,,j,0.4873,space,0.7004,,,,,,,,0,68,68,2,1,,
611b750d4bb9b61a0400fd61,2023-06-16_10h27.03.512,phx_ver10,2022.2.5,Win32,58.7509547,,,,,,,,,,,,95,testing_3,j2x,i,j2x_i,j2x_1_iji.wav,j2x_8_ixi.wav,,FALSE,FALSE,,,,,,,,,,,,,,f,0.2508,space,0.5167,,,,,,,,0,69,69,94,1,,
611b750d4bb9b61a0400fd61,2023-06-16_10h27.03.512,phx_ver10,2022.2.5,Win32,58.7509547,,,,,,,,,,,,85,testing_3,j2x,e,j2x_e,j2x_1_eje.wav,j2x_1_eje.wav,,TRUE,FALSE,,,,,,,,,,,,,,f,0.2339,space,0.5005,,,,,,,,0,70,70,84,1,,
611b750d4bb9b61a0400fd61,2023-06-16_10h27.03.512,phx_ver10,2022.2.5,Win32,58.7509547,,,,,,,,,,,,33,testing_3,zh2sh,au,zh2sh_au,zh2sh_1_auzhau.wav,zh2sh_1_auzhau.wav,,TRUE,FALSE,,,,,,,,,,,,,,f,0.085,space,0.4003,,,,,,,,0,71,71,32,1,,
611b750d4bb9b61a0400fd61,2023-06-16_10h27.03.512,phx_ver10,2022.2.5,Win32,58.7509547,,,,,,,,,,,,19,testing_2,zh2x,au,zh2x_au,zh2x_1_auzhau.wav,zh2x_8_auxau.wav,,FALSE,FALSE,,,,,,,,,,,,,,j,0.2005,space,0.4672,,,,,,,,0,72,72,18,1,,
611b750d4bb9b61a0400fd61,2023-06-16_10h27.03.512,phx_ver10,2022.2.5,Win32,58.7509547,,,,,,,,,,,,48,testing_3,zh2sh,i,zh2sh_i,zh2sh_8_ishi.wav,zh2sh_1_izhi.wav,,FALSE,FALSE,,,,,,,,,,,,,,f,0.1004,space,0.3677,,,,,,,,0,73,73,47,1,,
611b750d4bb9b61a0400fd61,2023-06-16_10h27.03.512,phx_ver10,2022.2.5,Win32,58.7509547,,,,,,,,,,,,127,testing_3,sh2j,ai,sh2j_ai,sh2j_1_aishai.wav,sh2j_8_aijai.wav,,FALSE,FALSE,,,,,,,,,,,,,,j,0.1673,space,0.4173,,,,,,,,0,74,74,126,1,,
611b750d4bb9b61a0400fd61,2023-06-16_10h27.03.512,phx_ver10,2022.2.5,Win32,58.7509547,,,,,,,,,,,,30,testing_3,zh2sh,ai,zh2sh_ai,zh2sh_8_aishai.wav,zh2sh_8_aishai.wav,,TRUE,FALSE,,,,,,,,,,,,,,f,0.1005,space,0.4336,,,,,,,,0,75,75,29,1,,
611b750d4bb9b61a0400fd61,2023-06-16_10h27.03.512,phx_ver10,2022.2.5,Win32,58.7509547,,,,,,,,,,,,104,testing_3,sh2x,ai,sh2x_ai,sh2x_8_aixai.wav,sh2x_1_aishai.wav,,FALSE,FALSE,,,,,,,,,,,,,,f,0.2672,space,0.5339,,,,,,,,0,76,76,103,1,,
611b750d4bb9b61a0400fd61,2023-06-16_10h27.03.512,phx_ver10,2022.2.5,Win32,58.7509547,,,,,,,,,,,,123,testing_3,sh2j,a,sh2j_a,sh2j_1_asha.wav,sh2j_8_aja.wav,,FALSE,FALSE,,,,,,,,,,,,,,j,0.2663,space,0.5495,,,,,,,,0,77,77,122,1,,
611b750d4bb9b61a0400fd61,2023-06-16_10h27.03.512,phx_ver10,2022.2.5,Win32,58.7509547,,,,,,,,,,,,112,testing_3,sh2x,e,sh2x_e,sh2x_8_exe.wav,sh2x_1_eshe.wav,,FALSE,FALSE,,,,,,,,,,,,,,f,0.0646,space,0.2473,,,,,,,,0,78,78,111,1,,
611b750d4bb9b61a0400fd61,2023-06-16_10h27.03.512,phx_ver10,2022.2.5,Win32,58.7509547,,,,,,,,,,,,65,testing_3,zh2j,ei,zh2j_ei,zh2j_1_eizhei.wav,zh2j_1_eizhei.wav,,TRUE,FALSE,,,,,,,,,,,,,,f,0.3206,space,0.4507,,,,,,,,0,79,79,64,1,,
611b750d4bb9b61a0400fd61,2023-06-16_10h27.03.512,phx_ver10,2022.2.5,Win32,58.7509547,,,,,,,,,,,,39,testing_3,zh2sh,e,zh2sh_e,zh2sh_1_ezhe.wav,zh2sh_8_eshe.wav,,FALSE,FALSE,,,,,,,,,,,,,,j,0.334,space,0.5838,,,,,,,,0,80,80,38,1,,
611b750d4bb9b61a0400fd61,2023-06-16_10h27.03.512,phx_ver10,2022.2.5,Win32,58.7509547,,,,,,,,,,,,26,testing_3,zh2sh,a,zh2sh_a,zh2sh_8_asha.wav,zh2sh_8_asha.wav,,TRUE,FALSE,,,,,,,,,,,,,,f,0.3339,space,0.6174,,,,,,,,0,81,81,25,1,,
611b750d4bb9b61a0400fd61,2023-06-16_10h27.03.512,phx_ver10,2022.2.5,Win32,58.7509547,,,,,,,,,,,,92,testing_3,j2x,ei,j2x_ei,j2x_8_eixei.wav,j2x_1_eijei.wav,,FALSE,FALSE,,,,,,,,,,,,,,j,0.0014,space,0.2506,,,,,,,,0,82,82,91,1,,
611b750d4bb9b61a0400fd61,2023-06-16_10h27.03.512,phx_ver10,2022.2.5,Win32,58.7509547,,,,,,,,,,,,40,testing_3,zh2sh,e,zh2sh_e,zh2sh_8_eshe.wav,zh2sh_1_ezhe.wav,,FALSE,FALSE,,,,,,,,,,,,,,j,0.2174,space,0.3674,,,,,,,,0,83,83,39,1,,
611b750d4bb9b61a0400fd61,2023-06-16_10h27.03.512,phx_ver10,2022.2.5,Win32,58.7509547,,,,,,,,,,,,37,testing_3,zh2sh,e,zh2sh_e,zh2sh_1_ezhe.wav,zh2sh_1_ezhe.wav,,TRUE,FALSE,,,,,,,,,,,,,,f,0.6011,space,0.7836,,,,,,,,0,84,84,36,1,,
611b750d4bb9b61a0400fd61,2023-06-16_10h27.03.512,phx_ver10,2022.2.5,Win32,58.7509547,,,,,,,,,,,,107,testing_3,sh2x,au,sh2x_au,sh2x_1_aushau.wav,sh2x_8_auxau.wav,,FALSE,FALSE,,,,,,,,,,,,,,j,0.0677,space,0.334,,,,,,,,0,85,85,106,1,,
611b750d4bb9b61a0400fd61,2023-06-16_10h27.03.512,phx_ver10,2022.2.5,Win32,58.7509547,,,,,,,,,,,,88,testing_3,j2x,e,j2x_e,j2x_8_exe.wav,j2x_1_eje.wav,,FALSE,FALSE,,,,,,,,,,,,,,j,0.2506,space,0.4341,,,,,,,,0,86,86,87,1,,
611b750d4bb9b61a0400fd61,2023-06-16_10h27.03.512,phx_ver10,2022.2.5,Win32,58.7509547,,,,,,,,,,,,78,testing_3,j2x,ai,j2x_ai,j2x_8_aixai.wav,j2x_8_aixai.wav,,TRUE,FALSE,,,,,,,,,,,,,,j,0.2672,space,0.4006,,,,,,,,0,87,87,77,1,,
611b750d4bb9b61a0400fd61,2023-06-16_10h27.03.512,phx_ver10,2022.2.5,Win32,58.7509547,,,,,,,,,,,,90,testing_3,j2x,ei,j2x_ei,j2x_8_eixei.wav,j2x_8_eixei.wav,,TRUE,FALSE,,,,,,,,,,,,,,f,0.3841,space,0.6006,,,,,,,,0,88,88,89,1,,
611b750d4bb9b61a0400fd61,2023-06-16_10h27.03.512,phx_ver10,2022.2.5,Win32,58.7509547,,,,,,,,,,,,126,testing_3,sh2j,ai,sh2j_ai,sh2j_8_aijai.wav,sh2j_8_aijai.wav,,TRUE,FALSE,,,,,,,,,,,,,,f,0.3007,space,0.5716,,,,,,,,0,89,89,125,1,,
611b750d4bb9b61a0400fd61,2023-06-16_10h27.03.512,phx_ver10,2022.2.5,Win32,58.7509547,,,,,,,,,,,,111,testing_3,sh2x,e,sh2x_e,sh2x_1_eshe.wav,sh2x_8_exe.wav,,FALSE,FALSE,,,,,,,,,,,,,,f,0.667,space,0.9671,,,,,,,,0,90,90,110,1,,
611b750d4bb9b61a0400fd61,2023-06-16_10h27.03.512,phx_ver10,2022.2.5,Win32,58.7509547,,,,,,,,,,,,77,testing_3,j2x,ai,j2x_ai,j2x_1_aijai.wav,j2x_1_aijai.wav,,TRUE,FALSE,,,,,,,,,,,,,,f,0.4173,space,0.7674,,,,,,,,0,91,91,76,1,,
611b750d4bb9b61a0400fd61,2023-06-16_10h27.03.512,phx_ver10,2022.2.5,Win32,58.7509547,,,,,,,,,,,,44,testing_3,zh2sh,ei,zh2sh_ei,zh2sh_8_eishei.wav,zh2sh_1_eizhei.wav,,FALSE,FALSE,,,,,,,,,,,,,,j,0.4506,space,0.7004,,,,,,,,0,92,92,43,1,,
611b750d4bb9b61a0400fd61,2023-06-16_10h27.03.512,phx_ver10,2022.2.5,Win32,58.7509547,,,,,,,,,,,,11,testing_1,zh2x,i,zh2x_i,zh2x_1_izhi.wav,zh2x_8_ixi.wav,,FALSE,TRUE,,,,,,,,,,,,,,j,1.1337,space,1.4169,,,,,,,,0,93,93,10,1,,
611b750d4bb9b61a0400fd61,2023-06-16_10h27.03.512,phx_ver10,2022.2.5,Win32,58.7509547,,,,,,,,,,,,21,testing_2,zh2x,ei,zh2x_ei,zh2x_1_eizhei.wav,zh2x_1_eizhei.wav,,TRUE,FALSE,,,,,,,,,,,,,,f,0.9838,space,1.2223,,,,,,,,0,94,94,20,1,,
611b750d4bb9b61a0400fd61,2023-06-16_10h27.03.512,phx_ver10,2022.2.5,Win32,58.7509547,,,,,,,,,,,,114,testing_3,sh2x,ei,sh2x_ei,sh2x_8_eixei.wav,sh2x_8_eixei.wav,,TRUE,FALSE,,,,,,,,,,,,,,f,0.5675,space,0.767,,,,,,,,0,95,95,113,1,,
611b750d4bb9b61a0400fd61,2023-06-16_10h27.03.512,phx_ver10,2022.2.5,Win32,58.7509547,,,,,,,,,,,,110,testing_3,sh2x,e,sh2x_e,sh2x_8_exe.wav,sh2x_8_exe.wav,,TRUE,FALSE,,,,,,,,,,,,,,f,0.634,space,0.8672,,,,,,,,0,96,96,109,1,,
611b750d4bb9b61a0400fd61,2023-06-16_10h27.03.512,phx_ver10,2022.2.5,Win32,58.7509547,,,,,,,,,,,,69,testing_3,zh2j,i,zh2j_i,zh2j_1_izhi.wav,zh2j_1_izhi.wav,,TRUE,FALSE,,,,,,,,,,,,,,f,0.4339,space,0.5506,,,,,,,,0,97,97,68,1,,
611b750d4bb9b61a0400fd61,2023-06-16_10h27.03.512,phx_ver10,2022.2.5,Win32,58.7509547,,,,,,,,,,,,79,testing_3,j2x,ai,j2x_ai,j2x_1_aijai.wav,j2x_8_aixai.wav,,FALSE,FALSE,,,,,,,,,,,,,,j,0.6176,space,0.784,,,,,,,,0,98,98,78,1,,
611b750d4bb9b61a0400fd61,2023-06-16_10h27.03.512,phx_ver10,2022.2.5,Win32,58.7509547,,,,,,,,,,,,131,testing_3,sh2j,au,sh2j_au,sh2j_1_aushau.wav,sh2j_8_aujau.wav,,FALSE,FALSE,,,,,,,,,,,,,,j,0.7672,space,0.9339,,,,,,,,0,99,99,130,1,,
611b750d4bb9b61a0400fd61,2023-06-16_10h27.03.512,phx_ver10,2022.2.5,Win32,58.7509547,,,,,,,,,,,,2,testing_1,zh2x,a,zh2x_a,zh2x_8_axa.wav,zh2x_8_axa_copy.wav,,TRUE,TRUE,,,,,,,,,,,,,,f,0.3576,space,0.4838,,,,,,,,0,100,100,1,1,,
611b750d4bb9b61a0400fd61,2023-06-16_10h27.03.512,phx_ver10,2022.2.5,Win32,58.7509547,,,,,,,,,,,,108,testing_3,sh2x,au,sh2x_au,sh2x_8_auxau.wav,sh2x_1_aushau.wav,,FALSE,FALSE,,,,,,,,,,,,,,f,1.2503,space,1.4502,,,,,,,,0,101,101,107,1,,
611b750d4bb9b61a0400fd61,2023-06-16_10h27.03.512,phx_ver10,2022.2.5,Win32,58.7509547,,,,,,,,,,,,128,testing_3,sh2j,ai,sh2j_ai,sh2j_8_aijai.wav,sh2j_1_aishai.wav,,FALSE,FALSE,,,,,,,,,,,,,,j,0.4007,space,0.5839,,,,,,,,0,102,102,127,1,,
611b750d4bb9b61a0400fd61,2023-06-16_10h27.03.512,phx_ver10,2022.2.5,Win32,58.7509547,,,,,,,,,,,,73,testing_3,j2x,a,j2x_a,j2x_1_aja.wav,j2x_1_aja.wav,,TRUE,FALSE,,,,,,,,,,,,,,j,0.2173,space,0.379,,,,,,,,0,103,103,72,1,,
611b750d4bb9b61a0400fd61,2023-06-16_10h27.03.512,phx_ver10,2022.2.5,Win32,58.7509547,,,,,,,,,,,,56,testing_3,zh2j,ai,zh2j_ai,zh2j_8_aijai.wav,zh2j_1_aizhai.wav,,FALSE,FALSE,,,,,,,,,,,,,,f,0.2508,space,0.3547,,,,,,,,0,104,104,55,1,,
611b750d4bb9b61a0400fd61,2023-06-16_10h27.03.512,phx_ver10,2022.2.5,Win32,58.7509547,,,,,,,,,,,,113,testing_3,sh2x,ei,sh2x_ei,sh2x_1_eishei.wav,sh2x_1_eishei.wav,,TRUE,FALSE,,,,,,,,,,,,,,f,0.0341,space,0.134,,,,,,,,0,105,105,112,1,,
611b750d4bb9b61a0400fd61,2023-06-16_10h27.03.512,phx_ver10,2022.2.5,Win32,58.7509547,,,,,,,,,,,,38,testing_3,zh2sh,e,zh2sh_e,zh2sh_8_eshe.wav,zh2sh_8_eshe.wav,,TRUE,FALSE,,,,,,,,,,,,,,f,0.5173,space,0.6672,,,,,,,,0,106,106,37,1,,
611b750d4bb9b61a0400fd61,2023-06-16_10h27.03.512,phx_ver10,2022.2.5,Win32,58.7509547,,,,,,,,,,,,46,testing_3,zh2sh,i,zh2sh_i,zh2sh_8_ishi.wav,zh2sh_8_ishi.wav,,TRUE,FALSE,,,,,,,,,,,,,,f,0.2675,space,0.3505,,,,,,,,0,107,107,45,1,,
611b750d4bb9b61a0400fd61,2023-06-16_10h27.03.512,phx_ver10,2022.2.5,Win32,58.7509547,,,,,,,,,,,,59,testing_3,zh2j,au,zh2j_au,zh2j_1_auzhau.wav,zh2j_8_aujau.wav,,FALSE,FALSE,,,,,,,,,,,,,,f,0.1011,space,0.3173,,,,,,,,0,108,108,58,1,,
611b750d4bb9b61a0400fd61,2023-06-16_10h27.03.512,phx_ver10,2022.2.5,Win32,58.7509547,,,,,,,,,,,,100,testing_3,sh2x,a,sh2x_a,sh2x_8_axa.wav,sh2x_1_asha.wav,,FALSE,FALSE,,,,,,,,,,,,,,f,0.1675,space,0.2841,,,,,,,,0,109,109,99,1,,
611b750d4bb9b61a0400fd61,2023-06-16_10h27.03.512,phx_ver10,2022.2.5,Win32,58.7509547,,,,,,,,,,,,134,testing_3,sh2j,e,sh2j_e,sh2j_8_eje.wav,sh2j_8_eje.wav,,TRUE,FALSE,,,,,,,,,,,,,,f,0.1342,space,0.2674,,,,,,,,0,110,110,133,1,,
611b750d4bb9b61a0400fd61,2023-06-16_10h27.03.512,phx_ver10,2022.2.5,Win32,58.7509547,,,,,,,,,,,,41,testing_3,zh2sh,ei,zh2sh_ei,zh2sh_1_eizhei.wav,zh2sh_1_eizhei.wav,,TRUE,FALSE,,,,,,,,,,,,,,f,0.1338,space,0.2673,,,,,,,,0,111,111,40,1,,
611b750d4bb9b61a0400fd61,2023-06-16_10h27.03.512,phx_ver10,2022.2.5,Win32,58.7509547,,,,,,,,,,,,140,testing_3,sh2j,ei,sh2j_ei,sh2j_8_eijei.wav,sh2j_1_eishei.wav,,FALSE,FALSE,,,,,,,,,,,,,,j,0.0173,space,0.2173,,,,,,,,0,112,112,139,1,,
611b750d4bb9b61a0400fd61,2023-06-16_10h27.03.512,phx_ver10,2022.2.5,Win32,58.7509547,,,,,,,,,,,,121,testing_3,sh2j,a,sh2j_a,sh2j_1_asha.wav,sh2j_1_asha.wav,,TRUE,FALSE,,,,,,,,,,,,,,f,0.3005,space,0.3838,,,,,,,,0,113,113,120,1,,
611b750d4bb9b61a0400fd61,2023-06-16_10h27.03.512,phx_ver10,2022.2.5,Win32,58.7509547,,,,,,,,,,,,74,testing_3,j2x,a,j2x_a,j2x_8_axa.wav,j2x_8_axa.wav,,TRUE,FALSE,,,,,,,,,,,,,,f,0.2678,space,0.3839,,,,,,,,0,114,114,73,1,,
611b750d4bb9b61a0400fd61,2023-06-16_10h27.03.512,phx_ver10,2022.2.5,Win32,58.7509547,,,,,,,,,,,,58,testing_3,zh2j,au,zh2j_au,zh2j_8_aujau.wav,zh2j_8_aujau.wav,,TRUE,FALSE,,,,,,,,,,,,,,f,0.0673,space,0.2007,,,,,,,,0,115,115,57,1,,
611b750d4bb9b61a0400fd61,2023-06-16_10h27.03.512,phx_ver10,2022.2.5,Win32,58.7509547,,,,,,,,,,,,141,testing_3,sh2j,i,sh2j_i,sh2j_1_ishi.wav,sh2j_1_ishi.wav,,TRUE,FALSE,,,,,,,,,,,,,,f,0.0172,space,0.1341,,,,,,,,0,116,116,140,1,,
611b750d4bb9b61a0400fd61,2023-06-16_10h27.03.512,phx_ver10,2022.2.5,Win32,58.7509547,,,,,,,,,,,,137,testing_3,sh2j,ei,sh2j_ei,sh2j_1_eishei.wav,sh2j_1_eishei.wav,,TRUE,FALSE,,,,,,,,,,,,,,f,0.0506,space,0.1507,,,,,,,,0,117,117,136,1,,
611b750d4bb9b61a0400fd61,2023-06-16_10h27.03.512,phx_ver10,2022.2.5,Win32,58.7509547,,,,,,,,,,,,66,testing_3,zh2j,ei,zh2j_ei,zh2j_8_eijei.wav,zh2j_8_eijei.wav,,TRUE,FALSE,,,,,,,,,,,,,,f,0.3503,space,0.4669,,,,,,,,0,118,118,65,1,,
611b750d4bb9b61a0400fd61,2023-06-16_10h27.03.512,phx_ver10,2022.2.5,Win32,58.7509547,,,,,,,,,,,,97,testing_3,sh2x,a,sh2x_a,sh2x_1_asha.wav,sh2x_1_asha.wav,,TRUE,FALSE,,,,,,,,,,,,,,f,0.1007,space,0.2671,,,,,,,,0,119,119,96,1,,
611b750d4bb9b61a0400fd61,2023-06-16_10h27.03.512,phx_ver10,2022.2.5,Win32,58.7509547,,,,,,,,,,,,18,testing_2,zh2x,au,zh2x_au,zh2x_8_auxau.wav,zh2x_8_auxau.wav,,TRUE,FALSE,,,,,,,,,,,,,,f,0.2173,space,0.3176,,,,,,,,0,120,120,17,1,,
611b750d4bb9b61a0400fd61,2023-06-16_10h27.03.512,phx_ver10,2022.2.5,Win32,58.7509547,,,,,,,,,,,,96,testing_3,j2x,i,j2x_i,j2x_8_ixi.wav,j2x_1_iji.wav,,FALSE,FALSE,,,,,,,,,,,,,,f,0.2839,space,0.4004,,,,,,,,0,121,121,95,1,,
611b750d4bb9b61a0400fd61,2023-06-16_10h27.03.512,phx_ver10,2022.2.5,Win32,58.7509547,,,,,,,,,,,,67,testing_3,zh2j,ei,zh2j_ei,zh2j_1_eizhei.wav,zh2j_8_eijei.wav,,FALSE,FALSE,,,,,,,,,,,,,,f,0.2005,space,0.4507,,,,,,,,0,122,122,66,1,,
611b750d4bb9b61a0400fd61,2023-06-16_10h27.03.512,phx_ver10,2022.2.5,Win32,58.7509547,,,,,,,,,,,,62,testing_3,zh2j,e,zh2j_e,zh2j_8_eje.wav,zh2j_8_eje.wav,,TRUE,FALSE,,,,,,,,,,,,,,f,0.1839,space,0.417,,,,,,,,0,123,123,61,1,,
611b750d4bb9b61a0400fd61,2023-06-16_10h27.03.512,phx_ver10,2022.2.5,Win32,58.7509547,,,,,,,,,,,,91,testing_3,j2x,ei,j2x_ei,j2x_1_eijei.wav,j2x_8_eixei.wav,,FALSE,FALSE,,,,,,,,,,,,,,j,0.5676,space,0.8006,,,,,,,,0,124,124,90,1,,
611b750d4bb9b61a0400fd61,2023-06-16_10h27.03.512,phx_ver10,2022.2.5,Win32,58.7509547,,,,,,,,,,,,16,testing_2,zh2x,ai,zh2x_ai,zh2x_8_aixai.wav,zh2x_1_aizhai.wav,,FALSE,FALSE,,,,,,,,,,,,,,j,0.3174,space,0.4509,,,,,,,,0,125,125,15,1,,
611b750d4bb9b61a0400fd61,2023-06-16_10h27.03.512,phx_ver10,2022.2.5,Win32,58.7509547,,,,,,,,,,,,9,testing_1,zh2x,i,zh2x_i,zh2x_1_izhi.wav,zh2x_1_izhi_copy.wav,,TRUE,TRUE,,,,,,,,,,,,,,f,0.2176,space,0.3505,,,,,,,,0,126,126,8,1,,
611b750d4bb9b61a0400fd61,2023-06-16_10h27.03.512,phx_ver10,2022.2.5,Win32,58.7509547,,,,,,,,,,,,143,testing_3,sh2j,i,sh2j_i,sh2j_1_ishi.wav,sh2j_8_iji.wav,,FALSE,FALSE,,,,,,,,,,,,,,f,0.2663,space,0.3996,,,,,,,,0,127,127,142,1,,
611b750d4bb9b61a0400fd61,2023-06-16_10h27.03.512,phx_ver10,2022.2.5,Win32,58.7509547,,,,,,,,,,,,15,testing_2,zh2x,ai,zh2x_ai,zh2x_1_aizhai.wav,zh2x_8_aixai.wav,,FALSE,FALSE,,,,,,,,,,,,,,j,0.1003,space,0.3004,,,,,,,,0,128,128,14,1,,
611b750d4bb9b61a0400fd61,2023-06-16_10h27.03.512,phx_ver10,2022.2.5,Win32,58.7509547,,,,,,,,,,,,84,testing_3,j2x,au,j2x_au,j2x_8_auxau.wav,j2x_1_aujau.wav,,FALSE,FALSE,,,,,,,,,,,,,,j,0.1009,space,0.3339,,,,,,,,0,129,129,83,1,,
611b750d4bb9b61a0400fd61,2023-06-16_10h27.03.512,phx_ver10,2022.2.5,Win32,58.7509547,,,,,,,,,,,,115,testing_3,sh2x,ei,sh2x_ei,sh2x_1_eishei.wav,sh2x_8_eixei.wav,,FALSE,FALSE,,,,,,,,,,,,,,f,0.0838,space,0.2506,,,,,,,,0,130,130,114,1,,
611b750d4bb9b61a0400fd61,2023-06-16_10h27.03.512,phx_ver10,2022.2.5,Win32,58.7509547,,,,,,,,,,,,122,testing_3,sh2j,a,sh2j_a,sh2j_8_aja.wav,sh2j_8_aja.wav,,TRUE,FALSE,,,,,,,,,,,,,,f,0.1842,space,0.3006,,,,,,,,0,131,131,121,1,,
611b750d4bb9b61a0400fd61,2023-06-16_10h27.03.512,phx_ver10,2022.2.5,Win32,58.7509547,,,,,,,,,,,,106,testing_3,sh2x,au,sh2x_au,sh2x_8_auxau.wav,sh2x_8_auxau.wav,,TRUE,FALSE,,,,,,,,,,,,,,f,0.1169,space,0.2843,,,,,,,,0,132,132,105,1,,
611b750d4bb9b61a0400fd61,2023-06-16_10h27.03.512,phx_ver10,2022.2.5,Win32,58.7509547,,,,,,,,,,,,117,testing_3,sh2x,i,sh2x_i,sh2x_1_ishi.wav,sh2x_1_ishi.wav,,TRUE,FALSE,,,,,,,,,,,,,,f,0.1341,space,0.3005,,,,,,,,0,133,133,116,1,,
611b750d4bb9b61a0400fd61,2023-06-16_10h27.03.512,phx_ver10,2022.2.5,Win32,58.7509547,,,,,,,,,,,,109,testing_3,sh2x,e,sh2x_e,sh2x_1_eshe.wav,sh2x_1_eshe.wav,,TRUE,FALSE,,,,,,,,,,,,,,f,1.6001,space,1.7669,,,,,,,,0,134,134,108,1,,
611b750d4bb9b61a0400fd61,2023-06-16_10h27.03.512,phx_ver10,2022.2.5,Win32,58.7509547,,,,,,,,,,,,68,testing_3,zh2j,ei,zh2j_ei,zh2j_8_eijei.wav,zh2j_1_eizhei.wav,,FALSE,FALSE,,,,,,,,,,,,,,f,0.0342,space,0.1672,,,,,,,,0,135,135,67,1,,
611b750d4bb9b61a0400fd61,2023-06-16_10h27.03.512,phx_ver10,2022.2.5,Win32,58.7509547,,,,,,,,,,,,32,testing_3,zh2sh,ai,zh2sh_ai,zh2sh_8_aishai.wav,zh2sh_1_aizhai.wav,,FALSE,FALSE,,,,,,,,,,,,,,j,0.0007,space,0.0674,,,,,,,,0,136,136,31,1,,
611b750d4bb9b61a0400fd61,2023-06-16_10h27.03.512,phx_ver10,2022.2.5,Win32,58.7509547,,,,,,,,,,,,94,testing_3,j2x,i,j2x_i,j2x_8_ixi.wav,j2x_8_ixi.wav,,TRUE,FALSE,,,,,,,,,,,,,,f,0.6491,space,0.9178,,,,,,,,0,137,137,93,1,,
611b750d4bb9b61a0400fd61,2023-06-16_10h27.03.512,phx_ver10,2022.2.5,Win32,58.7509547,,,,,,,,,,,,124,testing_3,sh2j,a,sh2j_a,sh2j_8_aja.wav,sh2j_1_asha.wav,,FALSE,FALSE,,,,,,,,,,,,,,j,0.0341,space,0.3841,,,,,,,,0,138,138,123,1,,
611b750d4bb9b61a0400fd61,2023-06-16_10h27.03.512,phx_ver10,2022.2.5,Win32,58.7509547,,,,,,,,,,,,139,testing_3,sh2j,ei,sh2j_ei,sh2j_1_eishei.wav,sh2j_8_eijei.wav,,FALSE,FALSE,,,,,,,,,,,,,,j,0.1841,space,0.4003,,,,,,,,0,139,139,138,1,,
611b750d4bb9b61a0400fd61,2023-06-16_10h27.03.512,phx_ver10,2022.2.5,Win32,58.7509547,,,,,,,,,,,,28,testing_3,zh2sh,a,zh2sh_a,zh2sh_8_asha.wav,zh2sh_1_azha.wav,,FALSE,FALSE,,,,,,,,,,,,,,j,0.4834,space,0.6497,,,,,,,,0,140,140,27,1,,
611b750d4bb9b61a0400fd61,2023-06-16_10h27.03.512,phx_ver10,2022.2.5,Win32,58.7509547,,,,,,,,,,,,138,testing_3,sh2j,ei,sh2j_ei,sh2j_8_eijei.wav,sh2j_8_eijei.wav,,TRUE,FALSE,,,,,,,,,,,,,,j,1.0005,space,1.1337,,,,,,,,0,141,141,137,1,,
611b750d4bb9b61a0400fd61,2023-06-16_10h27.03.512,phx_ver10,2022.2.5,Win32,58.7509547,,,,,,,,,,,,29,testing_3,zh2sh,ai,zh2sh_ai,zh2sh_1_aizhai.wav,zh2sh_1_aizhai.wav,,TRUE,FALSE,,,,,,,,,,,,,,f,1.2837,space,1.4003,,,,,,,,0,142,142,28,1,,
611b750d4bb9b61a0400fd61,2023-06-16_10h27.03.512,phx_ver10,2022.2.5,Win32,58.7509547,,,,,,,,,,,,5,testing_1,zh2x,e,zh2x_e,zh2x_1_ezhe.wav,zh2x_1_ezhe_copy.wav,,TRUE,TRUE,,,,,,,,,,,,,,f,0.4506,space,0.634,,,,,,,,0,143,143,4,1,,
611b750d4bb9b61a0400fd61,2023-06-16_10h27.03.512,phx_ver10,2022.2.5,Win32,58.7509547,,,,,,,,,,,,,,,,,,,,,,,,,,,,,,,,,,,,,,,,,,,,,,,,,,,space,4.6991
