participant,date,expName,psychopyVersion,OS,frameRate,space_1.keys,space_1.rt,space_2.keys,space_2.rt,space_train.keys,space_train.rt,training.thisRepN,training.thisTrialN,training.thisN,training.thisIndex,training.ran,token_id,task,continuum,vowel,series,sound_1,sound_2,img,same,trained,FJ_attn.keys,FJ_attn.rt,space_attn.keys,space_attn.rt,if_attn_test.thisRepN,if_attn_test.thisTrialN,if_attn_test.thisN,if_attn_test.thisIndex,if_attn_test.ran,space_trans_1.keys,space_trans_1.rt,space_trans_11.keys,space_trans_11.rt,FJ_test.keys,FJ_test.rt,space_test.keys,space_test.rt,testing_pre.thisRepN,testing_pre.thisTrialN,testing_pre.thisN,testing_pre.thisIndex,testing_pre.ran,space_trans_2.keys,space_trans_2.rt,testing_all.thisRepN,testing_all.thisTrialN,testing_all.thisN,testing_all.thisIndex,testing_all.ran,space_ending.keys,space_ending.rt
6122b9ffce05d8e56860755a,2023-06-16_10h02.49.687,phx_ver10,2022.2.5,MacIntel,59.95203837,,,,,,,,,,,,,,,,,,,,,,,,,,,,,,,,,,,,,,,,,,,,,,,,,,,,
6122b9ffce05d8e56860755a,2023-06-16_10h02.49.687,phx_ver10,2022.2.5,MacIntel,59.95203837,space,8.8773,,,,,,,,,,,,,,,,,,,,,,,,,,,,,,,,,,,,,,,,,,,,,,,,,,
6122b9ffce05d8e56860755a,2023-06-16_10h02.49.687,phx_ver10,2022.2.5,MacIntel,59.95203837,,,space,3.5353,,,,,,,,,,,,,,,,,,,,,,,,,,,,,,,,,,,,,,,,,,,,,,,,
6122b9ffce05d8e56860755a,2023-06-16_10h02.49.687,phx_ver10,2022.2.5,MacIntel,59.95203837,,,,,space,11.6452,0,0,0,18,1,19,training,zh2x,e,zh2x_e,zh2x_2_ezhe.wav,,ezhe.jpg,,,,,,,,,,,,,,,,,,,,,,,,,,,,,,,,,
6122b9ffce05d8e56860755a,2023-06-16_10h02.49.687,phx_ver10,2022.2.5,MacIntel,59.95203837,,,,,space,11.9298,0,1,1,35,1,36,training,zh2x,i,zh2x_i,zh2x_2_izhi.wav,,izhi.jpg,,,,,,,,,,,,,,,,,,,,,,,,,,,,,,,,,
6122b9ffce05d8e56860755a,2023-06-16_10h02.49.687,phx_ver10,2022.2.5,MacIntel,59.95203837,,,,,space,5.9386,0,2,2,47,1,48,training,zh2x,i,zh2x_i,zh2x_8_ixi.wav,,ixi.jpg,,,,,,,,,,,,,,,,,,,,,,,,,,,,,,,,,
6122b9ffce05d8e56860755a,2023-06-16_10h02.49.687,phx_ver10,2022.2.5,MacIntel,59.95203837,,,,,space,1.3346,0,3,3,38,1,39,training,zh2x,i,zh2x_i,zh2x_3_izhi.wav,,izhi.jpg,,,,,,,,,,,,,,,,,,,,,,,,,,,,,,,,,
6122b9ffce05d8e56860755a,2023-06-16_10h02.49.687,phx_ver10,2022.2.5,MacIntel,59.95203837,,,,,space,1.7374,0,4,4,45,1,46,training,zh2x,i,zh2x_i,zh2x_7_ixi.wav,,ixi.jpg,,,,,,,,,,,,,,,,,,,,,,,,,,,,,,,,,
6122b9ffce05d8e56860755a,2023-06-16_10h02.49.687,phx_ver10,2022.2.5,MacIntel,59.95203837,,,,,space,12.2686,0,5,5,5,1,6,training,zh2x,a,zh2x_a,zh2x_3_azha.wav,,azha.jpg,,,,,,,,,,,,,,,,,,,,,,,,,,,,,,,,,
6122b9ffce05d8e56860755a,2023-06-16_10h02.49.687,phx_ver10,2022.2.5,MacIntel,59.95203837,,,,,,,,,,,,,attn_test,,,,zh2x_8_ixi.wav,zh2x_1_izhi.wav,ixi.jpg,LEFT,,j,11.3699,space,12.3218,0,0,0,0,1,,,,,,,,,,,,,,,,,,,,,,
6122b9ffce05d8e56860755a,2023-06-16_10h02.49.687,phx_ver10,2022.2.5,MacIntel,59.95203837,,,,,space,1.9236,0,6,6,33,1,34,training,zh2x,i,zh2x_i,zh2x_2_izhi.wav,,izhi.jpg,,,,,,,,,,,,,,,,,,,,,,,,,,,,,,,,,
6122b9ffce05d8e56860755a,2023-06-16_10h02.49.687,phx_ver10,2022.2.5,MacIntel,59.95203837,,,,,space,11.431,0,7,7,9,1,10,training,zh2x,a,zh2x_a,zh2x_6_axa.wav,,axa.jpg,,,,,,,,,,,,,,,,,,,,,,,,,,,,,,,,,
6122b9ffce05d8e56860755a,2023-06-16_10h02.49.687,phx_ver10,2022.2.5,MacIntel,59.95203837,,,,,space,1.6341,0,8,8,7,1,8,training,zh2x,a,zh2x_a,zh2x_4_azha.wav,,azha.jpg,,,,,,,,,,,,,,,,,,,,,,,,,,,,,,,,,
6122b9ffce05d8e56860755a,2023-06-16_10h02.49.687,phx_ver10,2022.2.5,MacIntel,59.95203837,,,,,space,10.0413,0,9,9,13,1,14,training,zh2x,a,zh2x_a,zh2x_7_axa.wav,,axa.jpg,,,,,,,,,,,,,,,,,,,,,,,,,,,,,,,,,
6122b9ffce05d8e56860755a,2023-06-16_10h02.49.687,phx_ver10,2022.2.5,MacIntel,59.95203837,,,,,space,0.6503,0,10,10,14,1,15,training,zh2x,a,zh2x_a,zh2x_7_axa.wav,,axa.jpg,,,,,,,,,,,,,,,,,,,,,,,,,,,,,,,,,
6122b9ffce05d8e56860755a,2023-06-16_10h02.49.687,phx_ver10,2022.2.5,MacIntel,59.95203837,,,,,space,8.6118,0,11,11,27,1,28,training,zh2x,e,zh2x_e,zh2x_7_exe.wav,,exe.jpg,,,,,,,,,,,,,,,,,,,,,,,,,,,,,,,,,
6122b9ffce05d8e56860755a,2023-06-16_10h02.49.687,phx_ver10,2022.2.5,MacIntel,59.95203837,,,,,,,,,,,,,attn_test,,,,zh2x_8_exe.wav,zh2x_8_axa.wav,axa.jpg,RIGHT,,j,11.6942,space,13.3496,0,0,0,0,1,,,,,,,,,,,,,,,,,,,,,,
6122b9ffce05d8e56860755a,2023-06-16_10h02.49.687,phx_ver10,2022.2.5,MacIntel,59.95203837,,,,,space,1.9188,0,12,12,0,1,1,training,zh2x,a,zh2x_a,zh2x_1_azha.wav,,azha.jpg,,,,,,,,,,,,,,,,,,,,,,,,,,,,,,,,,
6122b9ffce05d8e56860755a,2023-06-16_10h02.49.687,phx_ver10,2022.2.5,MacIntel,59.95203837,,,,,space,9.0432,0,13,13,15,1,16,training,zh2x,a,zh2x_a,zh2x_8_axa.wav,,axa.jpg,,,,,,,,,,,,,,,,,,,,,,,,,,,,,,,,,
6122b9ffce05d8e56860755a,2023-06-16_10h02.49.687,phx_ver10,2022.2.5,MacIntel,59.95203837,,,,,space,2.8117,0,14,14,24,1,25,training,zh2x,e,zh2x_e,zh2x_5_exe.wav,,exe.jpg,,,,,,,,,,,,,,,,,,,,,,,,,,,,,,,,,
6122b9ffce05d8e56860755a,2023-06-16_10h02.49.687,phx_ver10,2022.2.5,MacIntel,59.95203837,,,,,space,0.252,0,15,15,37,1,38,training,zh2x,i,zh2x_i,zh2x_3_izhi.wav,,izhi.jpg,,,,,,,,,,,,,,,,,,,,,,,,,,,,,,,,,
6122b9ffce05d8e56860755a,2023-06-16_10h02.49.687,phx_ver10,2022.2.5,MacIntel,59.95203837,,,,,space,1.8742,0,16,16,43,1,44,training,zh2x,i,zh2x_i,zh2x_7_ixi.wav,,ixi.jpg,,,,,,,,,,,,,,,,,,,,,,,,,,,,,,,,,
6122b9ffce05d8e56860755a,2023-06-16_10h02.49.687,phx_ver10,2022.2.5,MacIntel,59.95203837,,,,,space,0.1369,0,17,17,39,1,40,training,zh2x,i,zh2x_i,zh2x_4_izhi.wav,,izhi.jpg,,,,,,,,,,,,,,,,,,,,,,,,,,,,,,,,,
6122b9ffce05d8e56860755a,2023-06-16_10h02.49.687,phx_ver10,2022.2.5,MacIntel,59.95203837,,,,,,,,,,,,,attn_test,,,,zh2x_8_exe.wav,zh2x_8_axa.wav,axa.jpg,RIGHT,,f,14.2366,space,14.7165,0,0,0,0,1,,,,,,,,,,,,,,,,,,,,,,
6122b9ffce05d8e56860755a,2023-06-16_10h02.49.687,phx_ver10,2022.2.5,MacIntel,59.95203837,,,,,space,1.6516,0,18,18,2,1,3,training,zh2x,a,zh2x_a,zh2x_2_azha.wav,,azha.jpg,,,,,,,,,,,,,,,,,,,,,,,,,,,,,,,,,
6122b9ffce05d8e56860755a,2023-06-16_10h02.49.687,phx_ver10,2022.2.5,MacIntel,59.95203837,,,,,space,2.805,0,19,19,21,1,22,training,zh2x,e,zh2x_e,zh2x_3_ezhe.wav,,ezhe.jpg,,,,,,,,,,,,,,,,,,,,,,,,,,,,,,,,,
6122b9ffce05d8e56860755a,2023-06-16_10h02.49.687,phx_ver10,2022.2.5,MacIntel,59.95203837,,,,,space,0.9183,0,20,20,42,1,43,training,zh2x,i,zh2x_i,zh2x_6_ixi.wav,,ixi.jpg,,,,,,,,,,,,,,,,,,,,,,,,,,,,,,,,,
6122b9ffce05d8e56860755a,2023-06-16_10h02.49.687,phx_ver10,2022.2.5,MacIntel,59.95203837,,,,,space,0.8726,0,21,21,30,1,31,training,zh2x,e,zh2x_e,zh2x_7_exe.wav,,exe.jpg,,,,,,,,,,,,,,,,,,,,,,,,,,,,,,,,,
6122b9ffce05d8e56860755a,2023-06-16_10h02.49.687,phx_ver10,2022.2.5,MacIntel,59.95203837,,,,,space,0.4391,0,22,22,40,1,41,training,zh2x,i,zh2x_i,zh2x_5_ixi.wav,,ixi.jpg,,,,,,,,,,,,,,,,,,,,,,,,,,,,,,,,,
6122b9ffce05d8e56860755a,2023-06-16_10h02.49.687,phx_ver10,2022.2.5,MacIntel,59.95203837,,,,,space,0.7746,0,23,23,16,1,17,training,zh2x,e,zh2x_e,zh2x_1_ezhe.wav,,ezhe.jpg,,,,,,,,,,,,,,,,,,,,,,,,,,,,,,,,,
6122b9ffce05d8e56860755a,2023-06-16_10h02.49.687,phx_ver10,2022.2.5,MacIntel,59.95203837,,,,,,,,,,,,,attn_test,,,,zh2x_1_azha.wav,zh2x_8_exe.wav,azha.jpg,LEFT,,f,3.5196,space,4.1925,0,0,0,0,1,,,,,,,,,,,,,,,,,,,,,,
6122b9ffce05d8e56860755a,2023-06-16_10h02.49.687,phx_ver10,2022.2.5,MacIntel,59.95203837,,,,,space,1.2565,0,24,24,31,1,32,training,zh2x,e,zh2x_e,zh2x_8_exe.wav,,exe.jpg,,,,,,,,,,,,,,,,,,,,,,,,,,,,,,,,,
6122b9ffce05d8e56860755a,2023-06-16_10h02.49.687,phx_ver10,2022.2.5,MacIntel,59.95203837,,,,,space,2.4386,0,25,25,19,1,20,training,zh2x,e,zh2x_e,zh2x_2_ezhe.wav,,ezhe.jpg,,,,,,,,,,,,,,,,,,,,,,,,,,,,,,,,,
6122b9ffce05d8e56860755a,2023-06-16_10h02.49.687,phx_ver10,2022.2.5,MacIntel,59.95203837,,,,,space,1.4181,0,26,26,44,1,45,training,zh2x,i,zh2x_i,zh2x_7_ixi.wav,,ixi.jpg,,,,,,,,,,,,,,,,,,,,,,,,,,,,,,,,,
6122b9ffce05d8e56860755a,2023-06-16_10h02.49.687,phx_ver10,2022.2.5,MacIntel,59.95203837,,,,,space,0.302,0,27,27,26,1,27,training,zh2x,e,zh2x_e,zh2x_6_exe.wav,,exe.jpg,,,,,,,,,,,,,,,,,,,,,,,,,,,,,,,,,
6122b9ffce05d8e56860755a,2023-06-16_10h02.49.687,phx_ver10,2022.2.5,MacIntel,59.95203837,,,,,space,1.6172,0,28,28,22,1,23,training,zh2x,e,zh2x_e,zh2x_3_ezhe.wav,,ezhe.jpg,,,,,,,,,,,,,,,,,,,,,,,,,,,,,,,,,
6122b9ffce05d8e56860755a,2023-06-16_10h02.49.687,phx_ver10,2022.2.5,MacIntel,59.95203837,,,,,space,0.586,0,29,29,25,1,26,training,zh2x,e,zh2x_e,zh2x_6_exe.wav,,exe.jpg,,,,,,,,,,,,,,,,,,,,,,,,,,,,,,,,,
6122b9ffce05d8e56860755a,2023-06-16_10h02.49.687,phx_ver10,2022.2.5,MacIntel,59.95203837,,,,,,,,,,,,,attn_test,,,,zh2x_1_ezhe.wav,zh2x_1_izhi.wav,ezhe.jpg,LEFT,,f,3.5395,space,4.459,0,0,0,0,1,,,,,,,,,,,,,,,,,,,,,,
6122b9ffce05d8e56860755a,2023-06-16_10h02.49.687,phx_ver10,2022.2.5,MacIntel,59.95203837,,,,,space,0.0181,0,30,30,36,1,37,training,zh2x,i,zh2x_i,zh2x_2_izhi.wav,,izhi.jpg,,,,,,,,,,,,,,,,,,,,,,,,,,,,,,,,,
6122b9ffce05d8e56860755a,2023-06-16_10h02.49.687,phx_ver10,2022.2.5,MacIntel,59.95203837,,,,,space,1.0516,0,31,31,3,1,4,training,zh2x,a,zh2x_a,zh2x_2_azha.wav,,azha.jpg,,,,,,,,,,,,,,,,,,,,,,,,,,,,,,,,,
6122b9ffce05d8e56860755a,2023-06-16_10h02.49.687,phx_ver10,2022.2.5,MacIntel,59.95203837,,,,,space,1.1589,0,32,32,10,1,11,training,zh2x,a,zh2x_a,zh2x_6_axa.wav,,axa.jpg,,,,,,,,,,,,,,,,,,,,,,,,,,,,,,,,,
6122b9ffce05d8e56860755a,2023-06-16_10h02.49.687,phx_ver10,2022.2.5,MacIntel,59.95203837,,,,,space,0.3835,0,33,33,29,1,30,training,zh2x,e,zh2x_e,zh2x_7_exe.wav,,exe.jpg,,,,,,,,,,,,,,,,,,,,,,,,,,,,,,,,,
6122b9ffce05d8e56860755a,2023-06-16_10h02.49.687,phx_ver10,2022.2.5,MacIntel,59.95203837,,,,,space,0.6497,0,34,34,1,1,2,training,zh2x,a,zh2x_a,zh2x_2_azha.wav,,azha.jpg,,,,,,,,,,,,,,,,,,,,,,,,,,,,,,,,,
6122b9ffce05d8e56860755a,2023-06-16_10h02.49.687,phx_ver10,2022.2.5,MacIntel,59.95203837,,,,,space,0.9224,0,35,35,41,1,42,training,zh2x,i,zh2x_i,zh2x_6_ixi.wav,,ixi.jpg,,,,,,,,,,,,,,,,,,,,,,,,,,,,,,,,,
6122b9ffce05d8e56860755a,2023-06-16_10h02.49.687,phx_ver10,2022.2.5,MacIntel,59.95203837,,,,,,,,,,,,,attn_test,,,,zh2x_1_izhi.wav,zh2x_1_azha.wav,azha.jpg,RIGHT,,j,6.606,space,7.0457,0,0,0,0,1,,,,,,,,,,,,,,,,,,,,,,
6122b9ffce05d8e56860755a,2023-06-16_10h02.49.687,phx_ver10,2022.2.5,MacIntel,59.95203837,,,,,space,2.2026,0,36,36,11,1,12,training,zh2x,a,zh2x_a,zh2x_7_axa.wav,,axa.jpg,,,,,,,,,,,,,,,,,,,,,,,,,,,,,,,,,
6122b9ffce05d8e56860755a,2023-06-16_10h02.49.687,phx_ver10,2022.2.5,MacIntel,59.95203837,,,,,space,0.5837,0,37,37,28,1,29,training,zh2x,e,zh2x_e,zh2x_7_exe.wav,,exe.jpg,,,,,,,,,,,,,,,,,,,,,,,,,,,,,,,,,
6122b9ffce05d8e56860755a,2023-06-16_10h02.49.687,phx_ver10,2022.2.5,MacIntel,59.95203837,,,,,space,1.0192,0,38,38,6,1,7,training,zh2x,a,zh2x_a,zh2x_3_azha.wav,,azha.jpg,,,,,,,,,,,,,,,,,,,,,,,,,,,,,,,,,
6122b9ffce05d8e56860755a,2023-06-16_10h02.49.687,phx_ver10,2022.2.5,MacIntel,59.95203837,,,,,space,0.7382,0,39,39,32,1,33,training,zh2x,i,zh2x_i,zh2x_1_izhi.wav,,izhi.jpg,,,,,,,,,,,,,,,,,,,,,,,,,,,,,,,,,
6122b9ffce05d8e56860755a,2023-06-16_10h02.49.687,phx_ver10,2022.2.5,MacIntel,59.95203837,,,,,space,2.2193,0,40,40,8,1,9,training,zh2x,a,zh2x_a,zh2x_5_axa.wav,,axa.jpg,,,,,,,,,,,,,,,,,,,,,,,,,,,,,,,,,
6122b9ffce05d8e56860755a,2023-06-16_10h02.49.687,phx_ver10,2022.2.5,MacIntel,59.95203837,,,,,space,1.8019,0,41,41,4,1,5,training,zh2x,a,zh2x_a,zh2x_2_azha.wav,,azha.jpg,,,,,,,,,,,,,,,,,,,,,,,,,,,,,,,,,
6122b9ffce05d8e56860755a,2023-06-16_10h02.49.687,phx_ver10,2022.2.5,MacIntel,59.95203837,,,,,,,,,,,,,attn_test,,,,zh2x_1_azha.wav,zh2x_8_axa.wav,azha.jpg,LEFT,,f,3.1095,space,4.3094,0,0,0,0,1,,,,,,,,,,,,,,,,,,,,,,
6122b9ffce05d8e56860755a,2023-06-16_10h02.49.687,phx_ver10,2022.2.5,MacIntel,59.95203837,,,,,space,0.6185,0,42,42,23,1,24,training,zh2x,e,zh2x_e,zh2x_4_ezhe.wav,,ezhe.jpg,,,,,,,,,,,,,,,,,,,,,,,,,,,,,,,,,
6122b9ffce05d8e56860755a,2023-06-16_10h02.49.687,phx_ver10,2022.2.5,MacIntel,59.95203837,,,,,space,0.1043,0,43,43,46,1,47,training,zh2x,i,zh2x_i,zh2x_7_ixi.wav,,ixi.jpg,,,,,,,,,,,,,,,,,,,,,,,,,,,,,,,,,
6122b9ffce05d8e56860755a,2023-06-16_10h02.49.687,phx_ver10,2022.2.5,MacIntel,59.95203837,,,,,space,0.0668,0,44,44,17,1,18,training,zh2x,e,zh2x_e,zh2x_2_ezhe.wav,,ezhe.jpg,,,,,,,,,,,,,,,,,,,,,,,,,,,,,,,,,
6122b9ffce05d8e56860755a,2023-06-16_10h02.49.687,phx_ver10,2022.2.5,MacIntel,59.95203837,,,,,space,2.553,0,45,45,12,1,13,training,zh2x,a,zh2x_a,zh2x_7_axa.wav,,axa.jpg,,,,,,,,,,,,,,,,,,,,,,,,,,,,,,,,,
6122b9ffce05d8e56860755a,2023-06-16_10h02.49.687,phx_ver10,2022.2.5,MacIntel,59.95203837,,,,,space,4.3743,0,46,46,34,1,35,training,zh2x,i,zh2x_i,zh2x_2_izhi.wav,,izhi.jpg,,,,,,,,,,,,,,,,,,,,,,,,,,,,,,,,,
6122b9ffce05d8e56860755a,2023-06-16_10h02.49.687,phx_ver10,2022.2.5,MacIntel,59.95203837,,,,,space,0.1176,0,47,47,20,1,21,training,zh2x,e,zh2x_e,zh2x_2_ezhe.wav,,ezhe.jpg,,,,,,,,,,,,,,,,,,,,,,,,,,,,,,,,,
6122b9ffce05d8e56860755a,2023-06-16_10h02.49.687,phx_ver10,2022.2.5,MacIntel,59.95203837,,,,,,,,,,,,,attn_test,,,,zh2x_8_exe.wav,zh2x_1_ezhe.wav,ezhe.jpg,RIGHT,,j,0.89,space,1.2901,,,,,,,,,,,,,,,,,,,,,,,,,,,
6122b9ffce05d8e56860755a,2023-06-16_10h02.49.687,phx_ver10,2022.2.5,MacIntel,59.95203837,,,,,,,,,,,,,,,,,,,,,,,,,,,,,,,space,1.1175,,,,,,,,,,,,,,,,,,,,
6122b9ffce05d8e56860755a,2023-06-16_10h02.49.687,phx_ver10,2022.2.5,MacIntel,59.95203837,,,,,,,,,,,,,,,,,,,,,,,,,,,,,,,,,space,8.6419,,,,,,,,,,,,,,,,,,
6122b9ffce05d8e56860755a,2023-06-16_10h02.49.687,phx_ver10,2022.2.5,MacIntel,59.95203837,,,,,,,,,,,,4,testing_pre,,,,eihei.wav,eihei.wav,,TRUE,,,,,,,,,,,,,,,f,1.3672,space,2.8678,0,0,0,3,1,,,,,,,,,
6122b9ffce05d8e56860755a,2023-06-16_10h02.49.687,phx_ver10,2022.2.5,MacIntel,59.95203837,,,,,,,,,,,,5,testing_pre,,,,ihi.wav,ifi.wav,,FALSE,,,,,,,,,,,,,,,j,0.5901,space,1.4061,0,1,1,4,1,,,,,,,,,
6122b9ffce05d8e56860755a,2023-06-16_10h02.49.687,phx_ver10,2022.2.5,MacIntel,59.95203837,,,,,,,,,,,,3,testing_pre,,,,afa.wav,aha.wav,,FALSE,,,,,,,,,,,,,,,j,0.6454,space,1.6452,0,2,2,2,1,,,,,,,,,
6122b9ffce05d8e56860755a,2023-06-16_10h02.49.687,phx_ver10,2022.2.5,MacIntel,59.95203837,,,,,,,,,,,,2,testing_pre,,,,auhau.wav,aufau.wav,,FALSE,,,,,,,,,,,,,,,j,0.3171,space,0.7383,0,3,3,1,1,,,,,,,,,
6122b9ffce05d8e56860755a,2023-06-16_10h02.49.687,phx_ver10,2022.2.5,MacIntel,59.95203837,,,,,,,,,,,,1,testing_pre,,,,ifi.wav,ifi.wav,,TRUE,,,,,,,,,,,,,,,f,0.1018,space,0.7351,0,4,4,0,1,,,,,,,,,
6122b9ffce05d8e56860755a,2023-06-16_10h02.49.687,phx_ver10,2022.2.5,MacIntel,59.95203837,,,,,,,,,,,,,,,,,,,,,,,,,,,,,,,,,,,,,,,,,,,,space,0.9158,,,,,,,
6122b9ffce05d8e56860755a,2023-06-16_10h02.49.687,phx_ver10,2022.2.5,MacIntel,59.95203837,,,,,,,,,,,,47,testing_3,zh2sh,i,zh2sh_i,zh2sh_1_izhi.wav,zh2sh_8_ishi.wav,,FALSE,FALSE,,,,,,,,,,,,,,j,1.4684,space,1.753,,,,,,,,0,0,0,46,1,,
6122b9ffce05d8e56860755a,2023-06-16_10h02.49.687,phx_ver10,2022.2.5,MacIntel,59.95203837,,,,,,,,,,,,138,testing_3,sh2j,ei,sh2j_ei,sh2j_8_eijei.wav,sh2j_8_eijei.wav,,TRUE,FALSE,,,,,,,,,,,,,,f,0.2848,space,0.7378,,,,,,,,0,1,1,137,1,,
6122b9ffce05d8e56860755a,2023-06-16_10h02.49.687,phx_ver10,2022.2.5,MacIntel,59.95203837,,,,,,,,,,,,40,testing_3,zh2sh,e,zh2sh_e,zh2sh_8_eshe.wav,zh2sh_1_ezhe.wav,,FALSE,FALSE,,,,,,,,,,,,,,j,0.7892,space,1.1846,,,,,,,,0,2,2,39,1,,
6122b9ffce05d8e56860755a,2023-06-16_10h02.49.687,phx_ver10,2022.2.5,MacIntel,59.95203837,,,,,,,,,,,,21,testing_2,zh2x,ei,zh2x_ei,zh2x_1_eizhei.wav,zh2x_1_eizhei.wav,,TRUE,FALSE,,,,,,,,,,,,,,f,1.3737,space,1.8186,,,,,,,,0,3,3,20,1,,
6122b9ffce05d8e56860755a,2023-06-16_10h02.49.687,phx_ver10,2022.2.5,MacIntel,59.95203837,,,,,,,,,,,,99,testing_3,sh2x,a,sh2x_a,sh2x_1_asha.wav,sh2x_8_axa.wav,,FALSE,FALSE,,,,,,,,,,,,,,j,0.3164,space,0.6754,,,,,,,,0,4,4,98,1,,
6122b9ffce05d8e56860755a,2023-06-16_10h02.49.687,phx_ver10,2022.2.5,MacIntel,59.95203837,,,,,,,,,,,,28,testing_3,zh2sh,a,zh2sh_a,zh2sh_8_asha.wav,zh2sh_1_azha.wav,,FALSE,FALSE,,,,,,,,,,,,,,j,0.2248,space,0.5847,,,,,,,,0,5,5,27,1,,
6122b9ffce05d8e56860755a,2023-06-16_10h02.49.687,phx_ver10,2022.2.5,MacIntel,59.95203837,,,,,,,,,,,,32,testing_3,zh2sh,ai,zh2sh_ai,zh2sh_8_aishai.wav,zh2sh_1_aizhai.wav,,FALSE,FALSE,,,,,,,,,,,,,,j,0.1842,space,0.5006,,,,,,,,0,6,6,31,1,,
6122b9ffce05d8e56860755a,2023-06-16_10h02.49.687,phx_ver10,2022.2.5,MacIntel,59.95203837,,,,,,,,,,,,65,testing_3,zh2j,ei,zh2j_ei,zh2j_1_eizhei.wav,zh2j_1_eizhei.wav,,TRUE,FALSE,,,,,,,,,,,,,,f,0.5591,space,0.9005,,,,,,,,0,7,7,64,1,,
6122b9ffce05d8e56860755a,2023-06-16_10h02.49.687,phx_ver10,2022.2.5,MacIntel,59.95203837,,,,,,,,,,,,124,testing_3,sh2j,a,sh2j_a,sh2j_8_aja.wav,sh2j_1_asha.wav,,FALSE,FALSE,,,,,,,,,,,,,,j,0.1839,space,0.5784,,,,,,,,0,8,8,123,1,,
6122b9ffce05d8e56860755a,2023-06-16_10h02.49.687,phx_ver10,2022.2.5,MacIntel,59.95203837,,,,,,,,,,,,29,testing_3,zh2sh,ai,zh2sh_ai,zh2sh_1_aizhai.wav,zh2sh_1_aizhai.wav,,TRUE,FALSE,,,,,,,,,,,,,,f,0.6037,space,1.0038,,,,,,,,0,9,9,28,1,,
6122b9ffce05d8e56860755a,2023-06-16_10h02.49.687,phx_ver10,2022.2.5,MacIntel,59.95203837,,,,,,,,,,,,137,testing_3,sh2j,ei,sh2j_ei,sh2j_1_eishei.wav,sh2j_1_eishei.wav,,TRUE,FALSE,,,,,,,,,,,,,,f,1.1519,space,1.4763,,,,,,,,0,10,10,136,1,,
6122b9ffce05d8e56860755a,2023-06-16_10h02.49.687,phx_ver10,2022.2.5,MacIntel,59.95203837,,,,,,,,,,,,17,testing_2,zh2x,au,zh2x_au,zh2x_1_auzhau.wav,zh2x_1_auzhau.wav,,TRUE,FALSE,,,,,,,,,,,,,,f,0.1673,space,0.5681,,,,,,,,0,11,11,16,1,,
6122b9ffce05d8e56860755a,2023-06-16_10h02.49.687,phx_ver10,2022.2.5,MacIntel,59.95203837,,,,,,,,,,,,131,testing_3,sh2j,au,sh2j_au,sh2j_1_aushau.wav,sh2j_8_aujau.wav,,FALSE,FALSE,,,,,,,,,,,,,,j,0.0331,space,0.4181,,,,,,,,0,12,12,130,1,,
6122b9ffce05d8e56860755a,2023-06-16_10h02.49.687,phx_ver10,2022.2.5,MacIntel,59.95203837,,,,,,,,,,,,142,testing_3,sh2j,i,sh2j_i,sh2j_8_iji.wav,sh2j_8_iji.wav,,TRUE,FALSE,,,,,,,,,,,,,,f,0.386,space,0.7177,,,,,,,,0,13,13,141,1,,
6122b9ffce05d8e56860755a,2023-06-16_10h02.49.687,phx_ver10,2022.2.5,MacIntel,59.95203837,,,,,,,,,,,,25,testing_3,zh2sh,a,zh2sh_a,zh2sh_1_azha.wav,zh2sh_1_azha.wav,,TRUE,FALSE,,,,,,,,,,,,,,f,0.0004,space,0.417,,,,,,,,0,14,14,24,1,,
6122b9ffce05d8e56860755a,2023-06-16_10h02.49.687,phx_ver10,2022.2.5,MacIntel,59.95203837,,,,,,,,,,,,44,testing_3,zh2sh,ei,zh2sh_ei,zh2sh_8_eishei.wav,zh2sh_1_eizhei.wav,,FALSE,FALSE,,,,,,,,,,,,,,j,0.5582,space,0.9021,,,,,,,,0,15,15,43,1,,
6122b9ffce05d8e56860755a,2023-06-16_10h02.49.687,phx_ver10,2022.2.5,MacIntel,59.95203837,,,,,,,,,,,,101,testing_3,sh2x,ai,sh2x_ai,sh2x_1_aishai.wav,sh2x_1_aishai.wav,,TRUE,FALSE,,,,,,,,,,,,,,f,0.3857,space,0.7691,,,,,,,,0,16,16,100,1,,
6122b9ffce05d8e56860755a,2023-06-16_10h02.49.687,phx_ver10,2022.2.5,MacIntel,59.95203837,,,,,,,,,,,,130,testing_3,sh2j,au,sh2j_au,sh2j_8_aujau.wav,sh2j_8_aujau.wav,,TRUE,FALSE,,,,,,,,,,,,,,f,0.3558,space,0.9076,,,,,,,,0,17,17,129,1,,
6122b9ffce05d8e56860755a,2023-06-16_10h02.49.687,phx_ver10,2022.2.5,MacIntel,59.95203837,,,,,,,,,,,,38,testing_3,zh2sh,e,zh2sh_e,zh2sh_8_eshe.wav,zh2sh_8_eshe.wav,,TRUE,FALSE,,,,,,,,,,,,,,f,0.0236,space,0.4011,,,,,,,,0,18,18,37,1,,
6122b9ffce05d8e56860755a,2023-06-16_10h02.49.687,phx_ver10,2022.2.5,MacIntel,59.95203837,,,,,,,,,,,,14,testing_2,zh2x,ai,zh2x_ai,zh2x_8_aixai.wav,zh2x_8_aixai.wav,,TRUE,FALSE,,,,,,,,,,,,,,f,0.3673,space,0.7182,,,,,,,,0,19,19,13,1,,
6122b9ffce05d8e56860755a,2023-06-16_10h02.49.687,phx_ver10,2022.2.5,MacIntel,59.95203837,,,,,,,,,,,,108,testing_3,sh2x,au,sh2x_au,sh2x_8_auxau.wav,sh2x_1_aushau.wav,,FALSE,FALSE,,,,,,,,,,,,,,j,0.3512,space,0.6849,,,,,,,,0,20,20,107,1,,
6122b9ffce05d8e56860755a,2023-06-16_10h02.49.687,phx_ver10,2022.2.5,MacIntel,59.95203837,,,,,,,,,,,,114,testing_3,sh2x,ei,sh2x_ei,sh2x_8_eixei.wav,sh2x_8_eixei.wav,,TRUE,FALSE,,,,,,,,,,,,,,f,0.367,space,0.7511,,,,,,,,0,21,21,113,1,,
6122b9ffce05d8e56860755a,2023-06-16_10h02.49.687,phx_ver10,2022.2.5,MacIntel,59.95203837,,,,,,,,,,,,117,testing_3,sh2x,i,sh2x_i,sh2x_1_ishi.wav,sh2x_1_ishi.wav,,TRUE,FALSE,,,,,,,,,,,,,,f,0.0581,space,0.4846,,,,,,,,0,22,22,116,1,,
6122b9ffce05d8e56860755a,2023-06-16_10h02.49.687,phx_ver10,2022.2.5,MacIntel,59.95203837,,,,,,,,,,,,97,testing_3,sh2x,a,sh2x_a,sh2x_1_asha.wav,sh2x_1_asha.wav,,TRUE,FALSE,,,,,,,,,,,,,,f,0.3187,space,0.6704,,,,,,,,0,23,23,96,1,,
6122b9ffce05d8e56860755a,2023-06-16_10h02.49.687,phx_ver10,2022.2.5,MacIntel,59.95203837,,,,,,,,,,,,123,testing_3,sh2j,a,sh2j_a,sh2j_1_asha.wav,sh2j_8_aja.wav,,FALSE,FALSE,,,,,,,,,,,,,,j,0.1171,space,0.4845,,,,,,,,0,24,24,122,1,,
6122b9ffce05d8e56860755a,2023-06-16_10h02.49.687,phx_ver10,2022.2.5,MacIntel,59.95203837,,,,,,,,,,,,105,testing_3,sh2x,au,sh2x_au,sh2x_1_aushau.wav,sh2x_1_aushau.wav,,TRUE,FALSE,,,,,,,,,,,,,,f,0.2013,space,0.5533,,,,,,,,0,25,25,104,1,,
6122b9ffce05d8e56860755a,2023-06-16_10h02.49.687,phx_ver10,2022.2.5,MacIntel,59.95203837,,,,,,,,,,,,109,testing_3,sh2x,e,sh2x_e,sh2x_1_eshe.wav,sh2x_1_eshe.wav,,TRUE,FALSE,,,,,,,,,,,,,,f,0.1715,space,0.4914,,,,,,,,0,26,26,108,1,,
6122b9ffce05d8e56860755a,2023-06-16_10h02.49.687,phx_ver10,2022.2.5,MacIntel,59.95203837,,,,,,,,,,,,132,testing_3,sh2j,au,sh2j_au,sh2j_8_aujau.wav,sh2j_1_aushau.wav,,FALSE,FALSE,,,,,,,,,,,,,,j,0.09,space,0.4008,,,,,,,,0,27,27,131,1,,
6122b9ffce05d8e56860755a,2023-06-16_10h02.49.687,phx_ver10,2022.2.5,MacIntel,59.95203837,,,,,,,,,,,,120,testing_3,sh2x,i,sh2x_i,sh2x_8_ixi.wav,sh2x_1_ishi.wav,,FALSE,FALSE,,,,,,,,,,,,,,j,0.3174,space,0.602,,,,,,,,0,28,28,119,1,,
6122b9ffce05d8e56860755a,2023-06-16_10h02.49.687,phx_ver10,2022.2.5,MacIntel,59.95203837,,,,,,,,,,,,27,testing_3,zh2sh,a,zh2sh_a,zh2sh_1_azha.wav,zh2sh_8_asha.wav,,FALSE,FALSE,,,,,,,,,,,,,,j,0.2468,space,0.5549,,,,,,,,0,29,29,26,1,,
6122b9ffce05d8e56860755a,2023-06-16_10h02.49.687,phx_ver10,2022.2.5,MacIntel,59.95203837,,,,,,,,,,,,63,testing_3,zh2j,e,zh2j_e,zh2j_1_ezhe.wav,zh2j_8_eje.wav,,FALSE,FALSE,,,,,,,,,,,,,,j,0.1676,space,0.4843,,,,,,,,0,30,30,62,1,,
6122b9ffce05d8e56860755a,2023-06-16_10h02.49.687,phx_ver10,2022.2.5,MacIntel,59.95203837,,,,,,,,,,,,15,testing_2,zh2x,ai,zh2x_ai,zh2x_1_aizhai.wav,zh2x_8_aixai.wav,,FALSE,FALSE,,,,,,,,,,,,,,j,0.017,space,0.3384,,,,,,,,0,31,31,14,1,,
6122b9ffce05d8e56860755a,2023-06-16_10h02.49.687,phx_ver10,2022.2.5,MacIntel,59.95203837,,,,,,,,,,,,72,testing_3,zh2j,i,zh2j_i,zh2j_8_iji.wav,zh2j_1_izhi.wav,,FALSE,FALSE,,,,,,,,,,,,,,j,0.1009,space,0.3901,,,,,,,,0,32,32,71,1,,
6122b9ffce05d8e56860755a,2023-06-16_10h02.49.687,phx_ver10,2022.2.5,MacIntel,59.95203837,,,,,,,,,,,,34,testing_3,zh2sh,au,zh2sh_au,zh2sh_8_aushau.wav,zh2sh_8_aushau.wav,,TRUE,FALSE,,,,,,,,,,,,,,f,0.3912,space,0.7189,,,,,,,,0,33,33,33,1,,
6122b9ffce05d8e56860755a,2023-06-16_10h02.49.687,phx_ver10,2022.2.5,MacIntel,59.95203837,,,,,,,,,,,,3,testing_1,zh2x,a,zh2x_a,zh2x_1_azha.wav,zh2x_8_axa.wav,,FALSE,TRUE,,,,,,,,,,,,,,j,0.1344,space,0.4745,,,,,,,,0,34,34,2,1,,
6122b9ffce05d8e56860755a,2023-06-16_10h02.49.687,phx_ver10,2022.2.5,MacIntel,59.95203837,,,,,,,,,,,,13,testing_2,zh2x,ai,zh2x_ai,zh2x_1_aizhai.wav,zh2x_1_aizhai.wav,,TRUE,FALSE,,,,,,,,,,,,,,f,0.0084,space,0.3042,,,,,,,,0,35,35,12,1,,
6122b9ffce05d8e56860755a,2023-06-16_10h02.49.687,phx_ver10,2022.2.5,MacIntel,59.95203837,,,,,,,,,,,,35,testing_3,zh2sh,au,zh2sh_au,zh2sh_1_auzhau.wav,zh2sh_8_aushau.wav,,FALSE,FALSE,,,,,,,,,,,,,,j,0.0677,space,0.3727,,,,,,,,0,36,36,34,1,,
6122b9ffce05d8e56860755a,2023-06-16_10h02.49.687,phx_ver10,2022.2.5,MacIntel,59.95203837,,,,,,,,,,,,37,testing_3,zh2sh,e,zh2sh_e,zh2sh_1_ezhe.wav,zh2sh_1_ezhe.wav,,TRUE,FALSE,,,,,,,,,,,,,,f,0.0709,space,0.4001,,,,,,,,0,37,37,36,1,,
6122b9ffce05d8e56860755a,2023-06-16_10h02.49.687,phx_ver10,2022.2.5,MacIntel,59.95203837,,,,,,,,,,,,56,testing_3,zh2j,ai,zh2j_ai,zh2j_8_aijai.wav,zh2j_1_aizhai.wav,,FALSE,FALSE,,,,,,,,,,,,,,j,0.8236,space,1.2716,,,,,,,,0,38,38,55,1,,
6122b9ffce05d8e56860755a,2023-06-16_10h02.49.687,phx_ver10,2022.2.5,MacIntel,59.95203837,,,,,,,,,,,,98,testing_3,sh2x,a,sh2x_a,sh2x_8_axa.wav,sh2x_8_axa.wav,,TRUE,FALSE,,,,,,,,,,,,,,j,0.4032,space,0.7555,,,,,,,,0,39,39,97,1,,
6122b9ffce05d8e56860755a,2023-06-16_10h02.49.687,phx_ver10,2022.2.5,MacIntel,59.95203837,,,,,,,,,,,,94,testing_3,j2x,i,j2x_i,j2x_8_ixi.wav,j2x_8_ixi.wav,,TRUE,FALSE,,,,,,,,,,,,,,j,0.0218,space,0.3896,,,,,,,,0,40,40,93,1,,
6122b9ffce05d8e56860755a,2023-06-16_10h02.49.687,phx_ver10,2022.2.5,MacIntel,59.95203837,,,,,,,,,,,,18,testing_2,zh2x,au,zh2x_au,zh2x_8_auxau.wav,zh2x_8_auxau.wav,,TRUE,FALSE,,,,,,,,,,,,,,f,1.3516,space,1.8066,,,,,,,,0,41,41,17,1,,
6122b9ffce05d8e56860755a,2023-06-16_10h02.49.687,phx_ver10,2022.2.5,MacIntel,59.95203837,,,,,,,,,,,,59,testing_3,zh2j,au,zh2j_au,zh2j_1_auzhau.wav,zh2j_8_aujau.wav,,FALSE,FALSE,,,,,,,,,,,,,,j,0.3669,space,0.7176,,,,,,,,0,42,42,58,1,,
6122b9ffce05d8e56860755a,2023-06-16_10h02.49.687,phx_ver10,2022.2.5,MacIntel,59.95203837,,,,,,,,,,,,129,testing_3,sh2j,au,sh2j_au,sh2j_1_aushau.wav,sh2j_1_aushau.wav,,TRUE,FALSE,,,,,,,,,,,,,,f,0.0414,space,0.4334,,,,,,,,0,43,43,128,1,,
6122b9ffce05d8e56860755a,2023-06-16_10h02.49.687,phx_ver10,2022.2.5,MacIntel,59.95203837,,,,,,,,,,,,77,testing_3,j2x,ai,j2x_ai,j2x_1_aijai.wav,j2x_1_aijai.wav,,TRUE,FALSE,,,,,,,,,,,,,,f,0.4006,space,0.8513,,,,,,,,0,44,44,76,1,,
6122b9ffce05d8e56860755a,2023-06-16_10h02.49.687,phx_ver10,2022.2.5,MacIntel,59.95203837,,,,,,,,,,,,106,testing_3,sh2x,au,sh2x_au,sh2x_8_auxau.wav,sh2x_8_auxau.wav,,TRUE,FALSE,,,,,,,,,,,,,,f,0.3754,space,0.7193,,,,,,,,0,45,45,105,1,,
6122b9ffce05d8e56860755a,2023-06-16_10h02.49.687,phx_ver10,2022.2.5,MacIntel,59.95203837,,,,,,,,,,,,112,testing_3,sh2x,e,sh2x_e,sh2x_8_exe.wav,sh2x_1_eshe.wav,,FALSE,FALSE,,,,,,,,,,,,,,j,0.2011,space,0.6011,,,,,,,,0,46,46,111,1,,
6122b9ffce05d8e56860755a,2023-06-16_10h02.49.687,phx_ver10,2022.2.5,MacIntel,59.95203837,,,,,,,,,,,,9,testing_1,zh2x,i,zh2x_i,zh2x_1_izhi.wav,zh2x_1_izhi_copy.wav,,TRUE,TRUE,,,,,,,,,,,,,,f,0.7388,space,1.1188,,,,,,,,0,47,47,8,1,,
6122b9ffce05d8e56860755a,2023-06-16_10h02.49.687,phx_ver10,2022.2.5,MacIntel,59.95203837,,,,,,,,,,,,107,testing_3,sh2x,au,sh2x_au,sh2x_1_aushau.wav,sh2x_8_auxau.wav,,FALSE,FALSE,,,,,,,,,,,,,,j,0.4174,space,0.7898,,,,,,,,0,48,48,106,1,,
6122b9ffce05d8e56860755a,2023-06-16_10h02.49.687,phx_ver10,2022.2.5,MacIntel,59.95203837,,,,,,,,,,,,91,testing_3,j2x,ei,j2x_ei,j2x_1_eijei.wav,j2x_8_eixei.wav,,FALSE,FALSE,,,,,,,,,,,,,,j,0.2346,space,0.6545,,,,,,,,0,49,49,90,1,,
6122b9ffce05d8e56860755a,2023-06-16_10h02.49.687,phx_ver10,2022.2.5,MacIntel,59.95203837,,,,,,,,,,,,82,testing_3,j2x,au,j2x_au,j2x_8_auxau.wav,j2x_8_auxau.wav,,TRUE,FALSE,,,,,,,,,,,,,,f,0.8514,space,1.2458,,,,,,,,0,50,50,81,1,,
6122b9ffce05d8e56860755a,2023-06-16_10h02.49.687,phx_ver10,2022.2.5,MacIntel,59.95203837,,,,,,,,,,,,11,testing_1,zh2x,i,zh2x_i,zh2x_1_izhi.wav,zh2x_8_ixi.wav,,FALSE,TRUE,,,,,,,,,,,,,,j,0.0501,space,0.4508,,,,,,,,0,51,51,10,1,,
6122b9ffce05d8e56860755a,2023-06-16_10h02.49.687,phx_ver10,2022.2.5,MacIntel,59.95203837,,,,,,,,,,,,22,testing_2,zh2x,ei,zh2x_ei,zh2x_8_eixei.wav,zh2x_8_eixei.wav,,TRUE,FALSE,,,,,,,,,,,,,,f,0.1536,space,0.6845,,,,,,,,0,52,52,21,1,,
6122b9ffce05d8e56860755a,2023-06-16_10h02.49.687,phx_ver10,2022.2.5,MacIntel,59.95203837,,,,,,,,,,,,67,testing_3,zh2j,ei,zh2j_ei,zh2j_1_eizhei.wav,zh2j_8_eijei.wav,,FALSE,FALSE,,,,,,,,,,,,,,j,0.2844,space,0.6224,,,,,,,,0,53,53,66,1,,
6122b9ffce05d8e56860755a,2023-06-16_10h02.49.687,phx_ver10,2022.2.5,MacIntel,59.95203837,,,,,,,,,,,,58,testing_3,zh2j,au,zh2j_au,zh2j_8_aujau.wav,zh2j_8_aujau.wav,,TRUE,FALSE,,,,,,,,,,,,,,f,0.3341,space,0.6863,,,,,,,,0,54,54,57,1,,
6122b9ffce05d8e56860755a,2023-06-16_10h02.49.687,phx_ver10,2022.2.5,MacIntel,59.95203837,,,,,,,,,,,,33,testing_3,zh2sh,au,zh2sh_au,zh2sh_1_auzhau.wav,zh2sh_1_auzhau.wav,,TRUE,FALSE,,,,,,,,,,,,,,f,0.0994,space,0.4748,,,,,,,,0,55,55,32,1,,
6122b9ffce05d8e56860755a,2023-06-16_10h02.49.687,phx_ver10,2022.2.5,MacIntel,59.95203837,,,,,,,,,,,,141,testing_3,sh2j,i,sh2j_i,sh2j_1_ishi.wav,sh2j_1_ishi.wav,,TRUE,FALSE,,,,,,,,,,,,,,f,0.5678,space,1.1057,,,,,,,,0,56,56,140,1,,
6122b9ffce05d8e56860755a,2023-06-16_10h02.49.687,phx_ver10,2022.2.5,MacIntel,59.95203837,,,,,,,,,,,,71,testing_3,zh2j,i,zh2j_i,zh2j_1_izhi.wav,zh2j_8_iji.wav,,FALSE,FALSE,,,,,,,,,,,,,,j,0.1891,space,0.5333,,,,,,,,0,57,57,70,1,,
6122b9ffce05d8e56860755a,2023-06-16_10h02.49.687,phx_ver10,2022.2.5,MacIntel,59.95203837,,,,,,,,,,,,143,testing_3,sh2j,i,sh2j_i,sh2j_1_ishi.wav,sh2j_8_iji.wav,,FALSE,FALSE,,,,,,,,,,,,,,j,0.0169,space,0.3197,,,,,,,,0,58,58,142,1,,
6122b9ffce05d8e56860755a,2023-06-16_10h02.49.687,phx_ver10,2022.2.5,MacIntel,59.95203837,,,,,,,,,,,,54,testing_3,zh2j,ai,zh2j_ai,zh2j_8_aijai.wav,zh2j_8_aijai.wav,,TRUE,FALSE,,,,,,,,,,,,,,f,0.0346,space,0.4006,,,,,,,,0,59,59,53,1,,
6122b9ffce05d8e56860755a,2023-06-16_10h02.49.687,phx_ver10,2022.2.5,MacIntel,59.95203837,,,,,,,,,,,,87,testing_3,j2x,e,j2x_e,j2x_1_eje.wav,j2x_8_exe.wav,,FALSE,FALSE,,,,,,,,,,,,,,j,0.1679,space,0.5172,,,,,,,,0,60,60,86,1,,
6122b9ffce05d8e56860755a,2023-06-16_10h02.49.687,phx_ver10,2022.2.5,MacIntel,59.95203837,,,,,,,,,,,,103,testing_3,sh2x,ai,sh2x_ai,sh2x_1_aishai.wav,sh2x_8_aixai.wav,,FALSE,FALSE,,,,,,,,,,,,,,j,0.3363,space,0.6884,,,,,,,,0,61,61,102,1,,
6122b9ffce05d8e56860755a,2023-06-16_10h02.49.687,phx_ver10,2022.2.5,MacIntel,59.95203837,,,,,,,,,,,,43,testing_3,zh2sh,ei,zh2sh_ei,zh2sh_1_eizhei.wav,zh2sh_8_eishei.wav,,FALSE,FALSE,,,,,,,,,,,,,,j,1.2647,space,1.618,,,,,,,,0,62,62,42,1,,
6122b9ffce05d8e56860755a,2023-06-16_10h02.49.687,phx_ver10,2022.2.5,MacIntel,59.95203837,,,,,,,,,,,,116,testing_3,sh2x,ei,sh2x_ei,sh2x_8_eixei.wav,sh2x_1_eishei.wav,,FALSE,FALSE,,,,,,,,,,,,,,j,0.1271,space,0.439,,,,,,,,0,63,63,115,1,,
6122b9ffce05d8e56860755a,2023-06-16_10h02.49.687,phx_ver10,2022.2.5,MacIntel,59.95203837,,,,,,,,,,,,118,testing_3,sh2x,i,sh2x_i,sh2x_8_ixi.wav,sh2x_8_ixi.wav,,TRUE,FALSE,,,,,,,,,,,,,,f,0.5003,space,0.884,,,,,,,,0,64,64,117,1,,
6122b9ffce05d8e56860755a,2023-06-16_10h02.49.687,phx_ver10,2022.2.5,MacIntel,59.95203837,,,,,,,,,,,,115,testing_3,sh2x,ei,sh2x_ei,sh2x_1_eishei.wav,sh2x_8_eixei.wav,,FALSE,FALSE,,,,,,,,,,,,,,j,0.1507,space,0.5005,,,,,,,,0,65,65,114,1,,
6122b9ffce05d8e56860755a,2023-06-16_10h02.49.687,phx_ver10,2022.2.5,MacIntel,59.95203837,,,,,,,,,,,,92,testing_3,j2x,ei,j2x_ei,j2x_8_eixei.wav,j2x_1_eijei.wav,,FALSE,FALSE,,,,,,,,,,,,,,j,0.1009,space,0.476,,,,,,,,0,66,66,91,1,,
6122b9ffce05d8e56860755a,2023-06-16_10h02.49.687,phx_ver10,2022.2.5,MacIntel,59.95203837,,,,,,,,,,,,4,testing_1,zh2x,a,zh2x_a,zh2x_8_axa.wav,zh2x_1_azha.wav,,FALSE,TRUE,,,,,,,,,,,,,,j,0.0005,space,0.3865,,,,,,,,0,67,67,3,1,,
6122b9ffce05d8e56860755a,2023-06-16_10h02.49.687,phx_ver10,2022.2.5,MacIntel,59.95203837,,,,,,,,,,,,135,testing_3,sh2j,e,sh2j_e,sh2j_1_eshe.wav,sh2j_8_eje.wav,,FALSE,FALSE,,,,,,,,,,,,,,j,0.1011,space,0.4673,,,,,,,,0,68,68,134,1,,
6122b9ffce05d8e56860755a,2023-06-16_10h02.49.687,phx_ver10,2022.2.5,MacIntel,59.95203837,,,,,,,,,,,,69,testing_3,zh2j,i,zh2j_i,zh2j_1_izhi.wav,zh2j_1_izhi.wav,,TRUE,FALSE,,,,,,,,,,,,,,f,0.034,space,0.4085,,,,,,,,0,69,69,68,1,,
6122b9ffce05d8e56860755a,2023-06-16_10h02.49.687,phx_ver10,2022.2.5,MacIntel,59.95203837,,,,,,,,,,,,121,testing_3,sh2j,a,sh2j_a,sh2j_1_asha.wav,sh2j_1_asha.wav,,TRUE,FALSE,,,,,,,,,,,,,,f,0.4891,space,0.7849,,,,,,,,0,70,70,120,1,,
6122b9ffce05d8e56860755a,2023-06-16_10h02.49.687,phx_ver10,2022.2.5,MacIntel,59.95203837,,,,,,,,,,,,64,testing_3,zh2j,e,zh2j_e,zh2j_8_eje.wav,zh2j_1_ezhe.wav,,FALSE,FALSE,,,,,,,,,,,,,,j,0.1674,space,0.5004,,,,,,,,0,71,71,63,1,,
6122b9ffce05d8e56860755a,2023-06-16_10h02.49.687,phx_ver10,2022.2.5,MacIntel,59.95203837,,,,,,,,,,,,110,testing_3,sh2x,e,sh2x_e,sh2x_8_exe.wav,sh2x_8_exe.wav,,TRUE,FALSE,,,,,,,,,,,,,,f,0.0863,space,0.4383,,,,,,,,0,72,72,109,1,,
6122b9ffce05d8e56860755a,2023-06-16_10h02.49.687,phx_ver10,2022.2.5,MacIntel,59.95203837,,,,,,,,,,,,7,testing_1,zh2x,e,zh2x_e,zh2x_1_ezhe.wav,zh2x_8_exe.wav,,FALSE,TRUE,,,,,,,,,,,,,,j,0.2223,space,0.5423,,,,,,,,0,73,73,6,1,,
6122b9ffce05d8e56860755a,2023-06-16_10h02.49.687,phx_ver10,2022.2.5,MacIntel,59.95203837,,,,,,,,,,,,75,testing_3,j2x,a,j2x_a,j2x_1_aja.wav,j2x_8_axa.wav,,FALSE,FALSE,,,,,,,,,,,,,,j,0.0161,space,0.352,,,,,,,,0,74,74,74,1,,
6122b9ffce05d8e56860755a,2023-06-16_10h02.49.687,phx_ver10,2022.2.5,MacIntel,59.95203837,,,,,,,,,,,,20,testing_2,zh2x,au,zh2x_au,zh2x_8_auxau.wav,zh2x_1_auzhau.wav,,FALSE,FALSE,,,,,,,,,,,,,,j,1.7852,space,2.2019,,,,,,,,0,75,75,19,1,,
6122b9ffce05d8e56860755a,2023-06-16_10h02.49.687,phx_ver10,2022.2.5,MacIntel,59.95203837,,,,,,,,,,,,95,testing_3,j2x,i,j2x_i,j2x_1_iji.wav,j2x_8_ixi.wav,,FALSE,FALSE,,,,,,,,,,,,,,f,3.2192,space,4.0269,,,,,,,,0,76,76,94,1,,
6122b9ffce05d8e56860755a,2023-06-16_10h02.49.687,phx_ver10,2022.2.5,MacIntel,59.95203837,,,,,,,,,,,,102,testing_3,sh2x,ai,sh2x_ai,sh2x_8_aixai.wav,sh2x_8_aixai.wav,,TRUE,FALSE,,,,,,,,,,,,,,f,0.071,space,0.4393,,,,,,,,0,77,77,101,1,,
6122b9ffce05d8e56860755a,2023-06-16_10h02.49.687,phx_ver10,2022.2.5,MacIntel,59.95203837,,,,,,,,,,,,10,testing_1,zh2x,i,zh2x_i,zh2x_8_ixi.wav,zh2x_8_ixi_copy.wav,,TRUE,TRUE,,,,,,,,,,,,,,f,0.3347,space,0.671,,,,,,,,0,78,78,9,1,,
6122b9ffce05d8e56860755a,2023-06-16_10h02.49.687,phx_ver10,2022.2.5,MacIntel,59.95203837,,,,,,,,,,,,76,testing_3,j2x,a,j2x_a,j2x_8_axa.wav,j2x_1_aja.wav,,FALSE,FALSE,,,,,,,,,,,,,,j,0.7723,space,1.0854,,,,,,,,0,79,79,75,1,,
6122b9ffce05d8e56860755a,2023-06-16_10h02.49.687,phx_ver10,2022.2.5,MacIntel,59.95203837,,,,,,,,,,,,127,testing_3,sh2j,ai,sh2j_ai,sh2j_1_aishai.wav,sh2j_8_aijai.wav,,FALSE,FALSE,,,,,,,,,,,,,,j,0.7054,space,1.0851,,,,,,,,0,80,80,126,1,,
6122b9ffce05d8e56860755a,2023-06-16_10h02.49.687,phx_ver10,2022.2.5,MacIntel,59.95203837,,,,,,,,,,,,79,testing_3,j2x,ai,j2x_ai,j2x_1_aijai.wav,j2x_8_aixai.wav,,FALSE,FALSE,,,,,,,,,,,,,,j,0.2857,space,0.6377,,,,,,,,0,81,81,78,1,,
6122b9ffce05d8e56860755a,2023-06-16_10h02.49.687,phx_ver10,2022.2.5,MacIntel,59.95203837,,,,,,,,,,,,83,testing_3,j2x,au,j2x_au,j2x_1_aujau.wav,j2x_8_auxau.wav,,FALSE,FALSE,,,,,,,,,,,,,,j,0.4831,space,0.8338,,,,,,,,0,82,82,82,1,,
6122b9ffce05d8e56860755a,2023-06-16_10h02.49.687,phx_ver10,2022.2.5,MacIntel,59.95203837,,,,,,,,,,,,122,testing_3,sh2j,a,sh2j_a,sh2j_8_aja.wav,sh2j_8_aja.wav,,TRUE,FALSE,,,,,,,,,,,,,,f,0.2507,space,0.6195,,,,,,,,0,83,83,121,1,,
6122b9ffce05d8e56860755a,2023-06-16_10h02.49.687,phx_ver10,2022.2.5,MacIntel,59.95203837,,,,,,,,,,,,39,testing_3,zh2sh,e,zh2sh_e,zh2sh_1_ezhe.wav,zh2sh_8_eshe.wav,,FALSE,FALSE,,,,,,,,,,,,,,j,0.0747,space,0.3867,,,,,,,,0,84,84,38,1,,
6122b9ffce05d8e56860755a,2023-06-16_10h02.49.687,phx_ver10,2022.2.5,MacIntel,59.95203837,,,,,,,,,,,,134,testing_3,sh2j,e,sh2j_e,sh2j_8_eje.wav,sh2j_8_eje.wav,,TRUE,FALSE,,,,,,,,,,,,,,f,0.0845,space,0.4671,,,,,,,,0,85,85,133,1,,
6122b9ffce05d8e56860755a,2023-06-16_10h02.49.687,phx_ver10,2022.2.5,MacIntel,59.95203837,,,,,,,,,,,,73,testing_3,j2x,a,j2x_a,j2x_1_aja.wav,j2x_1_aja.wav,,TRUE,FALSE,,,,,,,,,,,,,,f,0.4418,space,0.7858,,,,,,,,0,86,86,72,1,,
6122b9ffce05d8e56860755a,2023-06-16_10h02.49.687,phx_ver10,2022.2.5,MacIntel,59.95203837,,,,,,,,,,,,86,testing_3,j2x,e,j2x_e,j2x_8_exe.wav,j2x_8_exe.wav,,TRUE,FALSE,,,,,,,,,,,,,,f,0.3227,space,0.6185,,,,,,,,0,87,87,85,1,,
6122b9ffce05d8e56860755a,2023-06-16_10h02.49.687,phx_ver10,2022.2.5,MacIntel,59.95203837,,,,,,,,,,,,19,testing_2,zh2x,au,zh2x_au,zh2x_1_auzhau.wav,zh2x_8_auxau.wav,,FALSE,FALSE,,,,,,,,,,,,,,j,0.2911,space,0.603,,,,,,,,0,88,88,18,1,,
6122b9ffce05d8e56860755a,2023-06-16_10h02.49.687,phx_ver10,2022.2.5,MacIntel,59.95203837,,,,,,,,,,,,2,testing_1,zh2x,a,zh2x_a,zh2x_8_axa.wav,zh2x_8_axa_copy.wav,,TRUE,TRUE,,,,,,,,,,,,,,f,0.4507,space,0.8427,,,,,,,,0,89,89,1,1,,
6122b9ffce05d8e56860755a,2023-06-16_10h02.49.687,phx_ver10,2022.2.5,MacIntel,59.95203837,,,,,,,,,,,,57,testing_3,zh2j,au,zh2j_au,zh2j_1_auzhau.wav,zh2j_1_auzhau.wav,,TRUE,FALSE,,,,,,,,,,,,,,f,0.2579,space,0.6578,,,,,,,,0,90,90,56,1,,
6122b9ffce05d8e56860755a,2023-06-16_10h02.49.687,phx_ver10,2022.2.5,MacIntel,59.95203837,,,,,,,,,,,,80,testing_3,j2x,ai,j2x_ai,j2x_8_aixai.wav,j2x_1_aijai.wav,,FALSE,FALSE,,,,,,,,,,,,,,j,0.1336,space,0.504,,,,,,,,0,91,91,79,1,,
6122b9ffce05d8e56860755a,2023-06-16_10h02.49.687,phx_ver10,2022.2.5,MacIntel,59.95203837,,,,,,,,,,,,45,testing_3,zh2sh,i,zh2sh_i,zh2sh_1_izhi.wav,zh2sh_1_izhi.wav,,TRUE,FALSE,,,,,,,,,,,,,,f,0.0036,space,0.4514,,,,,,,,0,92,92,44,1,,
6122b9ffce05d8e56860755a,2023-06-16_10h02.49.687,phx_ver10,2022.2.5,MacIntel,59.95203837,,,,,,,,,,,,6,testing_1,zh2x,e,zh2x_e,zh2x_8_exe.wav,zh2x_8_exe_copy.wav,,TRUE,TRUE,,,,,,,,,,,,,,f,0.3006,space,0.6674,,,,,,,,0,93,93,5,1,,
6122b9ffce05d8e56860755a,2023-06-16_10h02.49.687,phx_ver10,2022.2.5,MacIntel,59.95203837,,,,,,,,,,,,46,testing_3,zh2sh,i,zh2sh_i,zh2sh_8_ishi.wav,zh2sh_8_ishi.wav,,TRUE,FALSE,,,,,,,,,,,,,,f,0.2166,space,0.5765,,,,,,,,0,94,94,45,1,,
6122b9ffce05d8e56860755a,2023-06-16_10h02.49.687,phx_ver10,2022.2.5,MacIntel,59.95203837,,,,,,,,,,,,125,testing_3,sh2j,ai,sh2j_ai,sh2j_1_aishai.wav,sh2j_1_aishai.wav,,TRUE,FALSE,,,,,,,,,,,,,,f,0.2742,space,0.6179,,,,,,,,0,95,95,124,1,,
6122b9ffce05d8e56860755a,2023-06-16_10h02.49.687,phx_ver10,2022.2.5,MacIntel,59.95203837,,,,,,,,,,,,81,testing_3,j2x,au,j2x_au,j2x_1_aujau.wav,j2x_1_aujau.wav,,TRUE,FALSE,,,,,,,,,,,,,,f,0.184,space,0.611,,,,,,,,0,96,96,80,1,,
6122b9ffce05d8e56860755a,2023-06-16_10h02.49.687,phx_ver10,2022.2.5,MacIntel,59.95203837,,,,,,,,,,,,90,testing_3,j2x,ei,j2x_ei,j2x_8_eixei.wav,j2x_8_eixei.wav,,TRUE,FALSE,,,,,,,,,,,,,,f,0.2182,space,0.6025,,,,,,,,0,97,97,89,1,,
6122b9ffce05d8e56860755a,2023-06-16_10h02.49.687,phx_ver10,2022.2.5,MacIntel,59.95203837,,,,,,,,,,,,78,testing_3,j2x,ai,j2x_ai,j2x_8_aixai.wav,j2x_8_aixai.wav,,TRUE,FALSE,,,,,,,,,,,,,,f,0.3066,space,0.6681,,,,,,,,0,98,98,77,1,,
6122b9ffce05d8e56860755a,2023-06-16_10h02.49.687,phx_ver10,2022.2.5,MacIntel,59.95203837,,,,,,,,,,,,48,testing_3,zh2sh,i,zh2sh_i,zh2sh_8_ishi.wav,zh2sh_1_izhi.wav,,FALSE,FALSE,,,,,,,,,,,,,,j,0.4839,space,0.8177,,,,,,,,0,99,99,47,1,,
6122b9ffce05d8e56860755a,2023-06-16_10h02.49.687,phx_ver10,2022.2.5,MacIntel,59.95203837,,,,,,,,,,,,5,testing_1,zh2x,e,zh2x_e,zh2x_1_ezhe.wav,zh2x_1_ezhe_copy.wav,,TRUE,TRUE,,,,,,,,,,,,,,f,0.3504,space,0.7039,,,,,,,,0,100,100,4,1,,
6122b9ffce05d8e56860755a,2023-06-16_10h02.49.687,phx_ver10,2022.2.5,MacIntel,59.95203837,,,,,,,,,,,,119,testing_3,sh2x,i,sh2x_i,sh2x_1_ishi.wav,sh2x_8_ixi.wav,,FALSE,FALSE,,,,,,,,,,,,,,j,0.0517,space,0.401,,,,,,,,0,101,101,118,1,,
6122b9ffce05d8e56860755a,2023-06-16_10h02.49.687,phx_ver10,2022.2.5,MacIntel,59.95203837,,,,,,,,,,,,24,testing_2,zh2x,ei,zh2x_ei,zh2x_8_eixei.wav,zh2x_1_eizhei.wav,,FALSE,FALSE,,,,,,,,,,,,,,j,0.2527,space,0.6007,,,,,,,,0,102,102,23,1,,
6122b9ffce05d8e56860755a,2023-06-16_10h02.49.687,phx_ver10,2022.2.5,MacIntel,59.95203837,,,,,,,,,,,,70,testing_3,zh2j,i,zh2j_i,zh2j_8_iji.wav,zh2j_8_iji.wav,,TRUE,FALSE,,,,,,,,,,,,,,f,0.1253,space,0.4843,,,,,,,,0,103,103,69,1,,
6122b9ffce05d8e56860755a,2023-06-16_10h02.49.687,phx_ver10,2022.2.5,MacIntel,59.95203837,,,,,,,,,,,,139,testing_3,sh2j,ei,sh2j_ei,sh2j_1_eishei.wav,sh2j_8_eijei.wav,,FALSE,FALSE,,,,,,,,,,,,,,j,0.301,space,0.6426,,,,,,,,0,104,104,138,1,,
6122b9ffce05d8e56860755a,2023-06-16_10h02.49.687,phx_ver10,2022.2.5,MacIntel,59.95203837,,,,,,,,,,,,84,testing_3,j2x,au,j2x_au,j2x_8_auxau.wav,j2x_1_aujau.wav,,FALSE,FALSE,,,,,,,,,,,,,,j,0.5675,space,0.9839,,,,,,,,0,105,105,83,1,,
6122b9ffce05d8e56860755a,2023-06-16_10h02.49.687,phx_ver10,2022.2.5,MacIntel,59.95203837,,,,,,,,,,,,23,testing_2,zh2x,ei,zh2x_ei,zh2x_1_eizhei.wav,zh2x_8_eixei.wav,,FALSE,FALSE,,,,,,,,,,,,,,j,0.2255,space,0.5693,,,,,,,,0,106,106,22,1,,
6122b9ffce05d8e56860755a,2023-06-16_10h02.49.687,phx_ver10,2022.2.5,MacIntel,59.95203837,,,,,,,,,,,,42,testing_3,zh2sh,ei,zh2sh_ei,zh2sh_8_eishei.wav,zh2sh_8_eishei.wav,,TRUE,FALSE,,,,,,,,,,,,,,f,0.4032,space,0.7235,,,,,,,,0,107,107,41,1,,
6122b9ffce05d8e56860755a,2023-06-16_10h02.49.687,phx_ver10,2022.2.5,MacIntel,59.95203837,,,,,,,,,,,,50,testing_3,zh2j,a,zh2j_a,zh2j_8_aja.wav,zh2j_8_aja.wav,,TRUE,FALSE,,,,,,,,,,,,,,f,0.455,space,0.7669,,,,,,,,0,108,108,49,1,,
6122b9ffce05d8e56860755a,2023-06-16_10h02.49.687,phx_ver10,2022.2.5,MacIntel,59.95203837,,,,,,,,,,,,61,testing_3,zh2j,e,zh2j_e,zh2j_1_ezhe.wav,zh2j_1_ezhe.wav,,TRUE,FALSE,,,,,,,,,,,,,,f,2.2252,space,2.5686,,,,,,,,0,109,109,60,1,,
6122b9ffce05d8e56860755a,2023-06-16_10h02.49.687,phx_ver10,2022.2.5,MacIntel,59.95203837,,,,,,,,,,,,66,testing_3,zh2j,ei,zh2j_ei,zh2j_8_eijei.wav,zh2j_8_eijei.wav,,TRUE,FALSE,,,,,,,,,,,,,,f,0.5343,space,0.8891,,,,,,,,0,110,110,65,1,,
6122b9ffce05d8e56860755a,2023-06-16_10h02.49.687,phx_ver10,2022.2.5,MacIntel,59.95203837,,,,,,,,,,,,1,testing_1,zh2x,a,zh2x_a,zh2x_1_azha.wav,zh2x_1_azha_copy.wav,,TRUE,TRUE,,,,,,,,,,,,,,f,0.606,space,1.0058,,,,,,,,0,111,111,0,1,,
6122b9ffce05d8e56860755a,2023-06-16_10h02.49.687,phx_ver10,2022.2.5,MacIntel,59.95203837,,,,,,,,,,,,68,testing_3,zh2j,ei,zh2j_ei,zh2j_8_eijei.wav,zh2j_1_eizhei.wav,,FALSE,FALSE,,,,,,,,,,,,,,j,0.7375,space,1.0574,,,,,,,,0,112,112,67,1,,
6122b9ffce05d8e56860755a,2023-06-16_10h02.49.687,phx_ver10,2022.2.5,MacIntel,59.95203837,,,,,,,,,,,,100,testing_3,sh2x,a,sh2x_a,sh2x_8_axa.wav,sh2x_1_asha.wav,,FALSE,FALSE,,,,,,,,,,,,,,j,0.1013,space,0.4337,,,,,,,,0,113,113,99,1,,
6122b9ffce05d8e56860755a,2023-06-16_10h02.49.687,phx_ver10,2022.2.5,MacIntel,59.95203837,,,,,,,,,,,,96,testing_3,j2x,i,j2x_i,j2x_8_ixi.wav,j2x_1_iji.wav,,FALSE,FALSE,,,,,,,,,,,,,,f,0.4675,space,0.8025,,,,,,,,0,114,114,95,1,,
6122b9ffce05d8e56860755a,2023-06-16_10h02.49.687,phx_ver10,2022.2.5,MacIntel,59.95203837,,,,,,,,,,,,74,testing_3,j2x,a,j2x_a,j2x_8_axa.wav,j2x_8_axa.wav,,TRUE,FALSE,,,,,,,,,,,,,,f,0.2352,space,0.6351,,,,,,,,0,115,115,73,1,,
6122b9ffce05d8e56860755a,2023-06-16_10h02.49.687,phx_ver10,2022.2.5,MacIntel,59.95203837,,,,,,,,,,,,85,testing_3,j2x,e,j2x_e,j2x_1_eje.wav,j2x_1_eje.wav,,TRUE,FALSE,,,,,,,,,,,,,,f,0.6742,space,1.7353,,,,,,,,0,116,116,84,1,,
6122b9ffce05d8e56860755a,2023-06-16_10h02.49.687,phx_ver10,2022.2.5,MacIntel,59.95203837,,,,,,,,,,,,126,testing_3,sh2j,ai,sh2j_ai,sh2j_8_aijai.wav,sh2j_8_aijai.wav,,TRUE,FALSE,,,,,,,,,,,,,,f,0.2513,space,0.6505,,,,,,,,0,117,117,125,1,,
6122b9ffce05d8e56860755a,2023-06-16_10h02.49.687,phx_ver10,2022.2.5,MacIntel,59.95203837,,,,,,,,,,,,41,testing_3,zh2sh,ei,zh2sh_ei,zh2sh_1_eizhei.wav,zh2sh_1_eizhei.wav,,TRUE,FALSE,,,,,,,,,,,,,,f,0.3374,space,0.7507,,,,,,,,0,118,118,40,1,,
6122b9ffce05d8e56860755a,2023-06-16_10h02.49.687,phx_ver10,2022.2.5,MacIntel,59.95203837,,,,,,,,,,,,60,testing_3,zh2j,au,zh2j_au,zh2j_8_aujau.wav,zh2j_1_auzhau.wav,,FALSE,FALSE,,,,,,,,,,,,,,j,0.2524,space,0.6201,,,,,,,,0,119,119,59,1,,
6122b9ffce05d8e56860755a,2023-06-16_10h02.49.687,phx_ver10,2022.2.5,MacIntel,59.95203837,,,,,,,,,,,,52,testing_3,zh2j,a,zh2j_a,zh2j_8_aja.wav,zh2j_1_azha.wav,,FALSE,FALSE,,,,,,,,,,,,,,j,0.3842,space,0.7397,,,,,,,,0,120,120,51,1,,
6122b9ffce05d8e56860755a,2023-06-16_10h02.49.687,phx_ver10,2022.2.5,MacIntel,59.95203837,,,,,,,,,,,,93,testing_3,j2x,i,j2x_i,j2x_1_iji.wav,j2x_1_iji.wav,,TRUE,FALSE,,,,,,,,,,,,,,f,0.2703,space,0.701,,,,,,,,0,121,121,92,1,,
6122b9ffce05d8e56860755a,2023-06-16_10h02.49.687,phx_ver10,2022.2.5,MacIntel,59.95203837,,,,,,,,,,,,113,testing_3,sh2x,ei,sh2x_ei,sh2x_1_eishei.wav,sh2x_1_eishei.wav,,TRUE,FALSE,,,,,,,,,,,,,,f,0.6031,space,0.9515,,,,,,,,0,122,122,112,1,,
6122b9ffce05d8e56860755a,2023-06-16_10h02.49.687,phx_ver10,2022.2.5,MacIntel,59.95203837,,,,,,,,,,,,104,testing_3,sh2x,ai,sh2x_ai,sh2x_8_aixai.wav,sh2x_1_aishai.wav,,FALSE,FALSE,,,,,,,,,,,,,,j,0.2368,space,0.5888,,,,,,,,0,123,123,103,1,,
6122b9ffce05d8e56860755a,2023-06-16_10h02.49.687,phx_ver10,2022.2.5,MacIntel,59.95203837,,,,,,,,,,,,55,testing_3,zh2j,ai,zh2j_ai,zh2j_1_aizhai.wav,zh2j_8_aijai.wav,,FALSE,FALSE,,,,,,,,,,,,,,j,0.5678,space,0.9183,,,,,,,,0,124,124,54,1,,
6122b9ffce05d8e56860755a,2023-06-16_10h02.49.687,phx_ver10,2022.2.5,MacIntel,59.95203837,,,,,,,,,,,,88,testing_3,j2x,e,j2x_e,j2x_8_exe.wav,j2x_1_eje.wav,,FALSE,FALSE,,,,,,,,,,,,,,j,0.4895,space,0.9218,,,,,,,,0,125,125,87,1,,
6122b9ffce05d8e56860755a,2023-06-16_10h02.49.687,phx_ver10,2022.2.5,MacIntel,59.95203837,,,,,,,,,,,,111,testing_3,sh2x,e,sh2x_e,sh2x_1_eshe.wav,sh2x_8_exe.wav,,FALSE,FALSE,,,,,,,,,,,,,,j,0.2926,space,0.6364,,,,,,,,0,126,126,110,1,,
6122b9ffce05d8e56860755a,2023-06-16_10h02.49.687,phx_ver10,2022.2.5,MacIntel,59.95203837,,,,,,,,,,,,133,testing_3,sh2j,e,sh2j_e,sh2j_1_eshe.wav,sh2j_1_eshe.wav,,TRUE,FALSE,,,,,,,,,,,,,,f,0.1399,space,0.4843,,,,,,,,0,127,127,132,1,,
6122b9ffce05d8e56860755a,2023-06-16_10h02.49.687,phx_ver10,2022.2.5,MacIntel,59.95203837,,,,,,,,,,,,16,testing_2,zh2x,ai,zh2x_ai,zh2x_8_aixai.wav,zh2x_1_aizhai.wav,,FALSE,FALSE,,,,,,,,,,,,,,j,0.4721,space,0.8008,,,,,,,,0,128,128,15,1,,
6122b9ffce05d8e56860755a,2023-06-16_10h02.49.687,phx_ver10,2022.2.5,MacIntel,59.95203837,,,,,,,,,,,,53,testing_3,zh2j,ai,zh2j_ai,zh2j_1_aizhai.wav,zh2j_1_aizhai.wav,,TRUE,FALSE,,,,,,,,,,,,,,f,0.1993,space,0.5679,,,,,,,,0,129,129,52,1,,
6122b9ffce05d8e56860755a,2023-06-16_10h02.49.687,phx_ver10,2022.2.5,MacIntel,59.95203837,,,,,,,,,,,,140,testing_3,sh2j,ei,sh2j_ei,sh2j_8_eijei.wav,sh2j_1_eishei.wav,,FALSE,FALSE,,,,,,,,,,,,,,j,0.1387,space,0.4177,,,,,,,,0,130,130,139,1,,
6122b9ffce05d8e56860755a,2023-06-16_10h02.49.687,phx_ver10,2022.2.5,MacIntel,59.95203837,,,,,,,,,,,,31,testing_3,zh2sh,ai,zh2sh_ai,zh2sh_1_aizhai.wav,zh2sh_8_aishai.wav,,FALSE,FALSE,,,,,,,,,,,,,,j,0.1348,space,0.4589,,,,,,,,0,131,131,30,1,,
6122b9ffce05d8e56860755a,2023-06-16_10h02.49.687,phx_ver10,2022.2.5,MacIntel,59.95203837,,,,,,,,,,,,144,testing_3,sh2j,i,sh2j_i,sh2j_8_iji.wav,sh2j_1_ishi.wav,,FALSE,FALSE,,,,,,,,,,,,,,j,0.3694,space,0.7214,,,,,,,,0,132,132,143,1,,
6122b9ffce05d8e56860755a,2023-06-16_10h02.49.687,phx_ver10,2022.2.5,MacIntel,59.95203837,,,,,,,,,,,,26,testing_3,zh2sh,a,zh2sh_a,zh2sh_8_asha.wav,zh2sh_8_asha.wav,,TRUE,FALSE,,,,,,,,,,,,,,f,0.0849,space,0.4673,,,,,,,,0,133,133,25,1,,
6122b9ffce05d8e56860755a,2023-06-16_10h02.49.687,phx_ver10,2022.2.5,MacIntel,59.95203837,,,,,,,,,,,,128,testing_3,sh2j,ai,sh2j_ai,sh2j_8_aijai.wav,sh2j_1_aishai.wav,,FALSE,FALSE,,,,,,,,,,,,,,j,0.0005,space,0.3544,,,,,,,,0,134,134,127,1,,
6122b9ffce05d8e56860755a,2023-06-16_10h02.49.687,phx_ver10,2022.2.5,MacIntel,59.95203837,,,,,,,,,,,,51,testing_3,zh2j,a,zh2j_a,zh2j_1_azha.wav,zh2j_8_aja.wav,,FALSE,FALSE,,,,,,,,,,,,,,j,0.421,space,0.805,,,,,,,,0,135,135,50,1,,
6122b9ffce05d8e56860755a,2023-06-16_10h02.49.687,phx_ver10,2022.2.5,MacIntel,59.95203837,,,,,,,,,,,,49,testing_3,zh2j,a,zh2j_a,zh2j_1_azha.wav,zh2j_1_azha.wav,,TRUE,FALSE,,,,,,,,,,,,,,f,0.2183,space,0.6062,,,,,,,,0,136,136,48,1,,
6122b9ffce05d8e56860755a,2023-06-16_10h02.49.687,phx_ver10,2022.2.5,MacIntel,59.95203837,,,,,,,,,,,,8,testing_1,zh2x,e,zh2x_e,zh2x_8_exe.wav,zh2x_1_ezhe.wav,,FALSE,TRUE,,,,,,,,,,,,,,j,0.1007,space,0.4511,,,,,,,,0,137,137,7,1,,
6122b9ffce05d8e56860755a,2023-06-16_10h02.49.687,phx_ver10,2022.2.5,MacIntel,59.95203837,,,,,,,,,,,,12,testing_1,zh2x,i,zh2x_i,zh2x_8_ixi.wav,zh2x_1_izhi.wav,,FALSE,TRUE,,,,,,,,,,,,,,f,1.1093,space,1.5186,,,,,,,,0,138,138,11,1,,
6122b9ffce05d8e56860755a,2023-06-16_10h02.49.687,phx_ver10,2022.2.5,MacIntel,59.95203837,,,,,,,,,,,,136,testing_3,sh2j,e,sh2j_e,sh2j_8_eje.wav,sh2j_1_eshe.wav,,FALSE,FALSE,,,,,,,,,,,,,,j,0.0075,space,0.3197,,,,,,,,0,139,139,135,1,,
6122b9ffce05d8e56860755a,2023-06-16_10h02.49.687,phx_ver10,2022.2.5,MacIntel,59.95203837,,,,,,,,,,,,36,testing_3,zh2sh,au,zh2sh_au,zh2sh_8_aushau.wav,zh2sh_1_auzhau.wav,,FALSE,FALSE,,,,,,,,,,,,,,j,0.0026,space,0.3389,,,,,,,,0,140,140,35,1,,
6122b9ffce05d8e56860755a,2023-06-16_10h02.49.687,phx_ver10,2022.2.5,MacIntel,59.95203837,,,,,,,,,,,,30,testing_3,zh2sh,ai,zh2sh_ai,zh2sh_8_aishai.wav,zh2sh_8_aishai.wav,,TRUE,FALSE,,,,,,,,,,,,,,f,0.2232,space,0.5678,,,,,,,,0,141,141,29,1,,
6122b9ffce05d8e56860755a,2023-06-16_10h02.49.687,phx_ver10,2022.2.5,MacIntel,59.95203837,,,,,,,,,,,,89,testing_3,j2x,ei,j2x_ei,j2x_1_eijei.wav,j2x_1_eijei.wav,,TRUE,FALSE,,,,,,,,,,,,,,f,0.5508,space,0.9842,,,,,,,,0,142,142,88,1,,
6122b9ffce05d8e56860755a,2023-06-16_10h02.49.687,phx_ver10,2022.2.5,MacIntel,59.95203837,,,,,,,,,,,,62,testing_3,zh2j,e,zh2j_e,zh2j_8_eje.wav,zh2j_8_eje.wav,,TRUE,FALSE,,,,,,,,,,,,,,f,0.0004,space,0.7175,,,,,,,,0,143,143,61,1,,
6122b9ffce05d8e56860755a,2023-06-16_10h02.49.687,phx_ver10,2022.2.5,MacIntel,59.95203837,,,,,,,,,,,,,,,,,,,,,,,,,,,,,,,,,,,,,,,,,,,,,,,,,,,space,3.0844
