participant,date,expName,psychopyVersion,OS,frameRate,space_1.keys,space_1.rt,space_2.keys,space_2.rt,space_train.keys,space_train.rt,training.thisRepN,training.thisTrialN,training.thisN,training.thisIndex,training.ran,token_id,task,continuum,vowel,series,sound_1,sound_2,img,same,trained,FJ_attn.keys,FJ_attn.rt,space_attn.keys,space_attn.rt,if_attn_test.thisRepN,if_attn_test.thisTrialN,if_attn_test.thisN,if_attn_test.thisIndex,if_attn_test.ran,space_trans_1.keys,space_trans_1.rt,space_trans_11.keys,space_trans_11.rt,FJ_test.keys,FJ_test.rt,space_test.keys,space_test.rt,testing_pre.thisRepN,testing_pre.thisTrialN,testing_pre.thisN,testing_pre.thisIndex,testing_pre.ran,space_trans_2.keys,space_trans_2.rt,testing_all.thisRepN,testing_all.thisTrialN,testing_all.thisN,testing_all.thisIndex,testing_all.ran,space_ending.keys,space_ending.rt
6136001fcd0e07e6f5f66bc1,2023-06-16_10h28.58.472,phx_ver10,2022.2.5,Win32,59.60185958,,,,,,,,,,,,,,,,,,,,,,,,,,,,,,,,,,,,,,,,,,,,,,,,,,,,
6136001fcd0e07e6f5f66bc1,2023-06-16_10h28.58.472,phx_ver10,2022.2.5,Win32,59.60185958,space,14.5013,,,,,,,,,,,,,,,,,,,,,,,,,,,,,,,,,,,,,,,,,,,,,,,,,,
6136001fcd0e07e6f5f66bc1,2023-06-16_10h28.58.472,phx_ver10,2022.2.5,Win32,59.60185958,,,space,5.657,,,,,,,,,,,,,,,,,,,,,,,,,,,,,,,,,,,,,,,,,,,,,,,,
6136001fcd0e07e6f5f66bc1,2023-06-16_10h28.58.472,phx_ver10,2022.2.5,Win32,59.60185958,,,,,space,1.0196,0,0,0,20,1,21,training,zh2x,e,zh2x_e,zh2x_2_ezhe.wav,,ezhe.jpg,,,,,,,,,,,,,,,,,,,,,,,,,,,,,,,,,
6136001fcd0e07e6f5f66bc1,2023-06-16_10h28.58.472,phx_ver10,2022.2.5,Win32,59.60185958,,,,,space,0.5265,0,1,1,18,1,19,training,zh2x,e,zh2x_e,zh2x_2_ezhe.wav,,ezhe.jpg,,,,,,,,,,,,,,,,,,,,,,,,,,,,,,,,,
6136001fcd0e07e6f5f66bc1,2023-06-16_10h28.58.472,phx_ver10,2022.2.5,Win32,59.60185958,,,,,space,0.7692,0,2,2,33,1,34,training,zh2x,i,zh2x_i,zh2x_2_izhi.wav,,izhi.jpg,,,,,,,,,,,,,,,,,,,,,,,,,,,,,,,,,
6136001fcd0e07e6f5f66bc1,2023-06-16_10h28.58.472,phx_ver10,2022.2.5,Win32,59.60185958,,,,,space,1.1013,0,3,3,29,1,30,training,zh2x,e,zh2x_e,zh2x_7_exe.wav,,exe.jpg,,,,,,,,,,,,,,,,,,,,,,,,,,,,,,,,,
6136001fcd0e07e6f5f66bc1,2023-06-16_10h28.58.472,phx_ver10,2022.2.5,Win32,59.60185958,,,,,space,10.3112,0,4,4,38,1,39,training,zh2x,i,zh2x_i,zh2x_3_izhi.wav,,izhi.jpg,,,,,,,,,,,,,,,,,,,,,,,,,,,,,,,,,
6136001fcd0e07e6f5f66bc1,2023-06-16_10h28.58.472,phx_ver10,2022.2.5,Win32,59.60185958,,,,,space,2.7958,0,5,5,11,1,12,training,zh2x,a,zh2x_a,zh2x_7_axa.wav,,axa.jpg,,,,,,,,,,,,,,,,,,,,,,,,,,,,,,,,,
6136001fcd0e07e6f5f66bc1,2023-06-16_10h28.58.472,phx_ver10,2022.2.5,Win32,59.60185958,,,,,,,,,,,,,attn_test,,,,zh2x_1_izhi.wav,zh2x_8_exe.wav,izhi.jpg,LEFT,,f,2.1307,space,3.1111,0,0,0,0,1,,,,,,,,,,,,,,,,,,,,,,
6136001fcd0e07e6f5f66bc1,2023-06-16_10h28.58.472,phx_ver10,2022.2.5,Win32,59.60185958,,,,,space,1.021,0,6,6,47,1,48,training,zh2x,i,zh2x_i,zh2x_8_ixi.wav,,ixi.jpg,,,,,,,,,,,,,,,,,,,,,,,,,,,,,,,,,
6136001fcd0e07e6f5f66bc1,2023-06-16_10h28.58.472,phx_ver10,2022.2.5,Win32,59.60185958,,,,,space,0.6653,0,7,7,39,1,40,training,zh2x,i,zh2x_i,zh2x_4_izhi.wav,,izhi.jpg,,,,,,,,,,,,,,,,,,,,,,,,,,,,,,,,,
6136001fcd0e07e6f5f66bc1,2023-06-16_10h28.58.472,phx_ver10,2022.2.5,Win32,59.60185958,,,,,space,0.8174,0,8,8,0,1,1,training,zh2x,a,zh2x_a,zh2x_1_azha.wav,,azha.jpg,,,,,,,,,,,,,,,,,,,,,,,,,,,,,,,,,
6136001fcd0e07e6f5f66bc1,2023-06-16_10h28.58.472,phx_ver10,2022.2.5,Win32,59.60185958,,,,,space,0.6021,0,9,9,14,1,15,training,zh2x,a,zh2x_a,zh2x_7_axa.wav,,axa.jpg,,,,,,,,,,,,,,,,,,,,,,,,,,,,,,,,,
6136001fcd0e07e6f5f66bc1,2023-06-16_10h28.58.472,phx_ver10,2022.2.5,Win32,59.60185958,,,,,space,0.4011,0,10,10,16,1,17,training,zh2x,e,zh2x_e,zh2x_1_ezhe.wav,,ezhe.jpg,,,,,,,,,,,,,,,,,,,,,,,,,,,,,,,,,
6136001fcd0e07e6f5f66bc1,2023-06-16_10h28.58.472,phx_ver10,2022.2.5,Win32,59.60185958,,,,,space,0.3341,0,11,11,22,1,23,training,zh2x,e,zh2x_e,zh2x_3_ezhe.wav,,ezhe.jpg,,,,,,,,,,,,,,,,,,,,,,,,,,,,,,,,,
6136001fcd0e07e6f5f66bc1,2023-06-16_10h28.58.472,phx_ver10,2022.2.5,Win32,59.60185958,,,,,,,,,,,,,attn_test,,,,zh2x_8_exe.wav,zh2x_8_ixi.wav,ixi.jpg,RIGHT,,j,0.0351,space,0.8175,0,0,0,0,1,,,,,,,,,,,,,,,,,,,,,,
6136001fcd0e07e6f5f66bc1,2023-06-16_10h28.58.472,phx_ver10,2022.2.5,Win32,59.60185958,,,,,space,1.068,0,12,12,40,1,41,training,zh2x,i,zh2x_i,zh2x_5_ixi.wav,,ixi.jpg,,,,,,,,,,,,,,,,,,,,,,,,,,,,,,,,,
6136001fcd0e07e6f5f66bc1,2023-06-16_10h28.58.472,phx_ver10,2022.2.5,Win32,59.60185958,,,,,space,3.0026,0,13,13,36,1,37,training,zh2x,i,zh2x_i,zh2x_2_izhi.wav,,izhi.jpg,,,,,,,,,,,,,,,,,,,,,,,,,,,,,,,,,
6136001fcd0e07e6f5f66bc1,2023-06-16_10h28.58.472,phx_ver10,2022.2.5,Win32,59.60185958,,,,,space,9.5296,0,14,14,17,1,18,training,zh2x,e,zh2x_e,zh2x_2_ezhe.wav,,ezhe.jpg,,,,,,,,,,,,,,,,,,,,,,,,,,,,,,,,,
6136001fcd0e07e6f5f66bc1,2023-06-16_10h28.58.472,phx_ver10,2022.2.5,Win32,59.60185958,,,,,space,0.6846,0,15,15,42,1,43,training,zh2x,i,zh2x_i,zh2x_6_ixi.wav,,ixi.jpg,,,,,,,,,,,,,,,,,,,,,,,,,,,,,,,,,
6136001fcd0e07e6f5f66bc1,2023-06-16_10h28.58.472,phx_ver10,2022.2.5,Win32,59.60185958,,,,,space,0.5606,0,16,16,44,1,45,training,zh2x,i,zh2x_i,zh2x_7_ixi.wav,,ixi.jpg,,,,,,,,,,,,,,,,,,,,,,,,,,,,,,,,,
6136001fcd0e07e6f5f66bc1,2023-06-16_10h28.58.472,phx_ver10,2022.2.5,Win32,59.60185958,,,,,space,0.5167,0,17,17,25,1,26,training,zh2x,e,zh2x_e,zh2x_6_exe.wav,,exe.jpg,,,,,,,,,,,,,,,,,,,,,,,,,,,,,,,,,
6136001fcd0e07e6f5f66bc1,2023-06-16_10h28.58.472,phx_ver10,2022.2.5,Win32,59.60185958,,,,,,,,,,,,,attn_test,,,,zh2x_1_izhi.wav,zh2x_1_ezhe.wav,ezhe.jpg,RIGHT,,f,2.9465,space,3.1626,0,0,0,0,1,,,,,,,,,,,,,,,,,,,,,,
6136001fcd0e07e6f5f66bc1,2023-06-16_10h28.58.472,phx_ver10,2022.2.5,Win32,59.60185958,,,,,space,23.6341,0,18,18,45,1,46,training,zh2x,i,zh2x_i,zh2x_7_ixi.wav,,ixi.jpg,,,,,,,,,,,,,,,,,,,,,,,,,,,,,,,,,
6136001fcd0e07e6f5f66bc1,2023-06-16_10h28.58.472,phx_ver10,2022.2.5,Win32,59.60185958,,,,,space,1.5163,0,19,19,3,1,4,training,zh2x,a,zh2x_a,zh2x_2_azha.wav,,azha.jpg,,,,,,,,,,,,,,,,,,,,,,,,,,,,,,,,,
6136001fcd0e07e6f5f66bc1,2023-06-16_10h28.58.472,phx_ver10,2022.2.5,Win32,59.60185958,,,,,space,0.2337,0,20,20,46,1,47,training,zh2x,i,zh2x_i,zh2x_7_ixi.wav,,ixi.jpg,,,,,,,,,,,,,,,,,,,,,,,,,,,,,,,,,
6136001fcd0e07e6f5f66bc1,2023-06-16_10h28.58.472,phx_ver10,2022.2.5,Win32,59.60185958,,,,,space,0.1683,0,21,21,31,1,32,training,zh2x,e,zh2x_e,zh2x_8_exe.wav,,exe.jpg,,,,,,,,,,,,,,,,,,,,,,,,,,,,,,,,,
6136001fcd0e07e6f5f66bc1,2023-06-16_10h28.58.472,phx_ver10,2022.2.5,Win32,59.60185958,,,,,space,0.2788,0,22,22,37,1,38,training,zh2x,i,zh2x_i,zh2x_3_izhi.wav,,izhi.jpg,,,,,,,,,,,,,,,,,,,,,,,,,,,,,,,,,
6136001fcd0e07e6f5f66bc1,2023-06-16_10h28.58.472,phx_ver10,2022.2.5,Win32,59.60185958,,,,,space,0.3684,0,23,23,26,1,27,training,zh2x,e,zh2x_e,zh2x_6_exe.wav,,exe.jpg,,,,,,,,,,,,,,,,,,,,,,,,,,,,,,,,,
6136001fcd0e07e6f5f66bc1,2023-06-16_10h28.58.472,phx_ver10,2022.2.5,Win32,59.60185958,,,,,,,,,,,,,attn_test,,,,zh2x_1_azha.wav,zh2x_8_ixi.wav,ixi.jpg,RIGHT,,j,0.0137,space,0.4188,0,0,0,0,1,,,,,,,,,,,,,,,,,,,,,,
6136001fcd0e07e6f5f66bc1,2023-06-16_10h28.58.472,phx_ver10,2022.2.5,Win32,59.60185958,,,,,space,0.6337,0,24,24,13,1,14,training,zh2x,a,zh2x_a,zh2x_7_axa.wav,,axa.jpg,,,,,,,,,,,,,,,,,,,,,,,,,,,,,,,,,
6136001fcd0e07e6f5f66bc1,2023-06-16_10h28.58.472,phx_ver10,2022.2.5,Win32,59.60185958,,,,,space,0.5023,0,25,25,30,1,31,training,zh2x,e,zh2x_e,zh2x_7_exe.wav,,exe.jpg,,,,,,,,,,,,,,,,,,,,,,,,,,,,,,,,,
6136001fcd0e07e6f5f66bc1,2023-06-16_10h28.58.472,phx_ver10,2022.2.5,Win32,59.60185958,,,,,space,0.4684,0,26,26,8,1,9,training,zh2x,a,zh2x_a,zh2x_5_axa.wav,,axa.jpg,,,,,,,,,,,,,,,,,,,,,,,,,,,,,,,,,
6136001fcd0e07e6f5f66bc1,2023-06-16_10h28.58.472,phx_ver10,2022.2.5,Win32,59.60185958,,,,,space,0.2683,0,27,27,23,1,24,training,zh2x,e,zh2x_e,zh2x_4_ezhe.wav,,ezhe.jpg,,,,,,,,,,,,,,,,,,,,,,,,,,,,,,,,,
6136001fcd0e07e6f5f66bc1,2023-06-16_10h28.58.472,phx_ver10,2022.2.5,Win32,59.60185958,,,,,space,0.7024,0,28,28,32,1,33,training,zh2x,i,zh2x_i,zh2x_1_izhi.wav,,izhi.jpg,,,,,,,,,,,,,,,,,,,,,,,,,,,,,,,,,
6136001fcd0e07e6f5f66bc1,2023-06-16_10h28.58.472,phx_ver10,2022.2.5,Win32,59.60185958,,,,,space,0.3177,0,29,29,9,1,10,training,zh2x,a,zh2x_a,zh2x_6_axa.wav,,axa.jpg,,,,,,,,,,,,,,,,,,,,,,,,,,,,,,,,,
6136001fcd0e07e6f5f66bc1,2023-06-16_10h28.58.472,phx_ver10,2022.2.5,Win32,59.60185958,,,,,,,,,,,,,attn_test,,,,zh2x_1_izhi.wav,zh2x_1_ezhe.wav,ezhe.jpg,RIGHT,,f,0.7186,space,1.0852,0,0,0,0,1,,,,,,,,,,,,,,,,,,,,,,
6136001fcd0e07e6f5f66bc1,2023-06-16_10h28.58.472,phx_ver10,2022.2.5,Win32,59.60185958,,,,,space,0.6345,0,30,30,21,1,22,training,zh2x,e,zh2x_e,zh2x_3_ezhe.wav,,ezhe.jpg,,,,,,,,,,,,,,,,,,,,,,,,,,,,,,,,,
6136001fcd0e07e6f5f66bc1,2023-06-16_10h28.58.472,phx_ver10,2022.2.5,Win32,59.60185958,,,,,space,0.4381,0,31,31,41,1,42,training,zh2x,i,zh2x_i,zh2x_6_ixi.wav,,ixi.jpg,,,,,,,,,,,,,,,,,,,,,,,,,,,,,,,,,
6136001fcd0e07e6f5f66bc1,2023-06-16_10h28.58.472,phx_ver10,2022.2.5,Win32,59.60185958,,,,,space,0.4152,0,32,32,28,1,29,training,zh2x,e,zh2x_e,zh2x_7_exe.wav,,exe.jpg,,,,,,,,,,,,,,,,,,,,,,,,,,,,,,,,,
6136001fcd0e07e6f5f66bc1,2023-06-16_10h28.58.472,phx_ver10,2022.2.5,Win32,59.60185958,,,,,space,0.4192,0,33,33,24,1,25,training,zh2x,e,zh2x_e,zh2x_5_exe.wav,,exe.jpg,,,,,,,,,,,,,,,,,,,,,,,,,,,,,,,,,
6136001fcd0e07e6f5f66bc1,2023-06-16_10h28.58.472,phx_ver10,2022.2.5,Win32,59.60185958,,,,,space,0.3845,0,34,34,19,1,20,training,zh2x,e,zh2x_e,zh2x_2_ezhe.wav,,ezhe.jpg,,,,,,,,,,,,,,,,,,,,,,,,,,,,,,,,,
6136001fcd0e07e6f5f66bc1,2023-06-16_10h28.58.472,phx_ver10,2022.2.5,Win32,59.60185958,,,,,space,0.3544,0,35,35,34,1,35,training,zh2x,i,zh2x_i,zh2x_2_izhi.wav,,izhi.jpg,,,,,,,,,,,,,,,,,,,,,,,,,,,,,,,,,
6136001fcd0e07e6f5f66bc1,2023-06-16_10h28.58.472,phx_ver10,2022.2.5,Win32,59.60185958,,,,,,,,,,,,,attn_test,,,,zh2x_1_ezhe.wav,zh2x_8_ixi.wav,ezhe.jpg,LEFT,,f,0.7844,space,1.0672,0,0,0,0,1,,,,,,,,,,,,,,,,,,,,,,
6136001fcd0e07e6f5f66bc1,2023-06-16_10h28.58.472,phx_ver10,2022.2.5,Win32,59.60185958,,,,,space,10.2333,0,36,36,5,1,6,training,zh2x,a,zh2x_a,zh2x_3_azha.wav,,azha.jpg,,,,,,,,,,,,,,,,,,,,,,,,,,,,,,,,,
6136001fcd0e07e6f5f66bc1,2023-06-16_10h28.58.472,phx_ver10,2022.2.5,Win32,59.60185958,,,,,space,1.2452,0,37,37,43,1,44,training,zh2x,i,zh2x_i,zh2x_7_ixi.wav,,ixi.jpg,,,,,,,,,,,,,,,,,,,,,,,,,,,,,,,,,
6136001fcd0e07e6f5f66bc1,2023-06-16_10h28.58.472,phx_ver10,2022.2.5,Win32,59.60185958,,,,,space,2.534,0,38,38,6,1,7,training,zh2x,a,zh2x_a,zh2x_3_azha.wav,,azha.jpg,,,,,,,,,,,,,,,,,,,,,,,,,,,,,,,,,
6136001fcd0e07e6f5f66bc1,2023-06-16_10h28.58.472,phx_ver10,2022.2.5,Win32,59.60185958,,,,,space,0.3024,0,39,39,27,1,28,training,zh2x,e,zh2x_e,zh2x_7_exe.wav,,exe.jpg,,,,,,,,,,,,,,,,,,,,,,,,,,,,,,,,,
6136001fcd0e07e6f5f66bc1,2023-06-16_10h28.58.472,phx_ver10,2022.2.5,Win32,59.60185958,,,,,space,0.7869,0,40,40,4,1,5,training,zh2x,a,zh2x_a,zh2x_2_azha.wav,,azha.jpg,,,,,,,,,,,,,,,,,,,,,,,,,,,,,,,,,
6136001fcd0e07e6f5f66bc1,2023-06-16_10h28.58.472,phx_ver10,2022.2.5,Win32,59.60185958,,,,,space,0.3188,0,41,41,7,1,8,training,zh2x,a,zh2x_a,zh2x_4_azha.wav,,azha.jpg,,,,,,,,,,,,,,,,,,,,,,,,,,,,,,,,,
6136001fcd0e07e6f5f66bc1,2023-06-16_10h28.58.472,phx_ver10,2022.2.5,Win32,59.60185958,,,,,,,,,,,,,attn_test,,,,zh2x_1_azha.wav,zh2x_8_exe.wav,azha.jpg,LEFT,,f,2.0501,space,2.3851,0,0,0,0,1,,,,,,,,,,,,,,,,,,,,,,
6136001fcd0e07e6f5f66bc1,2023-06-16_10h28.58.472,phx_ver10,2022.2.5,Win32,59.60185958,,,,,space,1.3833,0,42,42,15,1,16,training,zh2x,a,zh2x_a,zh2x_8_axa.wav,,axa.jpg,,,,,,,,,,,,,,,,,,,,,,,,,,,,,,,,,
6136001fcd0e07e6f5f66bc1,2023-06-16_10h28.58.472,phx_ver10,2022.2.5,Win32,59.60185958,,,,,space,0.8508,0,43,43,1,1,2,training,zh2x,a,zh2x_a,zh2x_2_azha.wav,,azha.jpg,,,,,,,,,,,,,,,,,,,,,,,,,,,,,,,,,
6136001fcd0e07e6f5f66bc1,2023-06-16_10h28.58.472,phx_ver10,2022.2.5,Win32,59.60185958,,,,,space,2.6996,0,44,44,35,1,36,training,zh2x,i,zh2x_i,zh2x_2_izhi.wav,,izhi.jpg,,,,,,,,,,,,,,,,,,,,,,,,,,,,,,,,,
6136001fcd0e07e6f5f66bc1,2023-06-16_10h28.58.472,phx_ver10,2022.2.5,Win32,59.60185958,,,,,space,1.6287,0,45,45,2,1,3,training,zh2x,a,zh2x_a,zh2x_2_azha.wav,,azha.jpg,,,,,,,,,,,,,,,,,,,,,,,,,,,,,,,,,
6136001fcd0e07e6f5f66bc1,2023-06-16_10h28.58.472,phx_ver10,2022.2.5,Win32,59.60185958,,,,,space,3.7481,0,46,46,10,1,11,training,zh2x,a,zh2x_a,zh2x_6_axa.wav,,axa.jpg,,,,,,,,,,,,,,,,,,,,,,,,,,,,,,,,,
6136001fcd0e07e6f5f66bc1,2023-06-16_10h28.58.472,phx_ver10,2022.2.5,Win32,59.60185958,,,,,space,0.3344,0,47,47,12,1,13,training,zh2x,a,zh2x_a,zh2x_7_axa.wav,,axa.jpg,,,,,,,,,,,,,,,,,,,,,,,,,,,,,,,,,
6136001fcd0e07e6f5f66bc1,2023-06-16_10h28.58.472,phx_ver10,2022.2.5,Win32,59.60185958,,,,,,,,,,,,,attn_test,,,,zh2x_1_azha.wav,zh2x_8_ixi.wav,azha.jpg,LEFT,,f,0.5522,space,0.8839,,,,,,,,,,,,,,,,,,,,,,,,,,,
6136001fcd0e07e6f5f66bc1,2023-06-16_10h28.58.472,phx_ver10,2022.2.5,Win32,59.60185958,,,,,,,,,,,,,,,,,,,,,,,,,,,,,,,space,1.5914,,,,,,,,,,,,,,,,,,,,
6136001fcd0e07e6f5f66bc1,2023-06-16_10h28.58.472,phx_ver10,2022.2.5,Win32,59.60185958,,,,,,,,,,,,,,,,,,,,,,,,,,,,,,,,,space,3.5263,,,,,,,,,,,,,,,,,,
6136001fcd0e07e6f5f66bc1,2023-06-16_10h28.58.472,phx_ver10,2022.2.5,Win32,59.60185958,,,,,,,,,,,,2,testing_pre,,,,auhau.wav,aufau.wav,,FALSE,,,,,,,,,,,,,,,j,0.6182,space,1.2996,0,0,0,1,1,,,,,,,,,
6136001fcd0e07e6f5f66bc1,2023-06-16_10h28.58.472,phx_ver10,2022.2.5,Win32,59.60185958,,,,,,,,,,,,4,testing_pre,,,,eihei.wav,eihei.wav,,TRUE,,,,,,,,,,,,,,,f,0.1184,space,0.5004,0,1,1,3,1,,,,,,,,,
6136001fcd0e07e6f5f66bc1,2023-06-16_10h28.58.472,phx_ver10,2022.2.5,Win32,59.60185958,,,,,,,,,,,,5,testing_pre,,,,ihi.wav,ifi.wav,,FALSE,,,,,,,,,,,,,,,j,0.5357,space,0.853,0,2,2,4,1,,,,,,,,,
6136001fcd0e07e6f5f66bc1,2023-06-16_10h28.58.472,phx_ver10,2022.2.5,Win32,59.60185958,,,,,,,,,,,,1,testing_pre,,,,ifi.wav,ifi.wav,,TRUE,,,,,,,,,,,,,,,f,0.2675,space,0.6175,0,3,3,0,1,,,,,,,,,
6136001fcd0e07e6f5f66bc1,2023-06-16_10h28.58.472,phx_ver10,2022.2.5,Win32,59.60185958,,,,,,,,,,,,3,testing_pre,,,,afa.wav,aha.wav,,FALSE,,,,,,,,,,,,,,,j,0.1215,space,0.4548,0,4,4,2,1,,,,,,,,,
6136001fcd0e07e6f5f66bc1,2023-06-16_10h28.58.472,phx_ver10,2022.2.5,Win32,59.60185958,,,,,,,,,,,,,,,,,,,,,,,,,,,,,,,,,,,,,,,,,,,,space,0.8737,,,,,,,
6136001fcd0e07e6f5f66bc1,2023-06-16_10h28.58.472,phx_ver10,2022.2.5,Win32,59.60185958,,,,,,,,,,,,130,testing_3,sh2j,au,sh2j_au,sh2j_8_aujau.wav,sh2j_8_aujau.wav,,TRUE,FALSE,,,,,,,,,,,,,,f,0.2899,space,0.6885,,,,,,,,0,0,0,129,1,,
6136001fcd0e07e6f5f66bc1,2023-06-16_10h28.58.472,phx_ver10,2022.2.5,Win32,59.60185958,,,,,,,,,,,,121,testing_3,sh2j,a,sh2j_a,sh2j_1_asha.wav,sh2j_1_asha.wav,,TRUE,FALSE,,,,,,,,,,,,,,f,0.1351,space,0.488,,,,,,,,0,1,1,120,1,,
6136001fcd0e07e6f5f66bc1,2023-06-16_10h28.58.472,phx_ver10,2022.2.5,Win32,59.60185958,,,,,,,,,,,,36,testing_3,zh2sh,au,zh2sh_au,zh2sh_8_aushau.wav,zh2sh_1_auzhau.wav,,FALSE,FALSE,,,,,,,,,,,,,,j,1.0336,space,1.3506,,,,,,,,0,2,2,35,1,,
6136001fcd0e07e6f5f66bc1,2023-06-16_10h28.58.472,phx_ver10,2022.2.5,Win32,59.60185958,,,,,,,,,,,,74,testing_3,j2x,a,j2x_a,j2x_8_axa.wav,j2x_8_axa.wav,,TRUE,FALSE,,,,,,,,,,,,,,f,0.2689,space,0.5868,,,,,,,,0,3,3,73,1,,
6136001fcd0e07e6f5f66bc1,2023-06-16_10h28.58.472,phx_ver10,2022.2.5,Win32,59.60185958,,,,,,,,,,,,1,testing_1,zh2x,a,zh2x_a,zh2x_1_azha.wav,zh2x_1_azha_copy.wav,,TRUE,TRUE,,,,,,,,,,,,,,f,0.2851,space,0.6178,,,,,,,,0,4,4,0,1,,
6136001fcd0e07e6f5f66bc1,2023-06-16_10h28.58.472,phx_ver10,2022.2.5,Win32,59.60185958,,,,,,,,,,,,14,testing_2,zh2x,ai,zh2x_ai,zh2x_8_aixai.wav,zh2x_8_aixai.wav,,TRUE,FALSE,,,,,,,,,,,,,,f,0.2521,space,0.6047,,,,,,,,0,5,5,13,1,,
6136001fcd0e07e6f5f66bc1,2023-06-16_10h28.58.472,phx_ver10,2022.2.5,Win32,59.60185958,,,,,,,,,,,,43,testing_3,zh2sh,ei,zh2sh_ei,zh2sh_1_eizhei.wav,zh2sh_8_eishei.wav,,FALSE,FALSE,,,,,,,,,,,,,,f,0.1848,space,0.5233,,,,,,,,0,6,6,42,1,,
6136001fcd0e07e6f5f66bc1,2023-06-16_10h28.58.472,phx_ver10,2022.2.5,Win32,59.60185958,,,,,,,,,,,,134,testing_3,sh2j,e,sh2j_e,sh2j_8_eje.wav,sh2j_8_eje.wav,,TRUE,FALSE,,,,,,,,,,,,,,f,0.1529,space,0.5181,,,,,,,,0,7,7,133,1,,
6136001fcd0e07e6f5f66bc1,2023-06-16_10h28.58.472,phx_ver10,2022.2.5,Win32,59.60185958,,,,,,,,,,,,110,testing_3,sh2x,e,sh2x_e,sh2x_8_exe.wav,sh2x_8_exe.wav,,TRUE,FALSE,,,,,,,,,,,,,,f,0.0732,space,0.4677,,,,,,,,0,8,8,109,1,,
6136001fcd0e07e6f5f66bc1,2023-06-16_10h28.58.472,phx_ver10,2022.2.5,Win32,59.60185958,,,,,,,,,,,,96,testing_3,j2x,i,j2x_i,j2x_8_ixi.wav,j2x_1_iji.wav,,FALSE,FALSE,,,,,,,,,,,,,,f,0.1205,space,0.4755,,,,,,,,0,9,9,95,1,,
6136001fcd0e07e6f5f66bc1,2023-06-16_10h28.58.472,phx_ver10,2022.2.5,Win32,59.60185958,,,,,,,,,,,,138,testing_3,sh2j,ei,sh2j_ei,sh2j_8_eijei.wav,sh2j_8_eijei.wav,,TRUE,FALSE,,,,,,,,,,,,,,f,0.0531,space,0.4016,,,,,,,,0,10,10,137,1,,
6136001fcd0e07e6f5f66bc1,2023-06-16_10h28.58.472,phx_ver10,2022.2.5,Win32,59.60185958,,,,,,,,,,,,113,testing_3,sh2x,ei,sh2x_ei,sh2x_1_eishei.wav,sh2x_1_eishei.wav,,TRUE,FALSE,,,,,,,,,,,,,,f,0.222,space,0.5715,,,,,,,,0,11,11,112,1,,
6136001fcd0e07e6f5f66bc1,2023-06-16_10h28.58.472,phx_ver10,2022.2.5,Win32,59.60185958,,,,,,,,,,,,20,testing_2,zh2x,au,zh2x_au,zh2x_8_auxau.wav,zh2x_1_auzhau.wav,,FALSE,FALSE,,,,,,,,,,,,,,j,0.8682,space,1.1339,,,,,,,,0,12,12,19,1,,
6136001fcd0e07e6f5f66bc1,2023-06-16_10h28.58.472,phx_ver10,2022.2.5,Win32,59.60185958,,,,,,,,,,,,108,testing_3,sh2x,au,sh2x_au,sh2x_8_auxau.wav,sh2x_1_aushau.wav,,FALSE,FALSE,,,,,,,,,,,,,,f,0.1345,space,0.4687,,,,,,,,0,13,13,107,1,,
6136001fcd0e07e6f5f66bc1,2023-06-16_10h28.58.472,phx_ver10,2022.2.5,Win32,59.60185958,,,,,,,,,,,,70,testing_3,zh2j,i,zh2j_i,zh2j_8_iji.wav,zh2j_8_iji.wav,,TRUE,FALSE,,,,,,,,,,,,,,f,0.9364,space,1.2834,,,,,,,,0,14,14,69,1,,
6136001fcd0e07e6f5f66bc1,2023-06-16_10h28.58.472,phx_ver10,2022.2.5,Win32,59.60185958,,,,,,,,,,,,80,testing_3,j2x,ai,j2x_ai,j2x_8_aixai.wav,j2x_1_aijai.wav,,FALSE,FALSE,,,,,,,,,,,,,,f,0.2691,space,0.5886,,,,,,,,0,15,15,79,1,,
6136001fcd0e07e6f5f66bc1,2023-06-16_10h28.58.472,phx_ver10,2022.2.5,Win32,59.60185958,,,,,,,,,,,,55,testing_3,zh2j,ai,zh2j_ai,zh2j_1_aizhai.wav,zh2j_8_aijai.wav,,FALSE,FALSE,,,,,,,,,,,,,,f,0.0379,space,0.3687,,,,,,,,0,16,16,54,1,,
6136001fcd0e07e6f5f66bc1,2023-06-16_10h28.58.472,phx_ver10,2022.2.5,Win32,59.60185958,,,,,,,,,,,,82,testing_3,j2x,au,j2x_au,j2x_8_auxau.wav,j2x_8_auxau.wav,,TRUE,FALSE,,,,,,,,,,,,,,f,0.0348,space,0.3348,,,,,,,,0,17,17,81,1,,
6136001fcd0e07e6f5f66bc1,2023-06-16_10h28.58.472,phx_ver10,2022.2.5,Win32,59.60185958,,,,,,,,,,,,99,testing_3,sh2x,a,sh2x_a,sh2x_1_asha.wav,sh2x_8_axa.wav,,FALSE,FALSE,,,,,,,,,,,,,,f,0.7501,space,1.048,,,,,,,,0,18,18,98,1,,
6136001fcd0e07e6f5f66bc1,2023-06-16_10h28.58.472,phx_ver10,2022.2.5,Win32,59.60185958,,,,,,,,,,,,10,testing_1,zh2x,i,zh2x_i,zh2x_8_ixi.wav,zh2x_8_ixi_copy.wav,,TRUE,TRUE,,,,,,,,,,,,,,f,0.3012,space,0.6062,,,,,,,,0,19,19,9,1,,
6136001fcd0e07e6f5f66bc1,2023-06-16_10h28.58.472,phx_ver10,2022.2.5,Win32,59.60185958,,,,,,,,,,,,47,testing_3,zh2sh,i,zh2sh_i,zh2sh_1_izhi.wav,zh2sh_8_ishi.wav,,FALSE,FALSE,,,,,,,,,,,,,,j,3.6156,space,3.8813,,,,,,,,0,20,20,46,1,,
6136001fcd0e07e6f5f66bc1,2023-06-16_10h28.58.472,phx_ver10,2022.2.5,Win32,59.60185958,,,,,,,,,,,,72,testing_3,zh2j,i,zh2j_i,zh2j_8_iji.wav,zh2j_1_izhi.wav,,FALSE,FALSE,,,,,,,,,,,,,,f,0.5506,space,0.8506,,,,,,,,0,21,21,71,1,,
6136001fcd0e07e6f5f66bc1,2023-06-16_10h28.58.472,phx_ver10,2022.2.5,Win32,59.60185958,,,,,,,,,,,,39,testing_3,zh2sh,e,zh2sh_e,zh2sh_1_ezhe.wav,zh2sh_8_eshe.wav,,FALSE,FALSE,,,,,,,,,,,,,,f,23.6154,space,23.917,,,,,,,,0,22,22,38,1,,
6136001fcd0e07e6f5f66bc1,2023-06-16_10h28.58.472,phx_ver10,2022.2.5,Win32,59.60185958,,,,,,,,,,,,53,testing_3,zh2j,ai,zh2j_ai,zh2j_1_aizhai.wav,zh2j_1_aizhai.wav,,TRUE,FALSE,,,,,,,,,,,,,,f,1.2858,space,2.4833,,,,,,,,0,23,23,52,1,,
6136001fcd0e07e6f5f66bc1,2023-06-16_10h28.58.472,phx_ver10,2022.2.5,Win32,59.60185958,,,,,,,,,,,,8,testing_1,zh2x,e,zh2x_e,zh2x_8_exe.wav,zh2x_1_ezhe.wav,,FALSE,TRUE,,,,,,,,,,,,,,f,0.3182,space,0.6344,,,,,,,,0,24,24,7,1,,
6136001fcd0e07e6f5f66bc1,2023-06-16_10h28.58.472,phx_ver10,2022.2.5,Win32,59.60185958,,,,,,,,,,,,126,testing_3,sh2j,ai,sh2j_ai,sh2j_8_aijai.wav,sh2j_8_aijai.wav,,TRUE,FALSE,,,,,,,,,,,,,,f,0.3887,space,0.6777,,,,,,,,0,25,25,125,1,,
6136001fcd0e07e6f5f66bc1,2023-06-16_10h28.58.472,phx_ver10,2022.2.5,Win32,59.60185958,,,,,,,,,,,,143,testing_3,sh2j,i,sh2j_i,sh2j_1_ishi.wav,sh2j_8_iji.wav,,FALSE,FALSE,,,,,,,,,,,,,,f,3.6819,space,3.9481,,,,,,,,0,26,26,142,1,,
6136001fcd0e07e6f5f66bc1,2023-06-16_10h28.58.472,phx_ver10,2022.2.5,Win32,59.60185958,,,,,,,,,,,,118,testing_3,sh2x,i,sh2x_i,sh2x_8_ixi.wav,sh2x_8_ixi.wav,,TRUE,FALSE,,,,,,,,,,,,,,f,0.0843,space,0.4837,,,,,,,,0,27,27,117,1,,
6136001fcd0e07e6f5f66bc1,2023-06-16_10h28.58.472,phx_ver10,2022.2.5,Win32,59.60185958,,,,,,,,,,,,116,testing_3,sh2x,ei,sh2x_ei,sh2x_8_eixei.wav,sh2x_1_eishei.wav,,FALSE,FALSE,,,,,,,,,,,,,,f,2.2992,space,2.5997,,,,,,,,0,28,28,115,1,,
6136001fcd0e07e6f5f66bc1,2023-06-16_10h28.58.472,phx_ver10,2022.2.5,Win32,59.60185958,,,,,,,,,,,,114,testing_3,sh2x,ei,sh2x_ei,sh2x_8_eixei.wav,sh2x_8_eixei.wav,,TRUE,FALSE,,,,,,,,,,,,,,f,3.5497,space,3.8476,,,,,,,,0,29,29,113,1,,
6136001fcd0e07e6f5f66bc1,2023-06-16_10h28.58.472,phx_ver10,2022.2.5,Win32,59.60185958,,,,,,,,,,,,25,testing_3,zh2sh,a,zh2sh_a,zh2sh_1_azha.wav,zh2sh_1_azha.wav,,TRUE,FALSE,,,,,,,,,,,,,,f,1.3379,space,1.6208,,,,,,,,0,30,30,24,1,,
6136001fcd0e07e6f5f66bc1,2023-06-16_10h28.58.472,phx_ver10,2022.2.5,Win32,59.60185958,,,,,,,,,,,,142,testing_3,sh2j,i,sh2j_i,sh2j_8_iji.wav,sh2j_8_iji.wav,,TRUE,FALSE,,,,,,,,,,,,,,f,0.1839,space,0.5037,,,,,,,,0,31,31,141,1,,
6136001fcd0e07e6f5f66bc1,2023-06-16_10h28.58.472,phx_ver10,2022.2.5,Win32,59.60185958,,,,,,,,,,,,56,testing_3,zh2j,ai,zh2j_ai,zh2j_8_aijai.wav,zh2j_1_aizhai.wav,,FALSE,FALSE,,,,,,,,,,,,,,f,1.5174,space,1.8509,,,,,,,,0,32,32,55,1,,
6136001fcd0e07e6f5f66bc1,2023-06-16_10h28.58.472,phx_ver10,2022.2.5,Win32,59.60185958,,,,,,,,,,,,59,testing_3,zh2j,au,zh2j_au,zh2j_1_auzhau.wav,zh2j_8_aujau.wav,,FALSE,FALSE,,,,,,,,,,,,,,f,1.1173,space,1.4162,,,,,,,,0,33,33,58,1,,
6136001fcd0e07e6f5f66bc1,2023-06-16_10h28.58.472,phx_ver10,2022.2.5,Win32,59.60185958,,,,,,,,,,,,102,testing_3,sh2x,ai,sh2x_ai,sh2x_8_aixai.wav,sh2x_8_aixai.wav,,TRUE,FALSE,,,,,,,,,,,,,,f,3.6719,space,3.9498,,,,,,,,0,34,34,101,1,,
6136001fcd0e07e6f5f66bc1,2023-06-16_10h28.58.472,phx_ver10,2022.2.5,Win32,59.60185958,,,,,,,,,,,,71,testing_3,zh2j,i,zh2j_i,zh2j_1_izhi.wav,zh2j_8_iji.wav,,FALSE,FALSE,,,,,,,,,,,,,,f,5.2958,space,5.5958,,,,,,,,0,35,35,70,1,,
6136001fcd0e07e6f5f66bc1,2023-06-16_10h28.58.472,phx_ver10,2022.2.5,Win32,59.60185958,,,,,,,,,,,,13,testing_2,zh2x,ai,zh2x_ai,zh2x_1_aizhai.wav,zh2x_1_aizhai.wav,,TRUE,FALSE,,,,,,,,,,,,,,f,1.152,space,1.4211,,,,,,,,0,36,36,12,1,,
6136001fcd0e07e6f5f66bc1,2023-06-16_10h28.58.472,phx_ver10,2022.2.5,Win32,59.60185958,,,,,,,,,,,,61,testing_3,zh2j,e,zh2j_e,zh2j_1_ezhe.wav,zh2j_1_ezhe.wav,,TRUE,FALSE,,,,,,,,,,,,,,f,2.1701,space,2.4503,,,,,,,,0,37,37,60,1,,
6136001fcd0e07e6f5f66bc1,2023-06-16_10h28.58.472,phx_ver10,2022.2.5,Win32,59.60185958,,,,,,,,,,,,67,testing_3,zh2j,ei,zh2j_ei,zh2j_1_eizhei.wav,zh2j_8_eijei.wav,,FALSE,FALSE,,,,,,,,,,,,,,f,0.9343,space,1.1664,,,,,,,,0,38,38,66,1,,
6136001fcd0e07e6f5f66bc1,2023-06-16_10h28.58.472,phx_ver10,2022.2.5,Win32,59.60185958,,,,,,,,,,,,78,testing_3,j2x,ai,j2x_ai,j2x_8_aixai.wav,j2x_8_aixai.wav,,TRUE,FALSE,,,,,,,,,,,,,,f,196.5902,space,196.9061,,,,,,,,0,39,39,77,1,,
6136001fcd0e07e6f5f66bc1,2023-06-16_10h28.58.472,phx_ver10,2022.2.5,Win32,59.60185958,,,,,,,,,,,,19,testing_2,zh2x,au,zh2x_au,zh2x_1_auzhau.wav,zh2x_8_auxau.wav,,FALSE,FALSE,,,,,,,,,,,,,,f,1.0176,space,1.3667,,,,,,,,0,40,40,18,1,,
6136001fcd0e07e6f5f66bc1,2023-06-16_10h28.58.472,phx_ver10,2022.2.5,Win32,59.60185958,,,,,,,,,,,,75,testing_3,j2x,a,j2x_a,j2x_1_aja.wav,j2x_8_axa.wav,,FALSE,FALSE,,,,,,,,,,,,,,f,0.3323,space,1.2673,,,,,,,,0,41,41,74,1,,
6136001fcd0e07e6f5f66bc1,2023-06-16_10h28.58.472,phx_ver10,2022.2.5,Win32,59.60185958,,,,,,,,,,,,28,testing_3,zh2sh,a,zh2sh_a,zh2sh_8_asha.wav,zh2sh_1_azha.wav,,FALSE,FALSE,,,,,,,,,,,,,,f,0.8537,space,1.1548,,,,,,,,0,42,42,27,1,,
6136001fcd0e07e6f5f66bc1,2023-06-16_10h28.58.472,phx_ver10,2022.2.5,Win32,59.60185958,,,,,,,,,,,,93,testing_3,j2x,i,j2x_i,j2x_1_iji.wav,j2x_1_iji.wav,,TRUE,FALSE,,,,,,,,,,,,,,f,0.0743,space,0.3681,,,,,,,,0,43,43,92,1,,
6136001fcd0e07e6f5f66bc1,2023-06-16_10h28.58.472,phx_ver10,2022.2.5,Win32,59.60185958,,,,,,,,,,,,15,testing_2,zh2x,ai,zh2x_ai,zh2x_1_aizhai.wav,zh2x_8_aixai.wav,,FALSE,FALSE,,,,,,,,,,,,,,f,0.4697,space,0.8175,,,,,,,,0,44,44,14,1,,
6136001fcd0e07e6f5f66bc1,2023-06-16_10h28.58.472,phx_ver10,2022.2.5,Win32,59.60185958,,,,,,,,,,,,42,testing_3,zh2sh,ei,zh2sh_ei,zh2sh_8_eishei.wav,zh2sh_8_eishei.wav,,TRUE,FALSE,,,,,,,,,,,,,,f,0.1682,space,0.972,,,,,,,,0,45,45,41,1,,
6136001fcd0e07e6f5f66bc1,2023-06-16_10h28.58.472,phx_ver10,2022.2.5,Win32,59.60185958,,,,,,,,,,,,132,testing_3,sh2j,au,sh2j_au,sh2j_8_aujau.wav,sh2j_1_aushau.wav,,FALSE,FALSE,,,,,,,,,,,,,,j,0.2712,space,1.0034,,,,,,,,0,46,46,131,1,,
6136001fcd0e07e6f5f66bc1,2023-06-16_10h28.58.472,phx_ver10,2022.2.5,Win32,59.60185958,,,,,,,,,,,,135,testing_3,sh2j,e,sh2j_e,sh2j_1_eshe.wav,sh2j_8_eje.wav,,FALSE,FALSE,,,,,,,,,,,,,,f,0.3689,space,0.6844,,,,,,,,0,47,47,134,1,,
6136001fcd0e07e6f5f66bc1,2023-06-16_10h28.58.472,phx_ver10,2022.2.5,Win32,59.60185958,,,,,,,,,,,,54,testing_3,zh2j,ai,zh2j_ai,zh2j_8_aijai.wav,zh2j_8_aijai.wav,,TRUE,FALSE,,,,,,,,,,,,,,f,0.1732,space,0.4721,,,,,,,,0,48,48,53,1,,
6136001fcd0e07e6f5f66bc1,2023-06-16_10h28.58.472,phx_ver10,2022.2.5,Win32,59.60185958,,,,,,,,,,,,76,testing_3,j2x,a,j2x_a,j2x_8_axa.wav,j2x_1_aja.wav,,FALSE,FALSE,,,,,,,,,,,,,,f,0.0733,space,0.4014,,,,,,,,0,49,49,75,1,,
6136001fcd0e07e6f5f66bc1,2023-06-16_10h28.58.472,phx_ver10,2022.2.5,Win32,59.60185958,,,,,,,,,,,,41,testing_3,zh2sh,ei,zh2sh_ei,zh2sh_1_eizhei.wav,zh2sh_1_eizhei.wav,,TRUE,FALSE,,,,,,,,,,,,,,f,0.4181,space,0.8219,,,,,,,,0,50,50,40,1,,
6136001fcd0e07e6f5f66bc1,2023-06-16_10h28.58.472,phx_ver10,2022.2.5,Win32,59.60185958,,,,,,,,,,,,38,testing_3,zh2sh,e,zh2sh_e,zh2sh_8_eshe.wav,zh2sh_8_eshe.wav,,TRUE,FALSE,,,,,,,,,,,,,,f,0.2421,space,0.8869,,,,,,,,0,51,51,37,1,,
6136001fcd0e07e6f5f66bc1,2023-06-16_10h28.58.472,phx_ver10,2022.2.5,Win32,59.60185958,,,,,,,,,,,,3,testing_1,zh2x,a,zh2x_a,zh2x_1_azha.wav,zh2x_8_axa.wav,,FALSE,TRUE,,,,,,,,,,,,,,f,0.7204,space,1.4535,,,,,,,,0,52,52,2,1,,
6136001fcd0e07e6f5f66bc1,2023-06-16_10h28.58.472,phx_ver10,2022.2.5,Win32,59.60185958,,,,,,,,,,,,64,testing_3,zh2j,e,zh2j_e,zh2j_8_eje.wav,zh2j_1_ezhe.wav,,FALSE,FALSE,,,,,,,,,,,,,,f,0.352,space,0.618,,,,,,,,0,53,53,63,1,,
6136001fcd0e07e6f5f66bc1,2023-06-16_10h28.58.472,phx_ver10,2022.2.5,Win32,59.60185958,,,,,,,,,,,,30,testing_3,zh2sh,ai,zh2sh_ai,zh2sh_8_aishai.wav,zh2sh_8_aishai.wav,,TRUE,FALSE,,,,,,,,,,,,,,f,1.1177,space,1.3499,,,,,,,,0,54,54,29,1,,
6136001fcd0e07e6f5f66bc1,2023-06-16_10h28.58.472,phx_ver10,2022.2.5,Win32,59.60185958,,,,,,,,,,,,4,testing_1,zh2x,a,zh2x_a,zh2x_8_axa.wav,zh2x_1_azha.wav,,FALSE,TRUE,,,,,,,,,,,,,,f,6.1468,space,6.6128,,,,,,,,0,55,55,3,1,,
6136001fcd0e07e6f5f66bc1,2023-06-16_10h28.58.472,phx_ver10,2022.2.5,Win32,59.60185958,,,,,,,,,,,,23,testing_2,zh2x,ei,zh2x_ei,zh2x_1_eizhei.wav,zh2x_8_eixei.wav,,FALSE,FALSE,,,,,,,,,,,,,,f,4.2586,space,4.5246,,,,,,,,0,56,56,22,1,,
6136001fcd0e07e6f5f66bc1,2023-06-16_10h28.58.472,phx_ver10,2022.2.5,Win32,59.60185958,,,,,,,,,,,,63,testing_3,zh2j,e,zh2j_e,zh2j_1_ezhe.wav,zh2j_8_eje.wav,,FALSE,FALSE,,,,,,,,,,,,,,f,0.0139,space,0.4615,,,,,,,,0,57,57,62,1,,
6136001fcd0e07e6f5f66bc1,2023-06-16_10h28.58.472,phx_ver10,2022.2.5,Win32,59.60185958,,,,,,,,,,,,101,testing_3,sh2x,ai,sh2x_ai,sh2x_1_aishai.wav,sh2x_1_aishai.wav,,TRUE,FALSE,,,,,,,,,,,,,,f,0.351,space,0.6686,,,,,,,,0,58,58,100,1,,
6136001fcd0e07e6f5f66bc1,2023-06-16_10h28.58.472,phx_ver10,2022.2.5,Win32,59.60185958,,,,,,,,,,,,83,testing_3,j2x,au,j2x_au,j2x_1_aujau.wav,j2x_8_auxau.wav,,FALSE,FALSE,,,,,,,,,,,,,,f,0.0022,space,0.2865,,,,,,,,0,59,59,82,1,,
6136001fcd0e07e6f5f66bc1,2023-06-16_10h28.58.472,phx_ver10,2022.2.5,Win32,59.60185958,,,,,,,,,,,,16,testing_2,zh2x,ai,zh2x_ai,zh2x_8_aixai.wav,zh2x_1_aizhai.wav,,FALSE,FALSE,,,,,,,,,,,,,,f,0.0848,space,0.3524,,,,,,,,0,60,60,15,1,,
6136001fcd0e07e6f5f66bc1,2023-06-16_10h28.58.472,phx_ver10,2022.2.5,Win32,59.60185958,,,,,,,,,,,,50,testing_3,zh2j,a,zh2j_a,zh2j_8_aja.wav,zh2j_8_aja.wav,,TRUE,FALSE,,,,,,,,,,,,,,f,2.3822,space,2.6667,,,,,,,,0,61,61,49,1,,
6136001fcd0e07e6f5f66bc1,2023-06-16_10h28.58.472,phx_ver10,2022.2.5,Win32,59.60185958,,,,,,,,,,,,94,testing_3,j2x,i,j2x_i,j2x_8_ixi.wav,j2x_8_ixi.wav,,TRUE,FALSE,,,,,,,,,,,,,,f,0.0017,space,0.3511,,,,,,,,0,62,62,93,1,,
6136001fcd0e07e6f5f66bc1,2023-06-16_10h28.58.472,phx_ver10,2022.2.5,Win32,59.60185958,,,,,,,,,,,,119,testing_3,sh2x,i,sh2x_i,sh2x_1_ishi.wav,sh2x_8_ixi.wav,,FALSE,FALSE,,,,,,,,,,,,,,f,0.3848,space,0.9851,,,,,,,,0,63,63,118,1,,
6136001fcd0e07e6f5f66bc1,2023-06-16_10h28.58.472,phx_ver10,2022.2.5,Win32,59.60185958,,,,,,,,,,,,129,testing_3,sh2j,au,sh2j_au,sh2j_1_aushau.wav,sh2j_1_aushau.wav,,TRUE,FALSE,,,,,,,,,,,,,,f,0.1718,space,6.1008,,,,,,,,0,64,64,128,1,,
6136001fcd0e07e6f5f66bc1,2023-06-16_10h28.58.472,phx_ver10,2022.2.5,Win32,59.60185958,,,,,,,,,,,,2,testing_1,zh2x,a,zh2x_a,zh2x_8_axa.wav,zh2x_8_axa_copy.wav,,TRUE,TRUE,,,,,,,,,,,,,,f,0.5848,space,0.9002,,,,,,,,0,65,65,1,1,,
6136001fcd0e07e6f5f66bc1,2023-06-16_10h28.58.472,phx_ver10,2022.2.5,Win32,59.60185958,,,,,,,,,,,,40,testing_3,zh2sh,e,zh2sh_e,zh2sh_8_eshe.wav,zh2sh_1_ezhe.wav,,FALSE,FALSE,,,,,,,,,,,,,,j,0.4976,space,0.7845,,,,,,,,0,66,66,39,1,,
6136001fcd0e07e6f5f66bc1,2023-06-16_10h28.58.472,phx_ver10,2022.2.5,Win32,59.60185958,,,,,,,,,,,,140,testing_3,sh2j,ei,sh2j_ei,sh2j_8_eijei.wav,sh2j_1_eishei.wav,,FALSE,FALSE,,,,,,,,,,,,,,j,0.1918,space,0.4735,,,,,,,,0,67,67,139,1,,
6136001fcd0e07e6f5f66bc1,2023-06-16_10h28.58.472,phx_ver10,2022.2.5,Win32,59.60185958,,,,,,,,,,,,133,testing_3,sh2j,e,sh2j_e,sh2j_1_eshe.wav,sh2j_1_eshe.wav,,TRUE,FALSE,,,,,,,,,,,,,,f,0.0198,space,0.2893,,,,,,,,0,68,68,132,1,,
6136001fcd0e07e6f5f66bc1,2023-06-16_10h28.58.472,phx_ver10,2022.2.5,Win32,59.60185958,,,,,,,,,,,,35,testing_3,zh2sh,au,zh2sh_au,zh2sh_1_auzhau.wav,zh2sh_8_aushau.wav,,FALSE,FALSE,,,,,,,,,,,,,,j,0.248,space,0.452,,,,,,,,0,69,69,34,1,,
6136001fcd0e07e6f5f66bc1,2023-06-16_10h28.58.472,phx_ver10,2022.2.5,Win32,59.60185958,,,,,,,,,,,,128,testing_3,sh2j,ai,sh2j_ai,sh2j_8_aijai.wav,sh2j_1_aishai.wav,,FALSE,FALSE,,,,,,,,,,,,,,j,0.2025,space,0.4867,,,,,,,,0,70,70,127,1,,
6136001fcd0e07e6f5f66bc1,2023-06-16_10h28.58.472,phx_ver10,2022.2.5,Win32,59.60185958,,,,,,,,,,,,6,testing_1,zh2x,e,zh2x_e,zh2x_8_exe.wav,zh2x_8_exe_copy.wav,,TRUE,TRUE,,,,,,,,,,,,,,f,8.3966,space,9.0778,,,,,,,,0,71,71,5,1,,
6136001fcd0e07e6f5f66bc1,2023-06-16_10h28.58.472,phx_ver10,2022.2.5,Win32,59.60185958,,,,,,,,,,,,12,testing_1,zh2x,i,zh2x_i,zh2x_8_ixi.wav,zh2x_1_izhi.wav,,FALSE,TRUE,,,,,,,,,,,,,,f,0.6515,space,0.8893,,,,,,,,0,72,72,11,1,,
6136001fcd0e07e6f5f66bc1,2023-06-16_10h28.58.472,phx_ver10,2022.2.5,Win32,59.60185958,,,,,,,,,,,,9,testing_1,zh2x,i,zh2x_i,zh2x_1_izhi.wav,zh2x_1_izhi_copy.wav,,TRUE,TRUE,,,,,,,,,,,,,,f,1.3508,space,1.6007,,,,,,,,0,73,73,8,1,,
6136001fcd0e07e6f5f66bc1,2023-06-16_10h28.58.472,phx_ver10,2022.2.5,Win32,59.60185958,,,,,,,,,,,,27,testing_3,zh2sh,a,zh2sh_a,zh2sh_1_azha.wav,zh2sh_8_asha.wav,,FALSE,FALSE,,,,,,,,,,,,,,j,0.0519,space,0.334,,,,,,,,0,74,74,26,1,,
6136001fcd0e07e6f5f66bc1,2023-06-16_10h28.58.472,phx_ver10,2022.2.5,Win32,59.60185958,,,,,,,,,,,,115,testing_3,sh2x,ei,sh2x_ei,sh2x_1_eishei.wav,sh2x_8_eixei.wav,,FALSE,FALSE,,,,,,,,,,,,,,f,5.8296,space,6.6629,,,,,,,,0,75,75,114,1,,
6136001fcd0e07e6f5f66bc1,2023-06-16_10h28.58.472,phx_ver10,2022.2.5,Win32,59.60185958,,,,,,,,,,,,69,testing_3,zh2j,i,zh2j_i,zh2j_1_izhi.wav,zh2j_1_izhi.wav,,TRUE,FALSE,,,,,,,,,,,,,,f,2.2154,space,2.4657,,,,,,,,0,76,76,68,1,,
6136001fcd0e07e6f5f66bc1,2023-06-16_10h28.58.472,phx_ver10,2022.2.5,Win32,59.60185958,,,,,,,,,,,,90,testing_3,j2x,ei,j2x_ei,j2x_8_eixei.wav,j2x_8_eixei.wav,,TRUE,FALSE,,,,,,,,,,,,,,f,0.2023,space,0.5017,,,,,,,,0,77,77,89,1,,
6136001fcd0e07e6f5f66bc1,2023-06-16_10h28.58.472,phx_ver10,2022.2.5,Win32,59.60185958,,,,,,,,,,,,139,testing_3,sh2j,ei,sh2j_ei,sh2j_1_eishei.wav,sh2j_8_eijei.wav,,FALSE,FALSE,,,,,,,,,,,,,,f,3.3494,space,3.6017,,,,,,,,0,78,78,138,1,,
6136001fcd0e07e6f5f66bc1,2023-06-16_10h28.58.472,phx_ver10,2022.2.5,Win32,59.60185958,,,,,,,,,,,,31,testing_3,zh2sh,ai,zh2sh_ai,zh2sh_1_aizhai.wav,zh2sh_8_aishai.wav,,FALSE,FALSE,,,,,,,,,,,,,,f,3.249,space,3.4976,,,,,,,,0,79,79,30,1,,
6136001fcd0e07e6f5f66bc1,2023-06-16_10h28.58.472,phx_ver10,2022.2.5,Win32,59.60185958,,,,,,,,,,,,5,testing_1,zh2x,e,zh2x_e,zh2x_1_ezhe.wav,zh2x_1_ezhe_copy.wav,,TRUE,TRUE,,,,,,,,,,,,,,f,1.0768,space,1.3206,,,,,,,,0,80,80,4,1,,
6136001fcd0e07e6f5f66bc1,2023-06-16_10h28.58.472,phx_ver10,2022.2.5,Win32,59.60185958,,,,,,,,,,,,62,testing_3,zh2j,e,zh2j_e,zh2j_8_eje.wav,zh2j_8_eje.wav,,TRUE,FALSE,,,,,,,,,,,,,,f,10.9261,space,11.1756,,,,,,,,0,81,81,61,1,,
6136001fcd0e07e6f5f66bc1,2023-06-16_10h28.58.472,phx_ver10,2022.2.5,Win32,59.60185958,,,,,,,,,,,,137,testing_3,sh2j,ei,sh2j_ei,sh2j_1_eishei.wav,sh2j_1_eishei.wav,,TRUE,FALSE,,,,,,,,,,,,,,f,0.9738,space,1.4164,,,,,,,,0,82,82,136,1,,
6136001fcd0e07e6f5f66bc1,2023-06-16_10h28.58.472,phx_ver10,2022.2.5,Win32,59.60185958,,,,,,,,,,,,123,testing_3,sh2j,a,sh2j_a,sh2j_1_asha.wav,sh2j_8_aja.wav,,FALSE,FALSE,,,,,,,,,,,,,,j,0.074,space,0.4227,,,,,,,,0,83,83,122,1,,
6136001fcd0e07e6f5f66bc1,2023-06-16_10h28.58.472,phx_ver10,2022.2.5,Win32,59.60185958,,,,,,,,,,,,57,testing_3,zh2j,au,zh2j_au,zh2j_1_auzhau.wav,zh2j_1_auzhau.wav,,TRUE,FALSE,,,,,,,,,,,,,,f,0.766,space,1.0328,,,,,,,,0,84,84,56,1,,
6136001fcd0e07e6f5f66bc1,2023-06-16_10h28.58.472,phx_ver10,2022.2.5,Win32,59.60185958,,,,,,,,,,,,32,testing_3,zh2sh,ai,zh2sh_ai,zh2sh_8_aishai.wav,zh2sh_1_aizhai.wav,,FALSE,FALSE,,,,,,,,,,,,,,j,1.5371,space,4.0028,,,,,,,,0,85,85,31,1,,
6136001fcd0e07e6f5f66bc1,2023-06-16_10h28.58.472,phx_ver10,2022.2.5,Win32,59.60185958,,,,,,,,,,,,91,testing_3,j2x,ei,j2x_ei,j2x_1_eijei.wav,j2x_8_eixei.wav,,FALSE,FALSE,,,,,,,,,,,,,,j,2.0997,space,2.3994,,,,,,,,0,86,86,90,1,,
6136001fcd0e07e6f5f66bc1,2023-06-16_10h28.58.472,phx_ver10,2022.2.5,Win32,59.60185958,,,,,,,,,,,,79,testing_3,j2x,ai,j2x_ai,j2x_1_aijai.wav,j2x_8_aixai.wav,,FALSE,FALSE,,,,,,,,,,,,,,j,0.1519,space,0.4356,,,,,,,,0,87,87,78,1,,
6136001fcd0e07e6f5f66bc1,2023-06-16_10h28.58.472,phx_ver10,2022.2.5,Win32,59.60185958,,,,,,,,,,,,136,testing_3,sh2j,e,sh2j_e,sh2j_8_eje.wav,sh2j_1_eshe.wav,,FALSE,FALSE,,,,,,,,,,,,,,f,3.1138,space,3.4837,,,,,,,,0,88,88,135,1,,
6136001fcd0e07e6f5f66bc1,2023-06-16_10h28.58.472,phx_ver10,2022.2.5,Win32,59.60185958,,,,,,,,,,,,117,testing_3,sh2x,i,sh2x_i,sh2x_1_ishi.wav,sh2x_1_ishi.wav,,TRUE,FALSE,,,,,,,,,,,,,,f,0.2347,space,0.602,,,,,,,,0,89,89,116,1,,
6136001fcd0e07e6f5f66bc1,2023-06-16_10h28.58.472,phx_ver10,2022.2.5,Win32,59.60185958,,,,,,,,,,,,104,testing_3,sh2x,ai,sh2x_ai,sh2x_8_aixai.wav,sh2x_1_aishai.wav,,FALSE,FALSE,,,,,,,,,,,,,,f,0.7694,space,1.151,,,,,,,,0,90,90,103,1,,
6136001fcd0e07e6f5f66bc1,2023-06-16_10h28.58.472,phx_ver10,2022.2.5,Win32,59.60185958,,,,,,,,,,,,60,testing_3,zh2j,au,zh2j_au,zh2j_8_aujau.wav,zh2j_1_auzhau.wav,,FALSE,FALSE,,,,,,,,,,,,,,f,0.8573,space,1.1834,,,,,,,,0,91,91,59,1,,
6136001fcd0e07e6f5f66bc1,2023-06-16_10h28.58.472,phx_ver10,2022.2.5,Win32,59.60185958,,,,,,,,,,,,24,testing_2,zh2x,ei,zh2x_ei,zh2x_8_eixei.wav,zh2x_1_eizhei.wav,,FALSE,FALSE,,,,,,,,,,,,,,j,1.0008,space,1.6662,,,,,,,,0,92,92,23,1,,
6136001fcd0e07e6f5f66bc1,2023-06-16_10h28.58.472,phx_ver10,2022.2.5,Win32,59.60185958,,,,,,,,,,,,124,testing_3,sh2j,a,sh2j_a,sh2j_8_aja.wav,sh2j_1_asha.wav,,FALSE,FALSE,,,,,,,,,,,,,,j,0.4829,space,0.7312,,,,,,,,0,93,93,123,1,,
6136001fcd0e07e6f5f66bc1,2023-06-16_10h28.58.472,phx_ver10,2022.2.5,Win32,59.60185958,,,,,,,,,,,,7,testing_1,zh2x,e,zh2x_e,zh2x_1_ezhe.wav,zh2x_8_exe.wav,,FALSE,TRUE,,,,,,,,,,,,,,j,0.8916,space,1.2027,,,,,,,,0,94,94,6,1,,
6136001fcd0e07e6f5f66bc1,2023-06-16_10h28.58.472,phx_ver10,2022.2.5,Win32,59.60185958,,,,,,,,,,,,100,testing_3,sh2x,a,sh2x_a,sh2x_8_axa.wav,sh2x_1_asha.wav,,FALSE,FALSE,,,,,,,,,,,,,,f,0.7183,space,1.0006,,,,,,,,0,95,95,99,1,,
6136001fcd0e07e6f5f66bc1,2023-06-16_10h28.58.472,phx_ver10,2022.2.5,Win32,59.60185958,,,,,,,,,,,,141,testing_3,sh2j,i,sh2j_i,sh2j_1_ishi.wav,sh2j_1_ishi.wav,,TRUE,FALSE,,,,,,,,,,,,,,f,0.1198,space,0.386,,,,,,,,0,96,96,140,1,,
6136001fcd0e07e6f5f66bc1,2023-06-16_10h28.58.472,phx_ver10,2022.2.5,Win32,59.60185958,,,,,,,,,,,,89,testing_3,j2x,ei,j2x_ei,j2x_1_eijei.wav,j2x_1_eijei.wav,,TRUE,FALSE,,,,,,,,,,,,,,f,0.5661,space,0.9893,,,,,,,,0,97,97,88,1,,
6136001fcd0e07e6f5f66bc1,2023-06-16_10h28.58.472,phx_ver10,2022.2.5,Win32,59.60185958,,,,,,,,,,,,111,testing_3,sh2x,e,sh2x_e,sh2x_1_eshe.wav,sh2x_8_exe.wav,,FALSE,FALSE,,,,,,,,,,,,,,f,1.5739,space,1.8836,,,,,,,,0,98,98,110,1,,
6136001fcd0e07e6f5f66bc1,2023-06-16_10h28.58.472,phx_ver10,2022.2.5,Win32,59.60185958,,,,,,,,,,,,86,testing_3,j2x,e,j2x_e,j2x_8_exe.wav,j2x_8_exe.wav,,TRUE,FALSE,,,,,,,,,,,,,,f,0.3014,space,0.5843,,,,,,,,0,99,99,85,1,,
6136001fcd0e07e6f5f66bc1,2023-06-16_10h28.58.472,phx_ver10,2022.2.5,Win32,59.60185958,,,,,,,,,,,,105,testing_3,sh2x,au,sh2x_au,sh2x_1_aushau.wav,sh2x_1_aushau.wav,,TRUE,FALSE,,,,,,,,,,,,,,f,3.136,space,3.4321,,,,,,,,0,100,100,104,1,,
6136001fcd0e07e6f5f66bc1,2023-06-16_10h28.58.472,phx_ver10,2022.2.5,Win32,59.60185958,,,,,,,,,,,,98,testing_3,sh2x,a,sh2x_a,sh2x_8_axa.wav,sh2x_8_axa.wav,,TRUE,FALSE,,,,,,,,,,,,,,f,0.6699,space,0.9377,,,,,,,,0,101,101,97,1,,
6136001fcd0e07e6f5f66bc1,2023-06-16_10h28.58.472,phx_ver10,2022.2.5,Win32,59.60185958,,,,,,,,,,,,51,testing_3,zh2j,a,zh2j_a,zh2j_1_azha.wav,zh2j_8_aja.wav,,FALSE,FALSE,,,,,,,,,,,,,,f,10.2241,space,10.494,,,,,,,,0,102,102,50,1,,
6136001fcd0e07e6f5f66bc1,2023-06-16_10h28.58.472,phx_ver10,2022.2.5,Win32,59.60185958,,,,,,,,,,,,49,testing_3,zh2j,a,zh2j_a,zh2j_1_azha.wav,zh2j_1_azha.wav,,TRUE,FALSE,,,,,,,,,,,,,,f,0.7021,space,1.6834,,,,,,,,0,103,103,48,1,,
6136001fcd0e07e6f5f66bc1,2023-06-16_10h28.58.472,phx_ver10,2022.2.5,Win32,59.60185958,,,,,,,,,,,,48,testing_3,zh2sh,i,zh2sh_i,zh2sh_8_ishi.wav,zh2sh_1_izhi.wav,,FALSE,FALSE,,,,,,,,,,,,,,f,1.3506,space,1.6311,,,,,,,,0,104,104,47,1,,
6136001fcd0e07e6f5f66bc1,2023-06-16_10h28.58.472,phx_ver10,2022.2.5,Win32,59.60185958,,,,,,,,,,,,87,testing_3,j2x,e,j2x_e,j2x_1_eje.wav,j2x_8_exe.wav,,FALSE,FALSE,,,,,,,,,,,,,,f,1.217,space,1.4671,,,,,,,,0,105,105,86,1,,
6136001fcd0e07e6f5f66bc1,2023-06-16_10h28.58.472,phx_ver10,2022.2.5,Win32,59.60185958,,,,,,,,,,,,95,testing_3,j2x,i,j2x_i,j2x_1_iji.wav,j2x_8_ixi.wav,,FALSE,FALSE,,,,,,,,,,,,,,f,2.25,space,2.4839,,,,,,,,0,106,106,94,1,,
6136001fcd0e07e6f5f66bc1,2023-06-16_10h28.58.472,phx_ver10,2022.2.5,Win32,59.60185958,,,,,,,,,,,,46,testing_3,zh2sh,i,zh2sh_i,zh2sh_8_ishi.wav,zh2sh_8_ishi.wav,,TRUE,FALSE,,,,,,,,,,,,,,f,4.7548,space,5.0382,,,,,,,,0,107,107,45,1,,
6136001fcd0e07e6f5f66bc1,2023-06-16_10h28.58.472,phx_ver10,2022.2.5,Win32,59.60185958,,,,,,,,,,,,112,testing_3,sh2x,e,sh2x_e,sh2x_8_exe.wav,sh2x_1_eshe.wav,,FALSE,FALSE,,,,,,,,,,,,,,f,6.6618,space,6.9783,,,,,,,,0,108,108,111,1,,
6136001fcd0e07e6f5f66bc1,2023-06-16_10h28.58.472,phx_ver10,2022.2.5,Win32,59.60185958,,,,,,,,,,,,120,testing_3,sh2x,i,sh2x_i,sh2x_8_ixi.wav,sh2x_1_ishi.wav,,FALSE,FALSE,,,,,,,,,,,,,,f,3.3646,space,3.9208,,,,,,,,0,109,109,119,1,,
6136001fcd0e07e6f5f66bc1,2023-06-16_10h28.58.472,phx_ver10,2022.2.5,Win32,59.60185958,,,,,,,,,,,,65,testing_3,zh2j,ei,zh2j_ei,zh2j_1_eizhei.wav,zh2j_1_eizhei.wav,,TRUE,FALSE,,,,,,,,,,,,,,f,4.2955,space,4.5468,,,,,,,,0,110,110,64,1,,
6136001fcd0e07e6f5f66bc1,2023-06-16_10h28.58.472,phx_ver10,2022.2.5,Win32,59.60185958,,,,,,,,,,,,45,testing_3,zh2sh,i,zh2sh_i,zh2sh_1_izhi.wav,zh2sh_1_izhi.wav,,TRUE,FALSE,,,,,,,,,,,,,,f,2.9169,space,3.2399,,,,,,,,0,111,111,44,1,,
6136001fcd0e07e6f5f66bc1,2023-06-16_10h28.58.472,phx_ver10,2022.2.5,Win32,59.60185958,,,,,,,,,,,,122,testing_3,sh2j,a,sh2j_a,sh2j_8_aja.wav,sh2j_8_aja.wav,,TRUE,FALSE,,,,,,,,,,,,,,f,7.7979,space,8.112,,,,,,,,0,112,112,121,1,,
6136001fcd0e07e6f5f66bc1,2023-06-16_10h28.58.472,phx_ver10,2022.2.5,Win32,59.60185958,,,,,,,,,,,,44,testing_3,zh2sh,ei,zh2sh_ei,zh2sh_8_eishei.wav,zh2sh_1_eizhei.wav,,FALSE,FALSE,,,,,,,,,,,,,,j,0.6206,space,0.9043,,,,,,,,0,113,113,43,1,,
6136001fcd0e07e6f5f66bc1,2023-06-16_10h28.58.472,phx_ver10,2022.2.5,Win32,59.60185958,,,,,,,,,,,,58,testing_3,zh2j,au,zh2j_au,zh2j_8_aujau.wav,zh2j_8_aujau.wav,,TRUE,FALSE,,,,,,,,,,,,,,f,0.6006,space,0.8516,,,,,,,,0,114,114,57,1,,
6136001fcd0e07e6f5f66bc1,2023-06-16_10h28.58.472,phx_ver10,2022.2.5,Win32,59.60185958,,,,,,,,,,,,17,testing_2,zh2x,au,zh2x_au,zh2x_1_auzhau.wav,zh2x_1_auzhau.wav,,TRUE,FALSE,,,,,,,,,,,,,,f,0.6535,space,0.8673,,,,,,,,0,115,115,16,1,,
6136001fcd0e07e6f5f66bc1,2023-06-16_10h28.58.472,phx_ver10,2022.2.5,Win32,59.60185958,,,,,,,,,,,,84,testing_3,j2x,au,j2x_au,j2x_8_auxau.wav,j2x_1_aujau.wav,,FALSE,FALSE,,,,,,,,,,,,,,j,0.6214,space,1.1172,,,,,,,,0,116,116,83,1,,
6136001fcd0e07e6f5f66bc1,2023-06-16_10h28.58.472,phx_ver10,2022.2.5,Win32,59.60185958,,,,,,,,,,,,103,testing_3,sh2x,ai,sh2x_ai,sh2x_1_aishai.wav,sh2x_8_aixai.wav,,FALSE,FALSE,,,,,,,,,,,,,,f,1.398,space,1.7641,,,,,,,,0,117,117,102,1,,
6136001fcd0e07e6f5f66bc1,2023-06-16_10h28.58.472,phx_ver10,2022.2.5,Win32,59.60185958,,,,,,,,,,,,109,testing_3,sh2x,e,sh2x_e,sh2x_1_eshe.wav,sh2x_1_eshe.wav,,TRUE,FALSE,,,,,,,,,,,,,,f,0.8338,space,1.1024,,,,,,,,0,118,118,108,1,,
6136001fcd0e07e6f5f66bc1,2023-06-16_10h28.58.472,phx_ver10,2022.2.5,Win32,59.60185958,,,,,,,,,,,,107,testing_3,sh2x,au,sh2x_au,sh2x_1_aushau.wav,sh2x_8_auxau.wav,,FALSE,FALSE,,,,,,,,,,,,,,f,0.3511,space,0.6511,,,,,,,,0,119,119,106,1,,
6136001fcd0e07e6f5f66bc1,2023-06-16_10h28.58.472,phx_ver10,2022.2.5,Win32,59.60185958,,,,,,,,,,,,131,testing_3,sh2j,au,sh2j_au,sh2j_1_aushau.wav,sh2j_8_aujau.wav,,FALSE,FALSE,,,,,,,,,,,,,,j,14.341,space,14.6237,,,,,,,,0,120,120,130,1,,
6136001fcd0e07e6f5f66bc1,2023-06-16_10h28.58.472,phx_ver10,2022.2.5,Win32,59.60185958,,,,,,,,,,,,85,testing_3,j2x,e,j2x_e,j2x_1_eje.wav,j2x_1_eje.wav,,TRUE,FALSE,,,,,,,,,,,,,,f,0.0512,space,0.3349,,,,,,,,0,121,121,84,1,,
6136001fcd0e07e6f5f66bc1,2023-06-16_10h28.58.472,phx_ver10,2022.2.5,Win32,59.60185958,,,,,,,,,,,,92,testing_3,j2x,ei,j2x_ei,j2x_8_eixei.wav,j2x_1_eijei.wav,,FALSE,FALSE,,,,,,,,,,,,,,j,2.5666,space,3.2386,,,,,,,,0,122,122,91,1,,
6136001fcd0e07e6f5f66bc1,2023-06-16_10h28.58.472,phx_ver10,2022.2.5,Win32,59.60185958,,,,,,,,,,,,21,testing_2,zh2x,ei,zh2x_ei,zh2x_1_eizhei.wav,zh2x_1_eizhei.wav,,TRUE,FALSE,,,,,,,,,,,,,,f,2.2336,space,2.6025,,,,,,,,0,123,123,20,1,,
6136001fcd0e07e6f5f66bc1,2023-06-16_10h28.58.472,phx_ver10,2022.2.5,Win32,59.60185958,,,,,,,,,,,,68,testing_3,zh2j,ei,zh2j_ei,zh2j_8_eijei.wav,zh2j_1_eizhei.wav,,FALSE,FALSE,,,,,,,,,,,,,,f,0.6853,space,0.9346,,,,,,,,0,124,124,67,1,,
6136001fcd0e07e6f5f66bc1,2023-06-16_10h28.58.472,phx_ver10,2022.2.5,Win32,59.60185958,,,,,,,,,,,,81,testing_3,j2x,au,j2x_au,j2x_1_aujau.wav,j2x_1_aujau.wav,,TRUE,FALSE,,,,,,,,,,,,,,f,0.7383,space,1.0233,,,,,,,,0,125,125,80,1,,
6136001fcd0e07e6f5f66bc1,2023-06-16_10h28.58.472,phx_ver10,2022.2.5,Win32,59.60185958,,,,,,,,,,,,34,testing_3,zh2sh,au,zh2sh_au,zh2sh_8_aushau.wav,zh2sh_8_aushau.wav,,TRUE,FALSE,,,,,,,,,,,,,,f,2.1869,space,2.4378,,,,,,,,0,126,126,33,1,,
6136001fcd0e07e6f5f66bc1,2023-06-16_10h28.58.472,phx_ver10,2022.2.5,Win32,59.60185958,,,,,,,,,,,,22,testing_2,zh2x,ei,zh2x_ei,zh2x_8_eixei.wav,zh2x_8_eixei.wav,,TRUE,FALSE,,,,,,,,,,,,,,f,2.2875,space,2.5097,,,,,,,,0,127,127,21,1,,
6136001fcd0e07e6f5f66bc1,2023-06-16_10h28.58.472,phx_ver10,2022.2.5,Win32,59.60185958,,,,,,,,,,,,144,testing_3,sh2j,i,sh2j_i,sh2j_8_iji.wav,sh2j_1_ishi.wav,,FALSE,FALSE,,,,,,,,,,,,,,f,1.3237,space,1.5501,,,,,,,,0,128,128,143,1,,
6136001fcd0e07e6f5f66bc1,2023-06-16_10h28.58.472,phx_ver10,2022.2.5,Win32,59.60185958,,,,,,,,,,,,52,testing_3,zh2j,a,zh2j_a,zh2j_8_aja.wav,zh2j_1_azha.wav,,FALSE,FALSE,,,,,,,,,,,,,,f,1.8201,space,2.0534,,,,,,,,0,129,129,51,1,,
6136001fcd0e07e6f5f66bc1,2023-06-16_10h28.58.472,phx_ver10,2022.2.5,Win32,59.60185958,,,,,,,,,,,,97,testing_3,sh2x,a,sh2x_a,sh2x_1_asha.wav,sh2x_1_asha.wav,,TRUE,FALSE,,,,,,,,,,,,,,f,2.4002,space,2.966,,,,,,,,0,130,130,96,1,,
6136001fcd0e07e6f5f66bc1,2023-06-16_10h28.58.472,phx_ver10,2022.2.5,Win32,59.60185958,,,,,,,,,,,,26,testing_3,zh2sh,a,zh2sh_a,zh2sh_8_asha.wav,zh2sh_8_asha.wav,,TRUE,FALSE,,,,,,,,,,,,,,f,0.3407,space,0.6023,,,,,,,,0,131,131,25,1,,
6136001fcd0e07e6f5f66bc1,2023-06-16_10h28.58.472,phx_ver10,2022.2.5,Win32,59.60185958,,,,,,,,,,,,37,testing_3,zh2sh,e,zh2sh_e,zh2sh_1_ezhe.wav,zh2sh_1_ezhe.wav,,TRUE,FALSE,,,,,,,,,,,,,,f,0.468,space,0.7341,,,,,,,,0,132,132,36,1,,
6136001fcd0e07e6f5f66bc1,2023-06-16_10h28.58.472,phx_ver10,2022.2.5,Win32,59.60185958,,,,,,,,,,,,18,testing_2,zh2x,au,zh2x_au,zh2x_8_auxau.wav,zh2x_8_auxau.wav,,TRUE,FALSE,,,,,,,,,,,,,,f,0.209,space,0.4544,,,,,,,,0,133,133,17,1,,
6136001fcd0e07e6f5f66bc1,2023-06-16_10h28.58.472,phx_ver10,2022.2.5,Win32,59.60185958,,,,,,,,,,,,11,testing_1,zh2x,i,zh2x_i,zh2x_1_izhi.wav,zh2x_8_ixi.wav,,FALSE,TRUE,,,,,,,,,,,,,,j,1.4511,space,1.7166,,,,,,,,0,134,134,10,1,,
6136001fcd0e07e6f5f66bc1,2023-06-16_10h28.58.472,phx_ver10,2022.2.5,Win32,59.60185958,,,,,,,,,,,,66,testing_3,zh2j,ei,zh2j_ei,zh2j_8_eijei.wav,zh2j_8_eijei.wav,,TRUE,FALSE,,,,,,,,,,,,,,f,0.5485,space,0.9514,,,,,,,,0,135,135,65,1,,
6136001fcd0e07e6f5f66bc1,2023-06-16_10h28.58.472,phx_ver10,2022.2.5,Win32,59.60185958,,,,,,,,,,,,33,testing_3,zh2sh,au,zh2sh_au,zh2sh_1_auzhau.wav,zh2sh_1_auzhau.wav,,TRUE,FALSE,,,,,,,,,,,,,,f,1.3008,space,1.6358,,,,,,,,0,136,136,32,1,,
6136001fcd0e07e6f5f66bc1,2023-06-16_10h28.58.472,phx_ver10,2022.2.5,Win32,59.60185958,,,,,,,,,,,,77,testing_3,j2x,ai,j2x_ai,j2x_1_aijai.wav,j2x_1_aijai.wav,,TRUE,FALSE,,,,,,,,,,,,,,f,0.3418,space,0.9221,,,,,,,,0,137,137,76,1,,
6136001fcd0e07e6f5f66bc1,2023-06-16_10h28.58.472,phx_ver10,2022.2.5,Win32,59.60185958,,,,,,,,,,,,125,testing_3,sh2j,ai,sh2j_ai,sh2j_1_aishai.wav,sh2j_1_aishai.wav,,TRUE,FALSE,,,,,,,,,,,,,,f,1.9325,space,2.1876,,,,,,,,0,138,138,124,1,,
6136001fcd0e07e6f5f66bc1,2023-06-16_10h28.58.472,phx_ver10,2022.2.5,Win32,59.60185958,,,,,,,,,,,,73,testing_3,j2x,a,j2x_a,j2x_1_aja.wav,j2x_1_aja.wav,,TRUE,FALSE,,,,,,,,,,,,,,f,0.668,space,1.0175,,,,,,,,0,139,139,72,1,,
6136001fcd0e07e6f5f66bc1,2023-06-16_10h28.58.472,phx_ver10,2022.2.5,Win32,59.60185958,,,,,,,,,,,,127,testing_3,sh2j,ai,sh2j_ai,sh2j_1_aishai.wav,sh2j_8_aijai.wav,,FALSE,FALSE,,,,,,,,,,,,,,f,0.6874,space,0.9836,,,,,,,,0,140,140,126,1,,
6136001fcd0e07e6f5f66bc1,2023-06-16_10h28.58.472,phx_ver10,2022.2.5,Win32,59.60185958,,,,,,,,,,,,29,testing_3,zh2sh,ai,zh2sh_ai,zh2sh_1_aizhai.wav,zh2sh_1_aizhai.wav,,TRUE,FALSE,,,,,,,,,,,,,,f,0.3918,space,0.6716,,,,,,,,0,141,141,28,1,,
6136001fcd0e07e6f5f66bc1,2023-06-16_10h28.58.472,phx_ver10,2022.2.5,Win32,59.60185958,,,,,,,,,,,,106,testing_3,sh2x,au,sh2x_au,sh2x_8_auxau.wav,sh2x_8_auxau.wav,,TRUE,FALSE,,,,,,,,,,,,,,f,0.7847,space,1.3513,,,,,,,,0,142,142,105,1,,
6136001fcd0e07e6f5f66bc1,2023-06-16_10h28.58.472,phx_ver10,2022.2.5,Win32,59.60185958,,,,,,,,,,,,88,testing_3,j2x,e,j2x_e,j2x_8_exe.wav,j2x_1_eje.wav,,FALSE,FALSE,,,,,,,,,,,,,,f,0.7843,space,1.1836,,,,,,,,0,143,143,87,1,,
6136001fcd0e07e6f5f66bc1,2023-06-16_10h28.58.472,phx_ver10,2022.2.5,Win32,59.60185958,,,,,,,,,,,,,,,,,,,,,,,,,,,,,,,,,,,,,,,,,,,,,,,,,,,space,1.2408
