participant,date,expName,psychopyVersion,OS,frameRate,space_1.keys,space_1.rt,space_2.keys,space_2.rt,space_train.keys,space_train.rt,training.thisRepN,training.thisTrialN,training.thisN,training.thisIndex,training.ran,token_id,task,continuum,vowel,series,sound_1,sound_2,img,same,trained,FJ_attn.keys,FJ_attn.rt,space_attn.keys,space_attn.rt,if_attn_test.thisRepN,if_attn_test.thisTrialN,if_attn_test.thisN,if_attn_test.thisIndex,if_attn_test.ran,space_trans_1.keys,space_trans_1.rt,space_trans_11.keys,space_trans_11.rt,FJ_test.keys,FJ_test.rt,space_test.keys,space_test.rt,testing_pre.thisRepN,testing_pre.thisTrialN,testing_pre.thisN,testing_pre.thisIndex,testing_pre.ran,space_trans_2.keys,space_trans_2.rt,testing_all.thisRepN,testing_all.thisTrialN,testing_all.thisN,testing_all.thisIndex,testing_all.ran,space_ending.keys,space_ending.rt
613a8fbbdb47cba39c6c246d,2023-06-16_10h04.22.261,phx_ver10,2022.2.5,MacIntel,60.0024001,,,,,,,,,,,,,,,,,,,,,,,,,,,,,,,,,,,,,,,,,,,,,,,,,,,,
613a8fbbdb47cba39c6c246d,2023-06-16_10h04.22.261,phx_ver10,2022.2.5,MacIntel,60.0024001,space,9.0636,,,,,,,,,,,,,,,,,,,,,,,,,,,,,,,,,,,,,,,,,,,,,,,,,,
613a8fbbdb47cba39c6c246d,2023-06-16_10h04.22.261,phx_ver10,2022.2.5,MacIntel,60.0024001,,,space,6.364,,,,,,,,,,,,,,,,,,,,,,,,,,,,,,,,,,,,,,,,,,,,,,,,
613a8fbbdb47cba39c6c246d,2023-06-16_10h04.22.261,phx_ver10,2022.2.5,MacIntel,60.0024001,,,,,space,6.6033,0,0,0,24,1,25,training,zh2x,e,zh2x_e,zh2x_5_exe.wav,,exe.jpg,,,,,,,,,,,,,,,,,,,,,,,,,,,,,,,,,
613a8fbbdb47cba39c6c246d,2023-06-16_10h04.22.261,phx_ver10,2022.2.5,MacIntel,60.0024001,,,,,space,2.3009,0,1,1,18,1,19,training,zh2x,e,zh2x_e,zh2x_2_ezhe.wav,,ezhe.jpg,,,,,,,,,,,,,,,,,,,,,,,,,,,,,,,,,
613a8fbbdb47cba39c6c246d,2023-06-16_10h04.22.261,phx_ver10,2022.2.5,MacIntel,60.0024001,,,,,space,1.2667,0,2,2,27,1,28,training,zh2x,e,zh2x_e,zh2x_7_exe.wav,,exe.jpg,,,,,,,,,,,,,,,,,,,,,,,,,,,,,,,,,
613a8fbbdb47cba39c6c246d,2023-06-16_10h04.22.261,phx_ver10,2022.2.5,MacIntel,60.0024001,,,,,space,1.0522,0,3,3,28,1,29,training,zh2x,e,zh2x_e,zh2x_7_exe.wav,,exe.jpg,,,,,,,,,,,,,,,,,,,,,,,,,,,,,,,,,
613a8fbbdb47cba39c6c246d,2023-06-16_10h04.22.261,phx_ver10,2022.2.5,MacIntel,60.0024001,,,,,space,2.985,0,4,4,42,1,43,training,zh2x,i,zh2x_i,zh2x_6_ixi.wav,,ixi.jpg,,,,,,,,,,,,,,,,,,,,,,,,,,,,,,,,,
613a8fbbdb47cba39c6c246d,2023-06-16_10h04.22.261,phx_ver10,2022.2.5,MacIntel,60.0024001,,,,,space,0.885,0,5,5,41,1,42,training,zh2x,i,zh2x_i,zh2x_6_ixi.wav,,ixi.jpg,,,,,,,,,,,,,,,,,,,,,,,,,,,,,,,,,
613a8fbbdb47cba39c6c246d,2023-06-16_10h04.22.261,phx_ver10,2022.2.5,MacIntel,60.0024001,,,,,,,,,,,,,attn_test,,,,zh2x_8_exe.wav,zh2x_1_ezhe.wav,exe.jpg,LEFT,,f,5.0357,space,7.7116,0,0,0,0,1,,,,,,,,,,,,,,,,,,,,,,
613a8fbbdb47cba39c6c246d,2023-06-16_10h04.22.261,phx_ver10,2022.2.5,MacIntel,60.0024001,,,,,space,1.1514,0,6,6,0,1,1,training,zh2x,a,zh2x_a,zh2x_1_azha.wav,,azha.jpg,,,,,,,,,,,,,,,,,,,,,,,,,,,,,,,,,
613a8fbbdb47cba39c6c246d,2023-06-16_10h04.22.261,phx_ver10,2022.2.5,MacIntel,60.0024001,,,,,space,0.3885,0,7,7,30,1,31,training,zh2x,e,zh2x_e,zh2x_7_exe.wav,,exe.jpg,,,,,,,,,,,,,,,,,,,,,,,,,,,,,,,,,
613a8fbbdb47cba39c6c246d,2023-06-16_10h04.22.261,phx_ver10,2022.2.5,MacIntel,60.0024001,,,,,space,0.4002,0,8,8,29,1,30,training,zh2x,e,zh2x_e,zh2x_7_exe.wav,,exe.jpg,,,,,,,,,,,,,,,,,,,,,,,,,,,,,,,,,
613a8fbbdb47cba39c6c246d,2023-06-16_10h04.22.261,phx_ver10,2022.2.5,MacIntel,60.0024001,,,,,space,0.6184,0,9,9,38,1,39,training,zh2x,i,zh2x_i,zh2x_3_izhi.wav,,izhi.jpg,,,,,,,,,,,,,,,,,,,,,,,,,,,,,,,,,
613a8fbbdb47cba39c6c246d,2023-06-16_10h04.22.261,phx_ver10,2022.2.5,MacIntel,60.0024001,,,,,space,1.118,0,10,10,44,1,45,training,zh2x,i,zh2x_i,zh2x_7_ixi.wav,,ixi.jpg,,,,,,,,,,,,,,,,,,,,,,,,,,,,,,,,,
613a8fbbdb47cba39c6c246d,2023-06-16_10h04.22.261,phx_ver10,2022.2.5,MacIntel,60.0024001,,,,,space,0.5996,0,11,11,36,1,37,training,zh2x,i,zh2x_i,zh2x_2_izhi.wav,,izhi.jpg,,,,,,,,,,,,,,,,,,,,,,,,,,,,,,,,,
613a8fbbdb47cba39c6c246d,2023-06-16_10h04.22.261,phx_ver10,2022.2.5,MacIntel,60.0024001,,,,,,,,,,,,,attn_test,,,,zh2x_1_izhi.wav,zh2x_8_ixi.wav,izhi.jpg,LEFT,,f,1.1516,space,2.1178,0,0,0,0,1,,,,,,,,,,,,,,,,,,,,,,
613a8fbbdb47cba39c6c246d,2023-06-16_10h04.22.261,phx_ver10,2022.2.5,MacIntel,60.0024001,,,,,space,2.8144,0,12,12,16,1,17,training,zh2x,e,zh2x_e,zh2x_1_ezhe.wav,,ezhe.jpg,,,,,,,,,,,,,,,,,,,,,,,,,,,,,,,,,
613a8fbbdb47cba39c6c246d,2023-06-16_10h04.22.261,phx_ver10,2022.2.5,MacIntel,60.0024001,,,,,space,0.6339,0,13,13,5,1,6,training,zh2x,a,zh2x_a,zh2x_3_azha.wav,,azha.jpg,,,,,,,,,,,,,,,,,,,,,,,,,,,,,,,,,
613a8fbbdb47cba39c6c246d,2023-06-16_10h04.22.261,phx_ver10,2022.2.5,MacIntel,60.0024001,,,,,space,0.7873,0,14,14,34,1,35,training,zh2x,i,zh2x_i,zh2x_2_izhi.wav,,izhi.jpg,,,,,,,,,,,,,,,,,,,,,,,,,,,,,,,,,
613a8fbbdb47cba39c6c246d,2023-06-16_10h04.22.261,phx_ver10,2022.2.5,MacIntel,60.0024001,,,,,space,0.5592,0,15,15,8,1,9,training,zh2x,a,zh2x_a,zh2x_5_axa.wav,,axa.jpg,,,,,,,,,,,,,,,,,,,,,,,,,,,,,,,,,
613a8fbbdb47cba39c6c246d,2023-06-16_10h04.22.261,phx_ver10,2022.2.5,MacIntel,60.0024001,,,,,space,0.3492,0,16,16,37,1,38,training,zh2x,i,zh2x_i,zh2x_3_izhi.wav,,izhi.jpg,,,,,,,,,,,,,,,,,,,,,,,,,,,,,,,,,
613a8fbbdb47cba39c6c246d,2023-06-16_10h04.22.261,phx_ver10,2022.2.5,MacIntel,60.0024001,,,,,space,0.4323,0,17,17,20,1,21,training,zh2x,e,zh2x_e,zh2x_2_ezhe.wav,,ezhe.jpg,,,,,,,,,,,,,,,,,,,,,,,,,,,,,,,,,
613a8fbbdb47cba39c6c246d,2023-06-16_10h04.22.261,phx_ver10,2022.2.5,MacIntel,60.0024001,,,,,,,,,,,,,attn_test,,,,zh2x_1_azha.wav,zh2x_1_ezhe.wav,azha.jpg,LEFT,,j,2.5653,space,3.301,0,0,0,0,1,,,,,,,,,,,,,,,,,,,,,,
613a8fbbdb47cba39c6c246d,2023-06-16_10h04.22.261,phx_ver10,2022.2.5,MacIntel,60.0024001,,,,,space,2.4993,0,18,18,3,1,4,training,zh2x,a,zh2x_a,zh2x_2_azha.wav,,azha.jpg,,,,,,,,,,,,,,,,,,,,,,,,,,,,,,,,,
613a8fbbdb47cba39c6c246d,2023-06-16_10h04.22.261,phx_ver10,2022.2.5,MacIntel,60.0024001,,,,,space,0.7053,0,19,19,25,1,26,training,zh2x,e,zh2x_e,zh2x_6_exe.wav,,exe.jpg,,,,,,,,,,,,,,,,,,,,,,,,,,,,,,,,,
613a8fbbdb47cba39c6c246d,2023-06-16_10h04.22.261,phx_ver10,2022.2.5,MacIntel,60.0024001,,,,,space,0.8166,0,20,20,33,1,34,training,zh2x,i,zh2x_i,zh2x_2_izhi.wav,,izhi.jpg,,,,,,,,,,,,,,,,,,,,,,,,,,,,,,,,,
613a8fbbdb47cba39c6c246d,2023-06-16_10h04.22.261,phx_ver10,2022.2.5,MacIntel,60.0024001,,,,,space,0.4851,0,21,21,35,1,36,training,zh2x,i,zh2x_i,zh2x_2_izhi.wav,,izhi.jpg,,,,,,,,,,,,,,,,,,,,,,,,,,,,,,,,,
613a8fbbdb47cba39c6c246d,2023-06-16_10h04.22.261,phx_ver10,2022.2.5,MacIntel,60.0024001,,,,,space,0.5067,0,22,22,19,1,20,training,zh2x,e,zh2x_e,zh2x_2_ezhe.wav,,ezhe.jpg,,,,,,,,,,,,,,,,,,,,,,,,,,,,,,,,,
613a8fbbdb47cba39c6c246d,2023-06-16_10h04.22.261,phx_ver10,2022.2.5,MacIntel,60.0024001,,,,,space,0.2001,0,23,23,26,1,27,training,zh2x,e,zh2x_e,zh2x_6_exe.wav,,exe.jpg,,,,,,,,,,,,,,,,,,,,,,,,,,,,,,,,,
613a8fbbdb47cba39c6c246d,2023-06-16_10h04.22.261,phx_ver10,2022.2.5,MacIntel,60.0024001,,,,,,,,,,,,,attn_test,,,,zh2x_8_exe.wav,zh2x_8_ixi.wav,exe.jpg,LEFT,,f,0.3534,space,0.6843,0,0,0,0,1,,,,,,,,,,,,,,,,,,,,,,
613a8fbbdb47cba39c6c246d,2023-06-16_10h04.22.261,phx_ver10,2022.2.5,MacIntel,60.0024001,,,,,space,1.2657,0,24,24,4,1,5,training,zh2x,a,zh2x_a,zh2x_2_azha.wav,,azha.jpg,,,,,,,,,,,,,,,,,,,,,,,,,,,,,,,,,
613a8fbbdb47cba39c6c246d,2023-06-16_10h04.22.261,phx_ver10,2022.2.5,MacIntel,60.0024001,,,,,space,0.0155,0,25,25,43,1,44,training,zh2x,i,zh2x_i,zh2x_7_ixi.wav,,ixi.jpg,,,,,,,,,,,,,,,,,,,,,,,,,,,,,,,,,
613a8fbbdb47cba39c6c246d,2023-06-16_10h04.22.261,phx_ver10,2022.2.5,MacIntel,60.0024001,,,,,space,0.8985,0,26,26,12,1,13,training,zh2x,a,zh2x_a,zh2x_7_axa.wav,,axa.jpg,,,,,,,,,,,,,,,,,,,,,,,,,,,,,,,,,
613a8fbbdb47cba39c6c246d,2023-06-16_10h04.22.261,phx_ver10,2022.2.5,MacIntel,60.0024001,,,,,space,0.1607,0,27,27,14,1,15,training,zh2x,a,zh2x_a,zh2x_7_axa.wav,,axa.jpg,,,,,,,,,,,,,,,,,,,,,,,,,,,,,,,,,
613a8fbbdb47cba39c6c246d,2023-06-16_10h04.22.261,phx_ver10,2022.2.5,MacIntel,60.0024001,,,,,space,0.7215,0,28,28,23,1,24,training,zh2x,e,zh2x_e,zh2x_4_ezhe.wav,,ezhe.jpg,,,,,,,,,,,,,,,,,,,,,,,,,,,,,,,,,
613a8fbbdb47cba39c6c246d,2023-06-16_10h04.22.261,phx_ver10,2022.2.5,MacIntel,60.0024001,,,,,space,0.1671,0,29,29,7,1,8,training,zh2x,a,zh2x_a,zh2x_4_azha.wav,,azha.jpg,,,,,,,,,,,,,,,,,,,,,,,,,,,,,,,,,
613a8fbbdb47cba39c6c246d,2023-06-16_10h04.22.261,phx_ver10,2022.2.5,MacIntel,60.0024001,,,,,,,,,,,,,attn_test,,,,zh2x_1_azha.wav,zh2x_8_axa.wav,azha.jpg,LEFT,,j,3.4997,space,3.9497,0,0,0,0,1,,,,,,,,,,,,,,,,,,,,,,
613a8fbbdb47cba39c6c246d,2023-06-16_10h04.22.261,phx_ver10,2022.2.5,MacIntel,60.0024001,,,,,space,0.8328,0,30,30,32,1,33,training,zh2x,i,zh2x_i,zh2x_1_izhi.wav,,izhi.jpg,,,,,,,,,,,,,,,,,,,,,,,,,,,,,,,,,
613a8fbbdb47cba39c6c246d,2023-06-16_10h04.22.261,phx_ver10,2022.2.5,MacIntel,60.0024001,,,,,space,0.4681,0,31,31,45,1,46,training,zh2x,i,zh2x_i,zh2x_7_ixi.wav,,ixi.jpg,,,,,,,,,,,,,,,,,,,,,,,,,,,,,,,,,
613a8fbbdb47cba39c6c246d,2023-06-16_10h04.22.261,phx_ver10,2022.2.5,MacIntel,60.0024001,,,,,space,3.636,0,32,32,22,1,23,training,zh2x,e,zh2x_e,zh2x_3_ezhe.wav,,ezhe.jpg,,,,,,,,,,,,,,,,,,,,,,,,,,,,,,,,,
613a8fbbdb47cba39c6c246d,2023-06-16_10h04.22.261,phx_ver10,2022.2.5,MacIntel,60.0024001,,,,,space,0.1551,0,33,33,11,1,12,training,zh2x,a,zh2x_a,zh2x_7_axa.wav,,axa.jpg,,,,,,,,,,,,,,,,,,,,,,,,,,,,,,,,,
613a8fbbdb47cba39c6c246d,2023-06-16_10h04.22.261,phx_ver10,2022.2.5,MacIntel,60.0024001,,,,,space,0.168,0,34,34,1,1,2,training,zh2x,a,zh2x_a,zh2x_2_azha.wav,,azha.jpg,,,,,,,,,,,,,,,,,,,,,,,,,,,,,,,,,
613a8fbbdb47cba39c6c246d,2023-06-16_10h04.22.261,phx_ver10,2022.2.5,MacIntel,60.0024001,,,,,space,0.5695,0,35,35,39,1,40,training,zh2x,i,zh2x_i,zh2x_4_izhi.wav,,izhi.jpg,,,,,,,,,,,,,,,,,,,,,,,,,,,,,,,,,
613a8fbbdb47cba39c6c246d,2023-06-16_10h04.22.261,phx_ver10,2022.2.5,MacIntel,60.0024001,,,,,,,,,,,,,attn_test,,,,zh2x_8_exe.wav,zh2x_1_azha.wav,azha.jpg,RIGHT,,j,0.2313,space,0.6319,0,0,0,0,1,,,,,,,,,,,,,,,,,,,,,,
613a8fbbdb47cba39c6c246d,2023-06-16_10h04.22.261,phx_ver10,2022.2.5,MacIntel,60.0024001,,,,,space,0.8834,0,36,36,40,1,41,training,zh2x,i,zh2x_i,zh2x_5_ixi.wav,,ixi.jpg,,,,,,,,,,,,,,,,,,,,,,,,,,,,,,,,,
613a8fbbdb47cba39c6c246d,2023-06-16_10h04.22.261,phx_ver10,2022.2.5,MacIntel,60.0024001,,,,,space,0.6553,0,37,37,21,1,22,training,zh2x,e,zh2x_e,zh2x_3_ezhe.wav,,ezhe.jpg,,,,,,,,,,,,,,,,,,,,,,,,,,,,,,,,,
613a8fbbdb47cba39c6c246d,2023-06-16_10h04.22.261,phx_ver10,2022.2.5,MacIntel,60.0024001,,,,,space,0.4657,0,38,38,15,1,16,training,zh2x,a,zh2x_a,zh2x_8_axa.wav,,axa.jpg,,,,,,,,,,,,,,,,,,,,,,,,,,,,,,,,,
613a8fbbdb47cba39c6c246d,2023-06-16_10h04.22.261,phx_ver10,2022.2.5,MacIntel,60.0024001,,,,,space,0.7004,0,39,39,9,1,10,training,zh2x,a,zh2x_a,zh2x_6_axa.wav,,axa.jpg,,,,,,,,,,,,,,,,,,,,,,,,,,,,,,,,,
613a8fbbdb47cba39c6c246d,2023-06-16_10h04.22.261,phx_ver10,2022.2.5,MacIntel,60.0024001,,,,,space,0.6319,0,40,40,31,1,32,training,zh2x,e,zh2x_e,zh2x_8_exe.wav,,exe.jpg,,,,,,,,,,,,,,,,,,,,,,,,,,,,,,,,,
613a8fbbdb47cba39c6c246d,2023-06-16_10h04.22.261,phx_ver10,2022.2.5,MacIntel,60.0024001,,,,,space,1.0497,0,41,41,13,1,14,training,zh2x,a,zh2x_a,zh2x_7_axa.wav,,axa.jpg,,,,,,,,,,,,,,,,,,,,,,,,,,,,,,,,,
613a8fbbdb47cba39c6c246d,2023-06-16_10h04.22.261,phx_ver10,2022.2.5,MacIntel,60.0024001,,,,,,,,,,,,,attn_test,,,,zh2x_1_izhi.wav,zh2x_1_ezhe.wav,ezhe.jpg,RIGHT,,j,0.2851,space,1.2348,0,0,0,0,1,,,,,,,,,,,,,,,,,,,,,,
613a8fbbdb47cba39c6c246d,2023-06-16_10h04.22.261,phx_ver10,2022.2.5,MacIntel,60.0024001,,,,,space,6.0189,0,42,42,47,1,48,training,zh2x,i,zh2x_i,zh2x_8_ixi.wav,,ixi.jpg,,,,,,,,,,,,,,,,,,,,,,,,,,,,,,,,,
613a8fbbdb47cba39c6c246d,2023-06-16_10h04.22.261,phx_ver10,2022.2.5,MacIntel,60.0024001,,,,,space,1.4361,0,43,43,6,1,7,training,zh2x,a,zh2x_a,zh2x_3_azha.wav,,azha.jpg,,,,,,,,,,,,,,,,,,,,,,,,,,,,,,,,,
613a8fbbdb47cba39c6c246d,2023-06-16_10h04.22.261,phx_ver10,2022.2.5,MacIntel,60.0024001,,,,,space,0.4997,0,44,44,10,1,11,training,zh2x,a,zh2x_a,zh2x_6_axa.wav,,axa.jpg,,,,,,,,,,,,,,,,,,,,,,,,,,,,,,,,,
613a8fbbdb47cba39c6c246d,2023-06-16_10h04.22.261,phx_ver10,2022.2.5,MacIntel,60.0024001,,,,,space,0.2335,0,45,45,17,1,18,training,zh2x,e,zh2x_e,zh2x_2_ezhe.wav,,ezhe.jpg,,,,,,,,,,,,,,,,,,,,,,,,,,,,,,,,,
613a8fbbdb47cba39c6c246d,2023-06-16_10h04.22.261,phx_ver10,2022.2.5,MacIntel,60.0024001,,,,,space,0.8533,0,46,46,46,1,47,training,zh2x,i,zh2x_i,zh2x_7_ixi.wav,,ixi.jpg,,,,,,,,,,,,,,,,,,,,,,,,,,,,,,,,,
613a8fbbdb47cba39c6c246d,2023-06-16_10h04.22.261,phx_ver10,2022.2.5,MacIntel,60.0024001,,,,,space,0.5151,0,47,47,2,1,3,training,zh2x,a,zh2x_a,zh2x_2_azha.wav,,azha.jpg,,,,,,,,,,,,,,,,,,,,,,,,,,,,,,,,,
613a8fbbdb47cba39c6c246d,2023-06-16_10h04.22.261,phx_ver10,2022.2.5,MacIntel,60.0024001,,,,,,,,,,,,,attn_test,,,,zh2x_1_azha.wav,zh2x_1_izhi.wav,azha.jpg,LEFT,,f,0.3347,space,0.6838,,,,,,,,,,,,,,,,,,,,,,,,,,,
613a8fbbdb47cba39c6c246d,2023-06-16_10h04.22.261,phx_ver10,2022.2.5,MacIntel,60.0024001,,,,,,,,,,,,,,,,,,,,,,,,,,,,,,,space,1.9153,,,,,,,,,,,,,,,,,,,,
613a8fbbdb47cba39c6c246d,2023-06-16_10h04.22.261,phx_ver10,2022.2.5,MacIntel,60.0024001,,,,,,,,,,,,,,,,,,,,,,,,,,,,,,,,,space,47.2848,,,,,,,,,,,,,,,,,,
613a8fbbdb47cba39c6c246d,2023-06-16_10h04.22.261,phx_ver10,2022.2.5,MacIntel,60.0024001,,,,,,,,,,,,5,testing_pre,,,,ihi.wav,ifi.wav,,FALSE,,,,,,,,,,,,,,,j,3.7177,space,4.2178,0,0,0,4,1,,,,,,,,,
613a8fbbdb47cba39c6c246d,2023-06-16_10h04.22.261,phx_ver10,2022.2.5,MacIntel,60.0024001,,,,,,,,,,,,3,testing_pre,,,,afa.wav,aha.wav,,FALSE,,,,,,,,,,,,,,,j,0.3326,space,0.6994,0,1,1,2,1,,,,,,,,,
613a8fbbdb47cba39c6c246d,2023-06-16_10h04.22.261,phx_ver10,2022.2.5,MacIntel,60.0024001,,,,,,,,,,,,4,testing_pre,,,,eihei.wav,eihei.wav,,TRUE,,,,,,,,,,,,,,,j,0.4163,space,0.841,0,2,2,3,1,,,,,,,,,
613a8fbbdb47cba39c6c246d,2023-06-16_10h04.22.261,phx_ver10,2022.2.5,MacIntel,60.0024001,,,,,,,,,,,,2,testing_pre,,,,auhau.wav,aufau.wav,,FALSE,,,,,,,,,,,,,,,j,0.1334,space,0.5502,0,3,3,1,1,,,,,,,,,
613a8fbbdb47cba39c6c246d,2023-06-16_10h04.22.261,phx_ver10,2022.2.5,MacIntel,60.0024001,,,,,,,,,,,,1,testing_pre,,,,ifi.wav,ifi.wav,,TRUE,,,,,,,,,,,,,,,f,0.5683,space,0.8664,0,4,4,0,1,,,,,,,,,
613a8fbbdb47cba39c6c246d,2023-06-16_10h04.22.261,phx_ver10,2022.2.5,MacIntel,60.0024001,,,,,,,,,,,,,,,,,,,,,,,,,,,,,,,,,,,,,,,,,,,,space,0.7044,,,,,,,
613a8fbbdb47cba39c6c246d,2023-06-16_10h04.22.261,phx_ver10,2022.2.5,MacIntel,60.0024001,,,,,,,,,,,,27,testing_3,zh2sh,a,zh2sh_a,zh2sh_1_azha.wav,zh2sh_8_asha.wav,,FALSE,FALSE,,,,,,,,,,,,,,f,0.9654,space,1.3999,,,,,,,,0,0,0,26,1,,
613a8fbbdb47cba39c6c246d,2023-06-16_10h04.22.261,phx_ver10,2022.2.5,MacIntel,60.0024001,,,,,,,,,,,,75,testing_3,j2x,a,j2x_a,j2x_1_aja.wav,j2x_8_axa.wav,,FALSE,FALSE,,,,,,,,,,,,,,f,0.949,space,1.9167,,,,,,,,0,1,1,74,1,,
613a8fbbdb47cba39c6c246d,2023-06-16_10h04.22.261,phx_ver10,2022.2.5,MacIntel,60.0024001,,,,,,,,,,,,132,testing_3,sh2j,au,sh2j_au,sh2j_8_aujau.wav,sh2j_1_aushau.wav,,FALSE,FALSE,,,,,,,,,,,,,,j,1.217,space,1.6488,,,,,,,,0,2,2,131,1,,
613a8fbbdb47cba39c6c246d,2023-06-16_10h04.22.261,phx_ver10,2022.2.5,MacIntel,60.0024001,,,,,,,,,,,,64,testing_3,zh2j,e,zh2j_e,zh2j_8_eje.wav,zh2j_1_ezhe.wav,,FALSE,FALSE,,,,,,,,,,,,,,f,0.1165,space,2.5059,,,,,,,,0,3,3,63,1,,
613a8fbbdb47cba39c6c246d,2023-06-16_10h04.22.261,phx_ver10,2022.2.5,MacIntel,60.0024001,,,,,,,,,,,,140,testing_3,sh2j,ei,sh2j_ei,sh2j_8_eijei.wav,sh2j_1_eishei.wav,,FALSE,FALSE,,,,,,,,,,,,,,f,0.7058,space,2.6998,,,,,,,,0,4,4,139,1,,
613a8fbbdb47cba39c6c246d,2023-06-16_10h04.22.261,phx_ver10,2022.2.5,MacIntel,60.0024001,,,,,,,,,,,,26,testing_3,zh2sh,a,zh2sh_a,zh2sh_8_asha.wav,zh2sh_8_asha.wav,,TRUE,FALSE,,,,,,,,,,,,,,f,0.2179,space,7.7335,,,,,,,,0,5,5,25,1,,
613a8fbbdb47cba39c6c246d,2023-06-16_10h04.22.261,phx_ver10,2022.2.5,MacIntel,60.0024001,,,,,,,,,,,,116,testing_3,sh2x,ei,sh2x_ei,sh2x_8_eixei.wav,sh2x_1_eishei.wav,,FALSE,FALSE,,,,,,,,,,,,,,j,0.6506,space,0.9973,,,,,,,,0,6,6,115,1,,
613a8fbbdb47cba39c6c246d,2023-06-16_10h04.22.261,phx_ver10,2022.2.5,MacIntel,60.0024001,,,,,,,,,,,,63,testing_3,zh2j,e,zh2j_e,zh2j_1_ezhe.wav,zh2j_8_eje.wav,,FALSE,FALSE,,,,,,,,,,,,,,f,0.1829,space,0.9167,,,,,,,,0,7,7,62,1,,
613a8fbbdb47cba39c6c246d,2023-06-16_10h04.22.261,phx_ver10,2022.2.5,MacIntel,60.0024001,,,,,,,,,,,,100,testing_3,sh2x,a,sh2x_a,sh2x_8_axa.wav,sh2x_1_asha.wav,,FALSE,FALSE,,,,,,,,,,,,,,j,0.309,space,0.593,,,,,,,,0,8,8,99,1,,
613a8fbbdb47cba39c6c246d,2023-06-16_10h04.22.261,phx_ver10,2022.2.5,MacIntel,60.0024001,,,,,,,,,,,,143,testing_3,sh2j,i,sh2j_i,sh2j_1_ishi.wav,sh2j_8_iji.wav,,FALSE,FALSE,,,,,,,,,,,,,,j,0.0005,space,0.287,,,,,,,,0,9,9,142,1,,
613a8fbbdb47cba39c6c246d,2023-06-16_10h04.22.261,phx_ver10,2022.2.5,MacIntel,60.0024001,,,,,,,,,,,,10,testing_1,zh2x,i,zh2x_i,zh2x_8_ixi.wav,zh2x_8_ixi_copy.wav,,TRUE,TRUE,,,,,,,,,,,,,,j,0.5714,space,0.8185,,,,,,,,0,10,10,9,1,,
613a8fbbdb47cba39c6c246d,2023-06-16_10h04.22.261,phx_ver10,2022.2.5,MacIntel,60.0024001,,,,,,,,,,,,71,testing_3,zh2j,i,zh2j_i,zh2j_1_izhi.wav,zh2j_8_iji.wav,,FALSE,FALSE,,,,,,,,,,,,,,j,0.1174,space,0.4893,,,,,,,,0,11,11,70,1,,
613a8fbbdb47cba39c6c246d,2023-06-16_10h04.22.261,phx_ver10,2022.2.5,MacIntel,60.0024001,,,,,,,,,,,,67,testing_3,zh2j,ei,zh2j_ei,zh2j_1_eizhei.wav,zh2j_8_eijei.wav,,FALSE,FALSE,,,,,,,,,,,,,,j,0.3838,space,0.6996,,,,,,,,0,12,12,66,1,,
613a8fbbdb47cba39c6c246d,2023-06-16_10h04.22.261,phx_ver10,2022.2.5,MacIntel,60.0024001,,,,,,,,,,,,51,testing_3,zh2j,a,zh2j_a,zh2j_1_azha.wav,zh2j_8_aja.wav,,FALSE,FALSE,,,,,,,,,,,,,,f,0.0519,space,0.3978,,,,,,,,0,13,13,50,1,,
613a8fbbdb47cba39c6c246d,2023-06-16_10h04.22.261,phx_ver10,2022.2.5,MacIntel,60.0024001,,,,,,,,,,,,84,testing_3,j2x,au,j2x_au,j2x_8_auxau.wav,j2x_1_aujau.wav,,FALSE,FALSE,,,,,,,,,,,,,,j,0.3153,space,0.5813,,,,,,,,0,14,14,83,1,,
613a8fbbdb47cba39c6c246d,2023-06-16_10h04.22.261,phx_ver10,2022.2.5,MacIntel,60.0024001,,,,,,,,,,,,17,testing_2,zh2x,au,zh2x_au,zh2x_1_auzhau.wav,zh2x_1_auzhau.wav,,TRUE,FALSE,,,,,,,,,,,,,,j,0.1648,space,0.5035,,,,,,,,0,15,15,16,1,,
613a8fbbdb47cba39c6c246d,2023-06-16_10h04.22.261,phx_ver10,2022.2.5,MacIntel,60.0024001,,,,,,,,,,,,23,testing_2,zh2x,ei,zh2x_ei,zh2x_1_eizhei.wav,zh2x_8_eixei.wav,,FALSE,FALSE,,,,,,,,,,,,,,j,0.0851,space,0.4513,,,,,,,,0,16,16,22,1,,
613a8fbbdb47cba39c6c246d,2023-06-16_10h04.22.261,phx_ver10,2022.2.5,MacIntel,60.0024001,,,,,,,,,,,,72,testing_3,zh2j,i,zh2j_i,zh2j_8_iji.wav,zh2j_1_izhi.wav,,FALSE,FALSE,,,,,,,,,,,,,,f,0.2059,space,0.7207,,,,,,,,0,17,17,71,1,,
613a8fbbdb47cba39c6c246d,2023-06-16_10h04.22.261,phx_ver10,2022.2.5,MacIntel,60.0024001,,,,,,,,,,,,18,testing_2,zh2x,au,zh2x_au,zh2x_8_auxau.wav,zh2x_8_auxau.wav,,TRUE,FALSE,,,,,,,,,,,,,,f,0.02,space,0.3989,,,,,,,,0,18,18,17,1,,
613a8fbbdb47cba39c6c246d,2023-06-16_10h04.22.261,phx_ver10,2022.2.5,MacIntel,60.0024001,,,,,,,,,,,,2,testing_1,zh2x,a,zh2x_a,zh2x_8_axa.wav,zh2x_8_axa_copy.wav,,TRUE,TRUE,,,,,,,,,,,,,,f,0.1217,space,0.4533,,,,,,,,0,19,19,1,1,,
613a8fbbdb47cba39c6c246d,2023-06-16_10h04.22.261,phx_ver10,2022.2.5,MacIntel,60.0024001,,,,,,,,,,,,38,testing_3,zh2sh,e,zh2sh_e,zh2sh_8_eshe.wav,zh2sh_8_eshe.wav,,TRUE,FALSE,,,,,,,,,,,,,,f,3.9681,space,4.715,,,,,,,,0,20,20,37,1,,
613a8fbbdb47cba39c6c246d,2023-06-16_10h04.22.261,phx_ver10,2022.2.5,MacIntel,60.0024001,,,,,,,,,,,,141,testing_3,sh2j,i,sh2j_i,sh2j_1_ishi.wav,sh2j_1_ishi.wav,,TRUE,FALSE,,,,,,,,,,,,,,j,0.2847,space,0.7357,,,,,,,,0,21,21,140,1,,
613a8fbbdb47cba39c6c246d,2023-06-16_10h04.22.261,phx_ver10,2022.2.5,MacIntel,60.0024001,,,,,,,,,,,,3,testing_1,zh2x,a,zh2x_a,zh2x_1_azha.wav,zh2x_8_axa.wav,,FALSE,TRUE,,,,,,,,,,,,,,f,0.3556,space,0.7179,,,,,,,,0,22,22,2,1,,
613a8fbbdb47cba39c6c246d,2023-06-16_10h04.22.261,phx_ver10,2022.2.5,MacIntel,60.0024001,,,,,,,,,,,,105,testing_3,sh2x,au,sh2x_au,sh2x_1_aushau.wav,sh2x_1_aushau.wav,,TRUE,FALSE,,,,,,,,,,,,,,j,0.0686,space,0.82,,,,,,,,0,23,23,104,1,,
613a8fbbdb47cba39c6c246d,2023-06-16_10h04.22.261,phx_ver10,2022.2.5,MacIntel,60.0024001,,,,,,,,,,,,28,testing_3,zh2sh,a,zh2sh_a,zh2sh_8_asha.wav,zh2sh_1_azha.wav,,FALSE,FALSE,,,,,,,,,,,,,,j,0.3836,space,0.7364,,,,,,,,0,24,24,27,1,,
613a8fbbdb47cba39c6c246d,2023-06-16_10h04.22.261,phx_ver10,2022.2.5,MacIntel,60.0024001,,,,,,,,,,,,16,testing_2,zh2x,ai,zh2x_ai,zh2x_8_aixai.wav,zh2x_1_aizhai.wav,,FALSE,FALSE,,,,,,,,,,,,,,j,0.3744,space,0.7586,,,,,,,,0,25,25,15,1,,
613a8fbbdb47cba39c6c246d,2023-06-16_10h04.22.261,phx_ver10,2022.2.5,MacIntel,60.0024001,,,,,,,,,,,,134,testing_3,sh2j,e,sh2j_e,sh2j_8_eje.wav,sh2j_8_eje.wav,,TRUE,FALSE,,,,,,,,,,,,,,f,0.1021,space,0.517,,,,,,,,0,26,26,133,1,,
613a8fbbdb47cba39c6c246d,2023-06-16_10h04.22.261,phx_ver10,2022.2.5,MacIntel,60.0024001,,,,,,,,,,,,136,testing_3,sh2j,e,sh2j_e,sh2j_8_eje.wav,sh2j_1_eshe.wav,,FALSE,FALSE,,,,,,,,,,,,,,f,0.918,space,1.2168,,,,,,,,0,27,27,135,1,,
613a8fbbdb47cba39c6c246d,2023-06-16_10h04.22.261,phx_ver10,2022.2.5,MacIntel,60.0024001,,,,,,,,,,,,65,testing_3,zh2j,ei,zh2j_ei,zh2j_1_eizhei.wav,zh2j_1_eizhei.wav,,TRUE,FALSE,,,,,,,,,,,,,,j,0.0915,space,0.5862,,,,,,,,0,28,28,64,1,,
613a8fbbdb47cba39c6c246d,2023-06-16_10h04.22.261,phx_ver10,2022.2.5,MacIntel,60.0024001,,,,,,,,,,,,53,testing_3,zh2j,ai,zh2j_ai,zh2j_1_aizhai.wav,zh2j_1_aizhai.wav,,TRUE,FALSE,,,,,,,,,,,,,,j,0.1838,space,0.5181,,,,,,,,0,29,29,52,1,,
613a8fbbdb47cba39c6c246d,2023-06-16_10h04.22.261,phx_ver10,2022.2.5,MacIntel,60.0024001,,,,,,,,,,,,59,testing_3,zh2j,au,zh2j_au,zh2j_1_auzhau.wav,zh2j_8_aujau.wav,,FALSE,FALSE,,,,,,,,,,,,,,j,0.3499,space,0.6505,,,,,,,,0,30,30,58,1,,
613a8fbbdb47cba39c6c246d,2023-06-16_10h04.22.261,phx_ver10,2022.2.5,MacIntel,60.0024001,,,,,,,,,,,,144,testing_3,sh2j,i,sh2j_i,sh2j_8_iji.wav,sh2j_1_ishi.wav,,FALSE,FALSE,,,,,,,,,,,,,,j,0.1326,space,0.4534,,,,,,,,0,31,31,143,1,,
613a8fbbdb47cba39c6c246d,2023-06-16_10h04.22.261,phx_ver10,2022.2.5,MacIntel,60.0024001,,,,,,,,,,,,66,testing_3,zh2j,ei,zh2j_ei,zh2j_8_eijei.wav,zh2j_8_eijei.wav,,TRUE,FALSE,,,,,,,,,,,,,,j,0.2235,space,0.5847,,,,,,,,0,32,32,65,1,,
613a8fbbdb47cba39c6c246d,2023-06-16_10h04.22.261,phx_ver10,2022.2.5,MacIntel,60.0024001,,,,,,,,,,,,30,testing_3,zh2sh,ai,zh2sh_ai,zh2sh_8_aishai.wav,zh2sh_8_aishai.wav,,TRUE,FALSE,,,,,,,,,,,,,,f,0.3018,space,0.5691,,,,,,,,0,33,33,29,1,,
613a8fbbdb47cba39c6c246d,2023-06-16_10h04.22.261,phx_ver10,2022.2.5,MacIntel,60.0024001,,,,,,,,,,,,99,testing_3,sh2x,a,sh2x_a,sh2x_1_asha.wav,sh2x_8_axa.wav,,FALSE,FALSE,,,,,,,,,,,,,,f,0.0008,space,0.5154,,,,,,,,0,34,34,98,1,,
613a8fbbdb47cba39c6c246d,2023-06-16_10h04.22.261,phx_ver10,2022.2.5,MacIntel,60.0024001,,,,,,,,,,,,19,testing_2,zh2x,au,zh2x_au,zh2x_1_auzhau.wav,zh2x_8_auxau.wav,,FALSE,FALSE,,,,,,,,,,,,,,j,0.168,space,0.5004,,,,,,,,0,35,35,18,1,,
613a8fbbdb47cba39c6c246d,2023-06-16_10h04.22.261,phx_ver10,2022.2.5,MacIntel,60.0024001,,,,,,,,,,,,62,testing_3,zh2j,e,zh2j_e,zh2j_8_eje.wav,zh2j_8_eje.wav,,TRUE,FALSE,,,,,,,,,,,,,,f,0.4008,space,0.8167,,,,,,,,0,36,36,61,1,,
613a8fbbdb47cba39c6c246d,2023-06-16_10h04.22.261,phx_ver10,2022.2.5,MacIntel,60.0024001,,,,,,,,,,,,93,testing_3,j2x,i,j2x_i,j2x_1_iji.wav,j2x_1_iji.wav,,TRUE,FALSE,,,,,,,,,,,,,,j,0.1492,space,0.4804,,,,,,,,0,37,37,92,1,,
613a8fbbdb47cba39c6c246d,2023-06-16_10h04.22.261,phx_ver10,2022.2.5,MacIntel,60.0024001,,,,,,,,,,,,126,testing_3,sh2j,ai,sh2j_ai,sh2j_8_aijai.wav,sh2j_8_aijai.wav,,TRUE,FALSE,,,,,,,,,,,,,,f,0.3021,space,0.6191,,,,,,,,0,38,38,125,1,,
613a8fbbdb47cba39c6c246d,2023-06-16_10h04.22.261,phx_ver10,2022.2.5,MacIntel,60.0024001,,,,,,,,,,,,90,testing_3,j2x,ei,j2x_ei,j2x_8_eixei.wav,j2x_8_eixei.wav,,TRUE,FALSE,,,,,,,,,,,,,,j,0.2506,space,0.517,,,,,,,,0,39,39,89,1,,
613a8fbbdb47cba39c6c246d,2023-06-16_10h04.22.261,phx_ver10,2022.2.5,MacIntel,60.0024001,,,,,,,,,,,,104,testing_3,sh2x,ai,sh2x_ai,sh2x_8_aixai.wav,sh2x_1_aishai.wav,,FALSE,FALSE,,,,,,,,,,,,,,f,0.2561,space,0.5032,,,,,,,,0,40,40,103,1,,
613a8fbbdb47cba39c6c246d,2023-06-16_10h04.22.261,phx_ver10,2022.2.5,MacIntel,60.0024001,,,,,,,,,,,,103,testing_3,sh2x,ai,sh2x_ai,sh2x_1_aishai.wav,sh2x_8_aixai.wav,,FALSE,FALSE,,,,,,,,,,,,,,f,0.0144,space,0.4337,,,,,,,,0,41,41,102,1,,
613a8fbbdb47cba39c6c246d,2023-06-16_10h04.22.261,phx_ver10,2022.2.5,MacIntel,60.0024001,,,,,,,,,,,,114,testing_3,sh2x,ei,sh2x_ei,sh2x_8_eixei.wav,sh2x_8_eixei.wav,,TRUE,FALSE,,,,,,,,,,,,,,j,0.108,space,0.4175,,,,,,,,0,42,42,113,1,,
613a8fbbdb47cba39c6c246d,2023-06-16_10h04.22.261,phx_ver10,2022.2.5,MacIntel,60.0024001,,,,,,,,,,,,127,testing_3,sh2j,ai,sh2j_ai,sh2j_1_aishai.wav,sh2j_8_aijai.wav,,FALSE,FALSE,,,,,,,,,,,,,,j,0.2336,space,0.5843,,,,,,,,0,43,43,126,1,,
613a8fbbdb47cba39c6c246d,2023-06-16_10h04.22.261,phx_ver10,2022.2.5,MacIntel,60.0024001,,,,,,,,,,,,82,testing_3,j2x,au,j2x_au,j2x_8_auxau.wav,j2x_8_auxau.wav,,TRUE,FALSE,,,,,,,,,,,,,,f,0.4852,space,0.7021,,,,,,,,0,44,44,81,1,,
613a8fbbdb47cba39c6c246d,2023-06-16_10h04.22.261,phx_ver10,2022.2.5,MacIntel,60.0024001,,,,,,,,,,,,106,testing_3,sh2x,au,sh2x_au,sh2x_8_auxau.wav,sh2x_8_auxau.wav,,TRUE,FALSE,,,,,,,,,,,,,,f,0.3015,space,0.7013,,,,,,,,0,45,45,105,1,,
613a8fbbdb47cba39c6c246d,2023-06-16_10h04.22.261,phx_ver10,2022.2.5,MacIntel,60.0024001,,,,,,,,,,,,4,testing_1,zh2x,a,zh2x_a,zh2x_8_axa.wav,zh2x_1_azha.wav,,FALSE,TRUE,,,,,,,,,,,,,,f,0.0564,space,0.4339,,,,,,,,0,46,46,3,1,,
613a8fbbdb47cba39c6c246d,2023-06-16_10h04.22.261,phx_ver10,2022.2.5,MacIntel,60.0024001,,,,,,,,,,,,87,testing_3,j2x,e,j2x_e,j2x_1_eje.wav,j2x_8_exe.wav,,FALSE,FALSE,,,,,,,,,,,,,,j,0.3507,space,0.6344,,,,,,,,0,47,47,86,1,,
613a8fbbdb47cba39c6c246d,2023-06-16_10h04.22.261,phx_ver10,2022.2.5,MacIntel,60.0024001,,,,,,,,,,,,44,testing_3,zh2sh,ei,zh2sh_ei,zh2sh_8_eishei.wav,zh2sh_1_eizhei.wav,,FALSE,FALSE,,,,,,,,,,,,,,j,0.2158,space,0.5839,,,,,,,,0,48,48,43,1,,
613a8fbbdb47cba39c6c246d,2023-06-16_10h04.22.261,phx_ver10,2022.2.5,MacIntel,60.0024001,,,,,,,,,,,,128,testing_3,sh2j,ai,sh2j_ai,sh2j_8_aijai.wav,sh2j_1_aishai.wav,,FALSE,FALSE,,,,,,,,,,,,,,j,0.317,space,0.5335,,,,,,,,0,49,49,127,1,,
613a8fbbdb47cba39c6c246d,2023-06-16_10h04.22.261,phx_ver10,2022.2.5,MacIntel,60.0024001,,,,,,,,,,,,31,testing_3,zh2sh,ai,zh2sh_ai,zh2sh_1_aizhai.wav,zh2sh_8_aishai.wav,,FALSE,FALSE,,,,,,,,,,,,,,j,0.0689,space,0.4912,,,,,,,,0,50,50,30,1,,
613a8fbbdb47cba39c6c246d,2023-06-16_10h04.22.261,phx_ver10,2022.2.5,MacIntel,60.0024001,,,,,,,,,,,,9,testing_1,zh2x,i,zh2x_i,zh2x_1_izhi.wav,zh2x_1_izhi_copy.wav,,TRUE,TRUE,,,,,,,,,,,,,,j,0.1035,space,0.4108,,,,,,,,0,51,51,8,1,,
613a8fbbdb47cba39c6c246d,2023-06-16_10h04.22.261,phx_ver10,2022.2.5,MacIntel,60.0024001,,,,,,,,,,,,88,testing_3,j2x,e,j2x_e,j2x_8_exe.wav,j2x_1_eje.wav,,FALSE,FALSE,,,,,,,,,,,,,,j,0.0037,space,0.3473,,,,,,,,0,52,52,87,1,,
613a8fbbdb47cba39c6c246d,2023-06-16_10h04.22.261,phx_ver10,2022.2.5,MacIntel,60.0024001,,,,,,,,,,,,117,testing_3,sh2x,i,sh2x_i,sh2x_1_ishi.wav,sh2x_1_ishi.wav,,TRUE,FALSE,,,,,,,,,,,,,,j,0.2008,space,0.4996,,,,,,,,0,53,53,116,1,,
613a8fbbdb47cba39c6c246d,2023-06-16_10h04.22.261,phx_ver10,2022.2.5,MacIntel,60.0024001,,,,,,,,,,,,8,testing_1,zh2x,e,zh2x_e,zh2x_8_exe.wav,zh2x_1_ezhe.wav,,FALSE,TRUE,,,,,,,,,,,,,,j,0.0679,space,0.4572,,,,,,,,0,54,54,7,1,,
613a8fbbdb47cba39c6c246d,2023-06-16_10h04.22.261,phx_ver10,2022.2.5,MacIntel,60.0024001,,,,,,,,,,,,135,testing_3,sh2j,e,sh2j_e,sh2j_1_eshe.wav,sh2j_8_eje.wav,,FALSE,FALSE,,,,,,,,,,,,,,j,0.0006,space,0.3999,,,,,,,,0,55,55,134,1,,
613a8fbbdb47cba39c6c246d,2023-06-16_10h04.22.261,phx_ver10,2022.2.5,MacIntel,60.0024001,,,,,,,,,,,,80,testing_3,j2x,ai,j2x_ai,j2x_8_aixai.wav,j2x_1_aijai.wav,,FALSE,FALSE,,,,,,,,,,,,,,f,0.7367,space,1.0364,,,,,,,,0,56,56,79,1,,
613a8fbbdb47cba39c6c246d,2023-06-16_10h04.22.261,phx_ver10,2022.2.5,MacIntel,60.0024001,,,,,,,,,,,,70,testing_3,zh2j,i,zh2j_i,zh2j_8_iji.wav,zh2j_8_iji.wav,,TRUE,FALSE,,,,,,,,,,,,,,f,0.336,space,0.72,,,,,,,,0,57,57,69,1,,
613a8fbbdb47cba39c6c246d,2023-06-16_10h04.22.261,phx_ver10,2022.2.5,MacIntel,60.0024001,,,,,,,,,,,,139,testing_3,sh2j,ei,sh2j_ei,sh2j_1_eishei.wav,sh2j_8_eijei.wav,,FALSE,FALSE,,,,,,,,,,,,,,j,0.0582,space,0.4839,,,,,,,,0,58,58,138,1,,
613a8fbbdb47cba39c6c246d,2023-06-16_10h04.22.261,phx_ver10,2022.2.5,MacIntel,60.0024001,,,,,,,,,,,,118,testing_3,sh2x,i,sh2x_i,sh2x_8_ixi.wav,sh2x_8_ixi.wav,,TRUE,FALSE,,,,,,,,,,,,,,f,0.1931,space,0.6753,,,,,,,,0,59,59,117,1,,
613a8fbbdb47cba39c6c246d,2023-06-16_10h04.22.261,phx_ver10,2022.2.5,MacIntel,60.0024001,,,,,,,,,,,,101,testing_3,sh2x,ai,sh2x_ai,sh2x_1_aishai.wav,sh2x_1_aishai.wav,,TRUE,FALSE,,,,,,,,,,,,,,j,0.2847,space,0.6015,,,,,,,,0,60,60,100,1,,
613a8fbbdb47cba39c6c246d,2023-06-16_10h04.22.261,phx_ver10,2022.2.5,MacIntel,60.0024001,,,,,,,,,,,,81,testing_3,j2x,au,j2x_au,j2x_1_aujau.wav,j2x_1_aujau.wav,,TRUE,FALSE,,,,,,,,,,,,,,f,0.0004,space,0.4774,,,,,,,,0,61,61,80,1,,
613a8fbbdb47cba39c6c246d,2023-06-16_10h04.22.261,phx_ver10,2022.2.5,MacIntel,60.0024001,,,,,,,,,,,,76,testing_3,j2x,a,j2x_a,j2x_8_axa.wav,j2x_1_aja.wav,,FALSE,FALSE,,,,,,,,,,,,,,f,0.3522,space,0.6877,,,,,,,,0,62,62,75,1,,
613a8fbbdb47cba39c6c246d,2023-06-16_10h04.22.261,phx_ver10,2022.2.5,MacIntel,60.0024001,,,,,,,,,,,,131,testing_3,sh2j,au,sh2j_au,sh2j_1_aushau.wav,sh2j_8_aujau.wav,,FALSE,FALSE,,,,,,,,,,,,,,f,0.2418,space,0.5856,,,,,,,,0,63,63,130,1,,
613a8fbbdb47cba39c6c246d,2023-06-16_10h04.22.261,phx_ver10,2022.2.5,MacIntel,60.0024001,,,,,,,,,,,,29,testing_3,zh2sh,ai,zh2sh_ai,zh2sh_1_aizhai.wav,zh2sh_1_aizhai.wav,,TRUE,FALSE,,,,,,,,,,,,,,j,0.2325,space,0.6051,,,,,,,,0,64,64,28,1,,
613a8fbbdb47cba39c6c246d,2023-06-16_10h04.22.261,phx_ver10,2022.2.5,MacIntel,60.0024001,,,,,,,,,,,,130,testing_3,sh2j,au,sh2j_au,sh2j_8_aujau.wav,sh2j_8_aujau.wav,,TRUE,FALSE,,,,,,,,,,,,,,f,0.3012,space,0.568,,,,,,,,0,65,65,129,1,,
613a8fbbdb47cba39c6c246d,2023-06-16_10h04.22.261,phx_ver10,2022.2.5,MacIntel,60.0024001,,,,,,,,,,,,109,testing_3,sh2x,e,sh2x_e,sh2x_1_eshe.wav,sh2x_1_eshe.wav,,TRUE,FALSE,,,,,,,,,,,,,,j,0.1162,space,0.5006,,,,,,,,0,66,66,108,1,,
613a8fbbdb47cba39c6c246d,2023-06-16_10h04.22.261,phx_ver10,2022.2.5,MacIntel,60.0024001,,,,,,,,,,,,129,testing_3,sh2j,au,sh2j_au,sh2j_1_aushau.wav,sh2j_1_aushau.wav,,TRUE,FALSE,,,,,,,,,,,,,,j,0.1165,space,0.3992,,,,,,,,0,67,67,128,1,,
613a8fbbdb47cba39c6c246d,2023-06-16_10h04.22.261,phx_ver10,2022.2.5,MacIntel,60.0024001,,,,,,,,,,,,39,testing_3,zh2sh,e,zh2sh_e,zh2sh_1_ezhe.wav,zh2sh_8_eshe.wav,,FALSE,FALSE,,,,,,,,,,,,,,j,0.9691,space,1.3681,,,,,,,,0,68,68,38,1,,
613a8fbbdb47cba39c6c246d,2023-06-16_10h04.22.261,phx_ver10,2022.2.5,MacIntel,60.0024001,,,,,,,,,,,,22,testing_2,zh2x,ei,zh2x_ei,zh2x_8_eixei.wav,zh2x_8_eixei.wav,,TRUE,FALSE,,,,,,,,,,,,,,f,0.305,space,0.603,,,,,,,,0,69,69,21,1,,
613a8fbbdb47cba39c6c246d,2023-06-16_10h04.22.261,phx_ver10,2022.2.5,MacIntel,60.0024001,,,,,,,,,,,,5,testing_1,zh2x,e,zh2x_e,zh2x_1_ezhe.wav,zh2x_1_ezhe_copy.wav,,TRUE,TRUE,,,,,,,,,,,,,,f,0.4039,space,0.7477,,,,,,,,0,70,70,4,1,,
613a8fbbdb47cba39c6c246d,2023-06-16_10h04.22.261,phx_ver10,2022.2.5,MacIntel,60.0024001,,,,,,,,,,,,32,testing_3,zh2sh,ai,zh2sh_ai,zh2sh_8_aishai.wav,zh2sh_1_aizhai.wav,,FALSE,FALSE,,,,,,,,,,,,,,j,1.6074,space,1.9846,,,,,,,,0,71,71,31,1,,
613a8fbbdb47cba39c6c246d,2023-06-16_10h04.22.261,phx_ver10,2022.2.5,MacIntel,60.0024001,,,,,,,,,,,,95,testing_3,j2x,i,j2x_i,j2x_1_iji.wav,j2x_8_ixi.wav,,FALSE,FALSE,,,,,,,,,,,,,,j,1.8333,space,2.3559,,,,,,,,0,72,72,94,1,,
613a8fbbdb47cba39c6c246d,2023-06-16_10h04.22.261,phx_ver10,2022.2.5,MacIntel,60.0024001,,,,,,,,,,,,11,testing_1,zh2x,i,zh2x_i,zh2x_1_izhi.wav,zh2x_8_ixi.wav,,FALSE,TRUE,,,,,,,,,,,,,,f,2.417,space,2.6733,,,,,,,,0,73,73,10,1,,
613a8fbbdb47cba39c6c246d,2023-06-16_10h04.22.261,phx_ver10,2022.2.5,MacIntel,60.0024001,,,,,,,,,,,,108,testing_3,sh2x,au,sh2x_au,sh2x_8_auxau.wav,sh2x_1_aushau.wav,,FALSE,FALSE,,,,,,,,,,,,,,j,3.3513,space,5.4142,,,,,,,,0,74,74,107,1,,
613a8fbbdb47cba39c6c246d,2023-06-16_10h04.22.261,phx_ver10,2022.2.5,MacIntel,60.0024001,,,,,,,,,,,,97,testing_3,sh2x,a,sh2x_a,sh2x_1_asha.wav,sh2x_1_asha.wav,,TRUE,FALSE,,,,,,,,,,,,,,f,0.4332,space,1.8167,,,,,,,,0,75,75,96,1,,
613a8fbbdb47cba39c6c246d,2023-06-16_10h04.22.261,phx_ver10,2022.2.5,MacIntel,60.0024001,,,,,,,,,,,,20,testing_2,zh2x,au,zh2x_au,zh2x_8_auxau.wav,zh2x_1_auzhau.wav,,FALSE,FALSE,,,,,,,,,,,,,,f,0.4185,space,2.0185,,,,,,,,0,76,76,19,1,,
613a8fbbdb47cba39c6c246d,2023-06-16_10h04.22.261,phx_ver10,2022.2.5,MacIntel,60.0024001,,,,,,,,,,,,74,testing_3,j2x,a,j2x_a,j2x_8_axa.wav,j2x_8_axa.wav,,TRUE,FALSE,,,,,,,,,,,,,,f,0.3872,space,1.519,,,,,,,,0,77,77,73,1,,
613a8fbbdb47cba39c6c246d,2023-06-16_10h04.22.261,phx_ver10,2022.2.5,MacIntel,60.0024001,,,,,,,,,,,,34,testing_3,zh2sh,au,zh2sh_au,zh2sh_8_aushau.wav,zh2sh_8_aushau.wav,,TRUE,FALSE,,,,,,,,,,,,,,f,0.0352,space,1.2746,,,,,,,,0,78,78,33,1,,
613a8fbbdb47cba39c6c246d,2023-06-16_10h04.22.261,phx_ver10,2022.2.5,MacIntel,60.0024001,,,,,,,,,,,,25,testing_3,zh2sh,a,zh2sh_a,zh2sh_1_azha.wav,zh2sh_1_azha.wav,,TRUE,FALSE,,,,,,,,,,,,,,f,0.3858,space,1.3554,,,,,,,,0,79,79,24,1,,
613a8fbbdb47cba39c6c246d,2023-06-16_10h04.22.261,phx_ver10,2022.2.5,MacIntel,60.0024001,,,,,,,,,,,,35,testing_3,zh2sh,au,zh2sh_au,zh2sh_1_auzhau.wav,zh2sh_8_aushau.wav,,FALSE,FALSE,,,,,,,,,,,,,,j,1.2494,space,2.4011,,,,,,,,0,80,80,34,1,,
613a8fbbdb47cba39c6c246d,2023-06-16_10h04.22.261,phx_ver10,2022.2.5,MacIntel,60.0024001,,,,,,,,,,,,24,testing_2,zh2x,ei,zh2x_ei,zh2x_8_eixei.wav,zh2x_1_eizhei.wav,,FALSE,FALSE,,,,,,,,,,,,,,j,0.2336,space,1.9027,,,,,,,,0,81,81,23,1,,
613a8fbbdb47cba39c6c246d,2023-06-16_10h04.22.261,phx_ver10,2022.2.5,MacIntel,60.0024001,,,,,,,,,,,,37,testing_3,zh2sh,e,zh2sh_e,zh2sh_1_ezhe.wav,zh2sh_1_ezhe.wav,,TRUE,FALSE,,,,,,,,,,,,,,j,0.0348,space,1.568,,,,,,,,0,82,82,36,1,,
613a8fbbdb47cba39c6c246d,2023-06-16_10h04.22.261,phx_ver10,2022.2.5,MacIntel,60.0024001,,,,,,,,,,,,47,testing_3,zh2sh,i,zh2sh_i,zh2sh_1_izhi.wav,zh2sh_8_ishi.wav,,FALSE,FALSE,,,,,,,,,,,,,,f,0.534,space,1.6824,,,,,,,,0,83,83,46,1,,
613a8fbbdb47cba39c6c246d,2023-06-16_10h04.22.261,phx_ver10,2022.2.5,MacIntel,60.0024001,,,,,,,,,,,,73,testing_3,j2x,a,j2x_a,j2x_1_aja.wav,j2x_1_aja.wav,,TRUE,FALSE,,,,,,,,,,,,,,f,1.2826,space,2.4889,,,,,,,,0,84,84,72,1,,
613a8fbbdb47cba39c6c246d,2023-06-16_10h04.22.261,phx_ver10,2022.2.5,MacIntel,60.0024001,,,,,,,,,,,,122,testing_3,sh2j,a,sh2j_a,sh2j_8_aja.wav,sh2j_8_aja.wav,,TRUE,FALSE,,,,,,,,,,,,,,f,0.52,space,2.3192,,,,,,,,0,85,85,121,1,,
613a8fbbdb47cba39c6c246d,2023-06-16_10h04.22.261,phx_ver10,2022.2.5,MacIntel,60.0024001,,,,,,,,,,,,6,testing_1,zh2x,e,zh2x_e,zh2x_8_exe.wav,zh2x_8_exe_copy.wav,,TRUE,TRUE,,,,,,,,,,,,,,j,0.2197,space,1.4007,,,,,,,,0,86,86,5,1,,
613a8fbbdb47cba39c6c246d,2023-06-16_10h04.22.261,phx_ver10,2022.2.5,MacIntel,60.0024001,,,,,,,,,,,,45,testing_3,zh2sh,i,zh2sh_i,zh2sh_1_izhi.wav,zh2sh_1_izhi.wav,,TRUE,FALSE,,,,,,,,,,,,,,f,0.7347,space,1.4907,,,,,,,,0,87,87,44,1,,
613a8fbbdb47cba39c6c246d,2023-06-16_10h04.22.261,phx_ver10,2022.2.5,MacIntel,60.0024001,,,,,,,,,,,,58,testing_3,zh2j,au,zh2j_au,zh2j_8_aujau.wav,zh2j_8_aujau.wav,,TRUE,FALSE,,,,,,,,,,,,,,f,0.2862,space,1.336,,,,,,,,0,88,88,57,1,,
613a8fbbdb47cba39c6c246d,2023-06-16_10h04.22.261,phx_ver10,2022.2.5,MacIntel,60.0024001,,,,,,,,,,,,60,testing_3,zh2j,au,zh2j_au,zh2j_8_aujau.wav,zh2j_1_auzhau.wav,,FALSE,FALSE,,,,,,,,,,,,,,f,0.2498,space,1.6832,,,,,,,,0,89,89,59,1,,
613a8fbbdb47cba39c6c246d,2023-06-16_10h04.22.261,phx_ver10,2022.2.5,MacIntel,60.0024001,,,,,,,,,,,,13,testing_2,zh2x,ai,zh2x_ai,zh2x_1_aizhai.wav,zh2x_1_aizhai.wav,,TRUE,FALSE,,,,,,,,,,,,,,j,0.2023,space,1.4576,,,,,,,,0,90,90,12,1,,
613a8fbbdb47cba39c6c246d,2023-06-16_10h04.22.261,phx_ver10,2022.2.5,MacIntel,60.0024001,,,,,,,,,,,,52,testing_3,zh2j,a,zh2j_a,zh2j_8_aja.wav,zh2j_1_azha.wav,,FALSE,FALSE,,,,,,,,,,,,,,f,0.2343,space,1.9206,,,,,,,,0,91,91,51,1,,
613a8fbbdb47cba39c6c246d,2023-06-16_10h04.22.261,phx_ver10,2022.2.5,MacIntel,60.0024001,,,,,,,,,,,,125,testing_3,sh2j,ai,sh2j_ai,sh2j_1_aishai.wav,sh2j_1_aishai.wav,,TRUE,FALSE,,,,,,,,,,,,,,j,0.3366,space,1.7384,,,,,,,,0,92,92,124,1,,
613a8fbbdb47cba39c6c246d,2023-06-16_10h04.22.261,phx_ver10,2022.2.5,MacIntel,60.0024001,,,,,,,,,,,,55,testing_3,zh2j,ai,zh2j_ai,zh2j_1_aizhai.wav,zh2j_8_aijai.wav,,FALSE,FALSE,,,,,,,,,,,,,,j,0.1708,space,3.6176,,,,,,,,0,93,93,54,1,,
613a8fbbdb47cba39c6c246d,2023-06-16_10h04.22.261,phx_ver10,2022.2.5,MacIntel,60.0024001,,,,,,,,,,,,57,testing_3,zh2j,au,zh2j_au,zh2j_1_auzhau.wav,zh2j_1_auzhau.wav,,TRUE,FALSE,,,,,,,,,,,,,,f,0.4161,space,0.9153,,,,,,,,0,94,94,56,1,,
613a8fbbdb47cba39c6c246d,2023-06-16_10h04.22.261,phx_ver10,2022.2.5,MacIntel,60.0024001,,,,,,,,,,,,54,testing_3,zh2j,ai,zh2j_ai,zh2j_8_aijai.wav,zh2j_8_aijai.wav,,TRUE,FALSE,,,,,,,,,,,,,,j,0.104,space,0.4334,,,,,,,,0,95,95,53,1,,
613a8fbbdb47cba39c6c246d,2023-06-16_10h04.22.261,phx_ver10,2022.2.5,MacIntel,60.0024001,,,,,,,,,,,,21,testing_2,zh2x,ei,zh2x_ei,zh2x_1_eizhei.wav,zh2x_1_eizhei.wav,,TRUE,FALSE,,,,,,,,,,,,,,j,0.3006,space,0.6217,,,,,,,,0,96,96,20,1,,
613a8fbbdb47cba39c6c246d,2023-06-16_10h04.22.261,phx_ver10,2022.2.5,MacIntel,60.0024001,,,,,,,,,,,,111,testing_3,sh2x,e,sh2x_e,sh2x_1_eshe.wav,sh2x_8_exe.wav,,FALSE,FALSE,,,,,,,,,,,,,,j,0.186,space,0.6237,,,,,,,,0,97,97,110,1,,
613a8fbbdb47cba39c6c246d,2023-06-16_10h04.22.261,phx_ver10,2022.2.5,MacIntel,60.0024001,,,,,,,,,,,,49,testing_3,zh2j,a,zh2j_a,zh2j_1_azha.wav,zh2j_1_azha.wav,,TRUE,FALSE,,,,,,,,,,,,,,f,0.6667,space,0.983,,,,,,,,0,98,98,48,1,,
613a8fbbdb47cba39c6c246d,2023-06-16_10h04.22.261,phx_ver10,2022.2.5,MacIntel,60.0024001,,,,,,,,,,,,133,testing_3,sh2j,e,sh2j_e,sh2j_1_eshe.wav,sh2j_1_eshe.wav,,TRUE,FALSE,,,,,,,,,,,,,,j,0.2598,space,0.6071,,,,,,,,0,99,99,132,1,,
613a8fbbdb47cba39c6c246d,2023-06-16_10h04.22.261,phx_ver10,2022.2.5,MacIntel,60.0024001,,,,,,,,,,,,98,testing_3,sh2x,a,sh2x_a,sh2x_8_axa.wav,sh2x_8_axa.wav,,TRUE,FALSE,,,,,,,,,,,,,,f,0.1849,space,0.485,,,,,,,,0,100,100,97,1,,
613a8fbbdb47cba39c6c246d,2023-06-16_10h04.22.261,phx_ver10,2022.2.5,MacIntel,60.0024001,,,,,,,,,,,,120,testing_3,sh2x,i,sh2x_i,sh2x_8_ixi.wav,sh2x_1_ishi.wav,,FALSE,FALSE,,,,,,,,,,,,,,j,0.3004,space,0.6226,,,,,,,,0,101,101,119,1,,
613a8fbbdb47cba39c6c246d,2023-06-16_10h04.22.261,phx_ver10,2022.2.5,MacIntel,60.0024001,,,,,,,,,,,,107,testing_3,sh2x,au,sh2x_au,sh2x_1_aushau.wav,sh2x_8_auxau.wav,,FALSE,FALSE,,,,,,,,,,,,,,f,0.1732,space,0.5211,,,,,,,,0,102,102,106,1,,
613a8fbbdb47cba39c6c246d,2023-06-16_10h04.22.261,phx_ver10,2022.2.5,MacIntel,60.0024001,,,,,,,,,,,,36,testing_3,zh2sh,au,zh2sh_au,zh2sh_8_aushau.wav,zh2sh_1_auzhau.wav,,FALSE,FALSE,,,,,,,,,,,,,,f,0.3049,space,0.6351,,,,,,,,0,103,103,35,1,,
613a8fbbdb47cba39c6c246d,2023-06-16_10h04.22.261,phx_ver10,2022.2.5,MacIntel,60.0024001,,,,,,,,,,,,69,testing_3,zh2j,i,zh2j_i,zh2j_1_izhi.wav,zh2j_1_izhi.wav,,TRUE,FALSE,,,,,,,,,,,,,,j,0.1188,space,0.383,,,,,,,,0,104,104,68,1,,
613a8fbbdb47cba39c6c246d,2023-06-16_10h04.22.261,phx_ver10,2022.2.5,MacIntel,60.0024001,,,,,,,,,,,,124,testing_3,sh2j,a,sh2j_a,sh2j_8_aja.wav,sh2j_1_asha.wav,,FALSE,FALSE,,,,,,,,,,,,,,f,0.3518,space,1.5162,,,,,,,,0,105,105,123,1,,
613a8fbbdb47cba39c6c246d,2023-06-16_10h04.22.261,phx_ver10,2022.2.5,MacIntel,60.0024001,,,,,,,,,,,,46,testing_3,zh2sh,i,zh2sh_i,zh2sh_8_ishi.wav,zh2sh_8_ishi.wav,,TRUE,FALSE,,,,,,,,,,,,,,j,0.151,space,1.3661,,,,,,,,0,106,106,45,1,,
613a8fbbdb47cba39c6c246d,2023-06-16_10h04.22.261,phx_ver10,2022.2.5,MacIntel,60.0024001,,,,,,,,,,,,68,testing_3,zh2j,ei,zh2j_ei,zh2j_8_eijei.wav,zh2j_1_eizhei.wav,,FALSE,FALSE,,,,,,,,,,,,,,f,0.2863,space,1.5062,,,,,,,,0,107,107,67,1,,
613a8fbbdb47cba39c6c246d,2023-06-16_10h04.22.261,phx_ver10,2022.2.5,MacIntel,60.0024001,,,,,,,,,,,,115,testing_3,sh2x,ei,sh2x_ei,sh2x_1_eishei.wav,sh2x_8_eixei.wav,,FALSE,FALSE,,,,,,,,,,,,,,f,0.0036,space,1.2484,,,,,,,,0,108,108,114,1,,
613a8fbbdb47cba39c6c246d,2023-06-16_10h04.22.261,phx_ver10,2022.2.5,MacIntel,60.0024001,,,,,,,,,,,,119,testing_3,sh2x,i,sh2x_i,sh2x_1_ishi.wav,sh2x_8_ixi.wav,,FALSE,FALSE,,,,,,,,,,,,,,j,0.317,space,0.7171,,,,,,,,0,109,109,118,1,,
613a8fbbdb47cba39c6c246d,2023-06-16_10h04.22.261,phx_ver10,2022.2.5,MacIntel,60.0024001,,,,,,,,,,,,42,testing_3,zh2sh,ei,zh2sh_ei,zh2sh_8_eishei.wav,zh2sh_8_eishei.wav,,TRUE,FALSE,,,,,,,,,,,,,,f,0.4338,space,0.4677,,,,,,,,0,110,110,41,1,,
613a8fbbdb47cba39c6c246d,2023-06-16_10h04.22.261,phx_ver10,2022.2.5,MacIntel,60.0024001,,,,,,,,,,,,96,testing_3,j2x,i,j2x_i,j2x_8_ixi.wav,j2x_1_iji.wav,,FALSE,FALSE,,,,,,,,,,,,,,f,0.8345,space,1.2861,,,,,,,,0,111,111,95,1,,
613a8fbbdb47cba39c6c246d,2023-06-16_10h04.22.261,phx_ver10,2022.2.5,MacIntel,60.0024001,,,,,,,,,,,,91,testing_3,j2x,ei,j2x_ei,j2x_1_eijei.wav,j2x_8_eixei.wav,,FALSE,FALSE,,,,,,,,,,,,,,f,0.4503,space,1.884,,,,,,,,0,112,112,90,1,,
613a8fbbdb47cba39c6c246d,2023-06-16_10h04.22.261,phx_ver10,2022.2.5,MacIntel,60.0024001,,,,,,,,,,,,113,testing_3,sh2x,ei,sh2x_ei,sh2x_1_eishei.wav,sh2x_1_eishei.wav,,TRUE,FALSE,,,,,,,,,,,,,,f,2.0011,space,2.0347,,,,,,,,0,113,113,112,1,,
613a8fbbdb47cba39c6c246d,2023-06-16_10h04.22.261,phx_ver10,2022.2.5,MacIntel,60.0024001,,,,,,,,,,,,89,testing_3,j2x,ei,j2x_ei,j2x_1_eijei.wav,j2x_1_eijei.wav,,TRUE,FALSE,,,,,,,,,,,,,,f,0.3862,space,2.5183,,,,,,,,0,114,114,88,1,,
613a8fbbdb47cba39c6c246d,2023-06-16_10h04.22.261,phx_ver10,2022.2.5,MacIntel,60.0024001,,,,,,,,,,,,86,testing_3,j2x,e,j2x_e,j2x_8_exe.wav,j2x_8_exe.wav,,TRUE,FALSE,,,,,,,,,,,,,,j,0.3402,space,0.714,,,,,,,,0,115,115,85,1,,
613a8fbbdb47cba39c6c246d,2023-06-16_10h04.22.261,phx_ver10,2022.2.5,MacIntel,60.0024001,,,,,,,,,,,,1,testing_1,zh2x,a,zh2x_a,zh2x_1_azha.wav,zh2x_1_azha_copy.wav,,TRUE,TRUE,,,,,,,,,,,,,,f,0.0869,space,0.5669,,,,,,,,0,116,116,0,1,,
613a8fbbdb47cba39c6c246d,2023-06-16_10h04.22.261,phx_ver10,2022.2.5,MacIntel,60.0024001,,,,,,,,,,,,77,testing_3,j2x,ai,j2x_ai,j2x_1_aijai.wav,j2x_1_aijai.wav,,TRUE,FALSE,,,,,,,,,,,,,,j,0.2582,space,0.6347,,,,,,,,0,117,117,76,1,,
613a8fbbdb47cba39c6c246d,2023-06-16_10h04.22.261,phx_ver10,2022.2.5,MacIntel,60.0024001,,,,,,,,,,,,112,testing_3,sh2x,e,sh2x_e,sh2x_8_exe.wav,sh2x_1_eshe.wav,,FALSE,FALSE,,,,,,,,,,,,,,f,1.5326,space,2.1994,,,,,,,,0,118,118,111,1,,
613a8fbbdb47cba39c6c246d,2023-06-16_10h04.22.261,phx_ver10,2022.2.5,MacIntel,60.0024001,,,,,,,,,,,,123,testing_3,sh2j,a,sh2j_a,sh2j_1_asha.wav,sh2j_8_aja.wav,,FALSE,FALSE,,,,,,,,,,,,,,j,0.7357,space,1.0522,,,,,,,,0,119,119,122,1,,
613a8fbbdb47cba39c6c246d,2023-06-16_10h04.22.261,phx_ver10,2022.2.5,MacIntel,60.0024001,,,,,,,,,,,,41,testing_3,zh2sh,ei,zh2sh_ei,zh2sh_1_eizhei.wav,zh2sh_1_eizhei.wav,,TRUE,FALSE,,,,,,,,,,,,,,f,0.3639,space,0.767,,,,,,,,0,120,120,40,1,,
613a8fbbdb47cba39c6c246d,2023-06-16_10h04.22.261,phx_ver10,2022.2.5,MacIntel,60.0024001,,,,,,,,,,,,12,testing_1,zh2x,i,zh2x_i,zh2x_8_ixi.wav,zh2x_1_izhi.wav,,FALSE,TRUE,,,,,,,,,,,,,,j,0.1021,space,0.4521,,,,,,,,0,121,121,11,1,,
613a8fbbdb47cba39c6c246d,2023-06-16_10h04.22.261,phx_ver10,2022.2.5,MacIntel,60.0024001,,,,,,,,,,,,85,testing_3,j2x,e,j2x_e,j2x_1_eje.wav,j2x_1_eje.wav,,TRUE,FALSE,,,,,,,,,,,,,,f,0.3185,space,0.689,,,,,,,,0,122,122,84,1,,
613a8fbbdb47cba39c6c246d,2023-06-16_10h04.22.261,phx_ver10,2022.2.5,MacIntel,60.0024001,,,,,,,,,,,,33,testing_3,zh2sh,au,zh2sh_au,zh2sh_1_auzhau.wav,zh2sh_1_auzhau.wav,,TRUE,FALSE,,,,,,,,,,,,,,j,0.1335,space,0.5496,,,,,,,,0,123,123,32,1,,
613a8fbbdb47cba39c6c246d,2023-06-16_10h04.22.261,phx_ver10,2022.2.5,MacIntel,60.0024001,,,,,,,,,,,,138,testing_3,sh2j,ei,sh2j_ei,sh2j_8_eijei.wav,sh2j_8_eijei.wav,,TRUE,FALSE,,,,,,,,,,,,,,j,1.2215,space,1.7161,,,,,,,,0,124,124,137,1,,
613a8fbbdb47cba39c6c246d,2023-06-16_10h04.22.261,phx_ver10,2022.2.5,MacIntel,60.0024001,,,,,,,,,,,,83,testing_3,j2x,au,j2x_au,j2x_1_aujau.wav,j2x_8_auxau.wav,,FALSE,FALSE,,,,,,,,,,,,,,f,0.0204,space,0.4861,,,,,,,,0,125,125,82,1,,
613a8fbbdb47cba39c6c246d,2023-06-16_10h04.22.261,phx_ver10,2022.2.5,MacIntel,60.0024001,,,,,,,,,,,,94,testing_3,j2x,i,j2x_i,j2x_8_ixi.wav,j2x_8_ixi.wav,,TRUE,FALSE,,,,,,,,,,,,,,j,0.3371,space,0.6034,,,,,,,,0,126,126,93,1,,
613a8fbbdb47cba39c6c246d,2023-06-16_10h04.22.261,phx_ver10,2022.2.5,MacIntel,60.0024001,,,,,,,,,,,,48,testing_3,zh2sh,i,zh2sh_i,zh2sh_8_ishi.wav,zh2sh_1_izhi.wav,,FALSE,FALSE,,,,,,,,,,,,,,j,0.3546,space,9.0381,,,,,,,,0,127,127,47,1,,
613a8fbbdb47cba39c6c246d,2023-06-16_10h04.22.261,phx_ver10,2022.2.5,MacIntel,60.0024001,,,,,,,,,,,,102,testing_3,sh2x,ai,sh2x_ai,sh2x_8_aixai.wav,sh2x_8_aixai.wav,,TRUE,FALSE,,,,,,,,,,,,,,j,3.2169,space,3.6144,,,,,,,,0,128,128,101,1,,
613a8fbbdb47cba39c6c246d,2023-06-16_10h04.22.261,phx_ver10,2022.2.5,MacIntel,60.0024001,,,,,,,,,,,,137,testing_3,sh2j,ei,sh2j_ei,sh2j_1_eishei.wav,sh2j_1_eishei.wav,,TRUE,FALSE,,,,,,,,,,,,,,f,0.2993,space,0.7319,,,,,,,,0,129,129,136,1,,
613a8fbbdb47cba39c6c246d,2023-06-16_10h04.22.261,phx_ver10,2022.2.5,MacIntel,60.0024001,,,,,,,,,,,,56,testing_3,zh2j,ai,zh2j_ai,zh2j_8_aijai.wav,zh2j_1_aizhai.wav,,FALSE,FALSE,,,,,,,,,,,,,,f,0.7335,space,0.8875,,,,,,,,0,130,130,55,1,,
613a8fbbdb47cba39c6c246d,2023-06-16_10h04.22.261,phx_ver10,2022.2.5,MacIntel,60.0024001,,,,,,,,,,,,40,testing_3,zh2sh,e,zh2sh_e,zh2sh_8_eshe.wav,zh2sh_1_ezhe.wav,,FALSE,FALSE,,,,,,,,,,,,,,j,0.3179,space,0.6025,,,,,,,,0,131,131,39,1,,
613a8fbbdb47cba39c6c246d,2023-06-16_10h04.22.261,phx_ver10,2022.2.5,MacIntel,60.0024001,,,,,,,,,,,,79,testing_3,j2x,ai,j2x_ai,j2x_1_aijai.wav,j2x_8_aixai.wav,,FALSE,FALSE,,,,,,,,,,,,,,j,1.8014,space,2.6837,,,,,,,,0,132,132,78,1,,
613a8fbbdb47cba39c6c246d,2023-06-16_10h04.22.261,phx_ver10,2022.2.5,MacIntel,60.0024001,,,,,,,,,,,,142,testing_3,sh2j,i,sh2j_i,sh2j_8_iji.wav,sh2j_8_iji.wav,,TRUE,FALSE,,,,,,,,,,,,,,f,2.148,space,2.49,,,,,,,,0,133,133,141,1,,
613a8fbbdb47cba39c6c246d,2023-06-16_10h04.22.261,phx_ver10,2022.2.5,MacIntel,60.0024001,,,,,,,,,,,,110,testing_3,sh2x,e,sh2x_e,sh2x_8_exe.wav,sh2x_8_exe.wav,,TRUE,FALSE,,,,,,,,,,,,,,j,3.9678,space,4.1912,,,,,,,,0,134,134,109,1,,
613a8fbbdb47cba39c6c246d,2023-06-16_10h04.22.261,phx_ver10,2022.2.5,MacIntel,60.0024001,,,,,,,,,,,,15,testing_2,zh2x,ai,zh2x_ai,zh2x_1_aizhai.wav,zh2x_8_aixai.wav,,FALSE,FALSE,,,,,,,,,,,,,,f,0.2847,space,0.6344,,,,,,,,0,135,135,14,1,,
613a8fbbdb47cba39c6c246d,2023-06-16_10h04.22.261,phx_ver10,2022.2.5,MacIntel,60.0024001,,,,,,,,,,,,7,testing_1,zh2x,e,zh2x_e,zh2x_1_ezhe.wav,zh2x_8_exe.wav,,FALSE,TRUE,,,,,,,,,,,,,,j,0.2997,space,0.6665,,,,,,,,0,136,136,6,1,,
613a8fbbdb47cba39c6c246d,2023-06-16_10h04.22.261,phx_ver10,2022.2.5,MacIntel,60.0024001,,,,,,,,,,,,50,testing_3,zh2j,a,zh2j_a,zh2j_8_aja.wav,zh2j_8_aja.wav,,TRUE,FALSE,,,,,,,,,,,,,,f,0.0684,space,0.5679,,,,,,,,0,137,137,49,1,,
613a8fbbdb47cba39c6c246d,2023-06-16_10h04.22.261,phx_ver10,2022.2.5,MacIntel,60.0024001,,,,,,,,,,,,43,testing_3,zh2sh,ei,zh2sh_ei,zh2sh_1_eizhei.wav,zh2sh_8_eishei.wav,,FALSE,FALSE,,,,,,,,,,,,,,j,0.35,space,0.817,,,,,,,,0,138,138,42,1,,
613a8fbbdb47cba39c6c246d,2023-06-16_10h04.22.261,phx_ver10,2022.2.5,MacIntel,60.0024001,,,,,,,,,,,,92,testing_3,j2x,ei,j2x_ei,j2x_8_eixei.wav,j2x_1_eijei.wav,,FALSE,FALSE,,,,,,,,,,,,,,j,0.4831,space,0.8861,,,,,,,,0,139,139,91,1,,
613a8fbbdb47cba39c6c246d,2023-06-16_10h04.22.261,phx_ver10,2022.2.5,MacIntel,60.0024001,,,,,,,,,,,,14,testing_2,zh2x,ai,zh2x_ai,zh2x_8_aixai.wav,zh2x_8_aixai.wav,,TRUE,FALSE,,,,,,,,,,,,,,f,0.7488,space,0.9473,,,,,,,,0,140,140,13,1,,
613a8fbbdb47cba39c6c246d,2023-06-16_10h04.22.261,phx_ver10,2022.2.5,MacIntel,60.0024001,,,,,,,,,,,,121,testing_3,sh2j,a,sh2j_a,sh2j_1_asha.wav,sh2j_1_asha.wav,,TRUE,FALSE,,,,,,,,,,,,,,f,0.1141,space,0.4729,,,,,,,,0,141,141,120,1,,
613a8fbbdb47cba39c6c246d,2023-06-16_10h04.22.261,phx_ver10,2022.2.5,MacIntel,60.0024001,,,,,,,,,,,,78,testing_3,j2x,ai,j2x_ai,j2x_8_aixai.wav,j2x_8_aixai.wav,,TRUE,FALSE,,,,,,,,,,,,,,j,0.6658,space,1.0508,,,,,,,,0,142,142,77,1,,
613a8fbbdb47cba39c6c246d,2023-06-16_10h04.22.261,phx_ver10,2022.2.5,MacIntel,60.0024001,,,,,,,,,,,,61,testing_3,zh2j,e,zh2j_e,zh2j_1_ezhe.wav,zh2j_1_ezhe.wav,,TRUE,FALSE,,,,,,,,,,,,,,f,1.0014,space,1.3489,,,,,,,,0,143,143,60,1,,
613a8fbbdb47cba39c6c246d,2023-06-16_10h04.22.261,phx_ver10,2022.2.5,MacIntel,60.0024001,,,,,,,,,,,,,,,,,,,,,,,,,,,,,,,,,,,,,,,,,,,,,,,,,,,space,1.2909
