participant,date,expName,psychopyVersion,OS,frameRate,space_1.keys,space_1.rt,space_2.keys,space_2.rt,space_train.keys,space_train.rt,training.thisRepN,training.thisTrialN,training.thisN,training.thisIndex,training.ran,token_id,task,continuum,vowel,series,sound_1,sound_2,img,same,trained,FJ_attn.keys,FJ_attn.rt,space_attn.keys,space_attn.rt,if_attn_test.thisRepN,if_attn_test.thisTrialN,if_attn_test.thisN,if_attn_test.thisIndex,if_attn_test.ran,space_trans_1.keys,space_trans_1.rt,space_trans_11.keys,space_trans_11.rt,FJ_test.keys,FJ_test.rt,space_test.keys,space_test.rt,testing_pre.thisRepN,testing_pre.thisTrialN,testing_pre.thisN,testing_pre.thisIndex,testing_pre.ran,space_trans_2.keys,space_trans_2.rt,testing_all.thisRepN,testing_all.thisTrialN,testing_all.thisN,testing_all.thisIndex,testing_all.ran,space_ending.keys,space_ending.rt
613cb18edb7eb18d77d8d1e1,2023-06-16_10h15.05.724,phx_ver10,2022.2.5,Win32,60.13952369,,,,,,,,,,,,,,,,,,,,,,,,,,,,,,,,,,,,,,,,,,,,,,,,,,,,
613cb18edb7eb18d77d8d1e1,2023-06-16_10h15.05.724,phx_ver10,2022.2.5,Win32,60.13952369,space,2.5665,,,,,,,,,,,,,,,,,,,,,,,,,,,,,,,,,,,,,,,,,,,,,,,,,,
613cb18edb7eb18d77d8d1e1,2023-06-16_10h15.05.724,phx_ver10,2022.2.5,Win32,60.13952369,,,space,1.7487,,,,,,,,,,,,,,,,,,,,,,,,,,,,,,,,,,,,,,,,,,,,,,,,
613cb18edb7eb18d77d8d1e1,2023-06-16_10h15.05.724,phx_ver10,2022.2.5,Win32,60.13952369,,,,,space,0.7962,0,0,0,46,1,47,training,zh2x,i,zh2x_i,zh2x_7_ixi.wav,,ixi.jpg,,,,,,,,,,,,,,,,,,,,,,,,,,,,,,,,,
613cb18edb7eb18d77d8d1e1,2023-06-16_10h15.05.724,phx_ver10,2022.2.5,Win32,60.13952369,,,,,space,1.8802,0,1,1,16,1,17,training,zh2x,e,zh2x_e,zh2x_1_ezhe.wav,,ezhe.jpg,,,,,,,,,,,,,,,,,,,,,,,,,,,,,,,,,
613cb18edb7eb18d77d8d1e1,2023-06-16_10h15.05.724,phx_ver10,2022.2.5,Win32,60.13952369,,,,,space,0.4879,0,2,2,31,1,32,training,zh2x,e,zh2x_e,zh2x_8_exe.wav,,exe.jpg,,,,,,,,,,,,,,,,,,,,,,,,,,,,,,,,,
613cb18edb7eb18d77d8d1e1,2023-06-16_10h15.05.724,phx_ver10,2022.2.5,Win32,60.13952369,,,,,space,1.2826,0,3,3,44,1,45,training,zh2x,i,zh2x_i,zh2x_7_ixi.wav,,ixi.jpg,,,,,,,,,,,,,,,,,,,,,,,,,,,,,,,,,
613cb18edb7eb18d77d8d1e1,2023-06-16_10h15.05.724,phx_ver10,2022.2.5,Win32,60.13952369,,,,,space,0.5271,0,4,4,25,1,26,training,zh2x,e,zh2x_e,zh2x_6_exe.wav,,exe.jpg,,,,,,,,,,,,,,,,,,,,,,,,,,,,,,,,,
613cb18edb7eb18d77d8d1e1,2023-06-16_10h15.05.724,phx_ver10,2022.2.5,Win32,60.13952369,,,,,space,0.2512,0,5,5,19,1,20,training,zh2x,e,zh2x_e,zh2x_2_ezhe.wav,,ezhe.jpg,,,,,,,,,,,,,,,,,,,,,,,,,,,,,,,,,
613cb18edb7eb18d77d8d1e1,2023-06-16_10h15.05.724,phx_ver10,2022.2.5,Win32,60.13952369,,,,,,,,,,,,,attn_test,,,,zh2x_1_ezhe.wav,zh2x_8_exe.wav,exe.jpg,RIGHT,,f,2.2324,space,3.4321,0,0,0,0,1,,,,,,,,,,,,,,,,,,,,,,
613cb18edb7eb18d77d8d1e1,2023-06-16_10h15.05.724,phx_ver10,2022.2.5,Win32,60.13952369,,,,,space,1.2003,0,6,6,41,1,42,training,zh2x,i,zh2x_i,zh2x_6_ixi.wav,,ixi.jpg,,,,,,,,,,,,,,,,,,,,,,,,,,,,,,,,,
613cb18edb7eb18d77d8d1e1,2023-06-16_10h15.05.724,phx_ver10,2022.2.5,Win32,60.13952369,,,,,space,0.7566,0,7,7,7,1,8,training,zh2x,a,zh2x_a,zh2x_4_azha.wav,,azha.jpg,,,,,,,,,,,,,,,,,,,,,,,,,,,,,,,,,
613cb18edb7eb18d77d8d1e1,2023-06-16_10h15.05.724,phx_ver10,2022.2.5,Win32,60.13952369,,,,,space,0.7003,0,8,8,8,1,9,training,zh2x,a,zh2x_a,zh2x_5_axa.wav,,axa.jpg,,,,,,,,,,,,,,,,,,,,,,,,,,,,,,,,,
613cb18edb7eb18d77d8d1e1,2023-06-16_10h15.05.724,phx_ver10,2022.2.5,Win32,60.13952369,,,,,space,0.1704,0,9,9,11,1,12,training,zh2x,a,zh2x_a,zh2x_7_axa.wav,,axa.jpg,,,,,,,,,,,,,,,,,,,,,,,,,,,,,,,,,
613cb18edb7eb18d77d8d1e1,2023-06-16_10h15.05.724,phx_ver10,2022.2.5,Win32,60.13952369,,,,,space,0.2038,0,10,10,5,1,6,training,zh2x,a,zh2x_a,zh2x_3_azha.wav,,azha.jpg,,,,,,,,,,,,,,,,,,,,,,,,,,,,,,,,,
613cb18edb7eb18d77d8d1e1,2023-06-16_10h15.05.724,phx_ver10,2022.2.5,Win32,60.13952369,,,,,space,0.0564,0,11,11,10,1,11,training,zh2x,a,zh2x_a,zh2x_6_axa.wav,,axa.jpg,,,,,,,,,,,,,,,,,,,,,,,,,,,,,,,,,
613cb18edb7eb18d77d8d1e1,2023-06-16_10h15.05.724,phx_ver10,2022.2.5,Win32,60.13952369,,,,,,,,,,,,,attn_test,,,,zh2x_8_axa.wav,zh2x_8_exe.wav,axa.jpg,LEFT,,f,0.6841,space,1.1761,0,0,0,0,1,,,,,,,,,,,,,,,,,,,,,,
613cb18edb7eb18d77d8d1e1,2023-06-16_10h15.05.724,phx_ver10,2022.2.5,Win32,60.13952369,,,,,space,0.5506,0,12,12,9,1,10,training,zh2x,a,zh2x_a,zh2x_6_axa.wav,,axa.jpg,,,,,,,,,,,,,,,,,,,,,,,,,,,,,,,,,
613cb18edb7eb18d77d8d1e1,2023-06-16_10h15.05.724,phx_ver10,2022.2.5,Win32,60.13952369,,,,,space,0.3337,0,13,13,2,1,3,training,zh2x,a,zh2x_a,zh2x_2_azha.wav,,azha.jpg,,,,,,,,,,,,,,,,,,,,,,,,,,,,,,,,,
613cb18edb7eb18d77d8d1e1,2023-06-16_10h15.05.724,phx_ver10,2022.2.5,Win32,60.13952369,,,,,space,0.0403,0,14,14,30,1,31,training,zh2x,e,zh2x_e,zh2x_7_exe.wav,,exe.jpg,,,,,,,,,,,,,,,,,,,,,,,,,,,,,,,,,
613cb18edb7eb18d77d8d1e1,2023-06-16_10h15.05.724,phx_ver10,2022.2.5,Win32,60.13952369,,,,,space,0.0091,0,15,15,35,1,36,training,zh2x,i,zh2x_i,zh2x_2_izhi.wav,,izhi.jpg,,,,,,,,,,,,,,,,,,,,,,,,,,,,,,,,,
613cb18edb7eb18d77d8d1e1,2023-06-16_10h15.05.724,phx_ver10,2022.2.5,Win32,60.13952369,,,,,space,0.277,0,16,16,4,1,5,training,zh2x,a,zh2x_a,zh2x_2_azha.wav,,azha.jpg,,,,,,,,,,,,,,,,,,,,,,,,,,,,,,,,,
613cb18edb7eb18d77d8d1e1,2023-06-16_10h15.05.724,phx_ver10,2022.2.5,Win32,60.13952369,,,,,space,0.2207,0,17,17,28,1,29,training,zh2x,e,zh2x_e,zh2x_7_exe.wav,,exe.jpg,,,,,,,,,,,,,,,,,,,,,,,,,,,,,,,,,
613cb18edb7eb18d77d8d1e1,2023-06-16_10h15.05.724,phx_ver10,2022.2.5,Win32,60.13952369,,,,,,,,,,,,,attn_test,,,,zh2x_8_axa.wav,zh2x_8_exe.wav,axa.jpg,LEFT,,j,0.5643,space,1.2361,0,0,0,0,1,,,,,,,,,,,,,,,,,,,,,,
613cb18edb7eb18d77d8d1e1,2023-06-16_10h15.05.724,phx_ver10,2022.2.5,Win32,60.13952369,,,,,space,0.2884,0,18,18,15,1,16,training,zh2x,a,zh2x_a,zh2x_8_axa.wav,,axa.jpg,,,,,,,,,,,,,,,,,,,,,,,,,,,,,,,,,
613cb18edb7eb18d77d8d1e1,2023-06-16_10h15.05.724,phx_ver10,2022.2.5,Win32,60.13952369,,,,,space,0.3302,0,19,19,45,1,46,training,zh2x,i,zh2x_i,zh2x_7_ixi.wav,,ixi.jpg,,,,,,,,,,,,,,,,,,,,,,,,,,,,,,,,,
613cb18edb7eb18d77d8d1e1,2023-06-16_10h15.05.724,phx_ver10,2022.2.5,Win32,60.13952369,,,,,space,0.3501,0,20,20,26,1,27,training,zh2x,e,zh2x_e,zh2x_6_exe.wav,,exe.jpg,,,,,,,,,,,,,,,,,,,,,,,,,,,,,,,,,
613cb18edb7eb18d77d8d1e1,2023-06-16_10h15.05.724,phx_ver10,2022.2.5,Win32,60.13952369,,,,,space,0.0196,0,21,21,22,1,23,training,zh2x,e,zh2x_e,zh2x_3_ezhe.wav,,ezhe.jpg,,,,,,,,,,,,,,,,,,,,,,,,,,,,,,,,,
613cb18edb7eb18d77d8d1e1,2023-06-16_10h15.05.724,phx_ver10,2022.2.5,Win32,60.13952369,,,,,space,0.1506,0,22,22,17,1,18,training,zh2x,e,zh2x_e,zh2x_2_ezhe.wav,,ezhe.jpg,,,,,,,,,,,,,,,,,,,,,,,,,,,,,,,,,
613cb18edb7eb18d77d8d1e1,2023-06-16_10h15.05.724,phx_ver10,2022.2.5,Win32,60.13952369,,,,,space,0.1935,0,23,23,0,1,1,training,zh2x,a,zh2x_a,zh2x_1_azha.wav,,azha.jpg,,,,,,,,,,,,,,,,,,,,,,,,,,,,,,,,,
613cb18edb7eb18d77d8d1e1,2023-06-16_10h15.05.724,phx_ver10,2022.2.5,Win32,60.13952369,,,,,,,,,,,,,attn_test,,,,zh2x_8_ixi.wav,zh2x_1_ezhe.wav,ixi.jpg,LEFT,,j,0.2335,space,0.7662,0,0,0,0,1,,,,,,,,,,,,,,,,,,,,,,
613cb18edb7eb18d77d8d1e1,2023-06-16_10h15.05.724,phx_ver10,2022.2.5,Win32,60.13952369,,,,,space,0.0856,0,24,24,18,1,19,training,zh2x,e,zh2x_e,zh2x_2_ezhe.wav,,ezhe.jpg,,,,,,,,,,,,,,,,,,,,,,,,,,,,,,,,,
613cb18edb7eb18d77d8d1e1,2023-06-16_10h15.05.724,phx_ver10,2022.2.5,Win32,60.13952369,,,,,space,0.1773,0,25,25,42,1,43,training,zh2x,i,zh2x_i,zh2x_6_ixi.wav,,ixi.jpg,,,,,,,,,,,,,,,,,,,,,,,,,,,,,,,,,
613cb18edb7eb18d77d8d1e1,2023-06-16_10h15.05.724,phx_ver10,2022.2.5,Win32,60.13952369,,,,,space,0.3256,0,26,26,20,1,21,training,zh2x,e,zh2x_e,zh2x_2_ezhe.wav,,ezhe.jpg,,,,,,,,,,,,,,,,,,,,,,,,,,,,,,,,,
613cb18edb7eb18d77d8d1e1,2023-06-16_10h15.05.724,phx_ver10,2022.2.5,Win32,60.13952369,,,,,space,0.2942,0,27,27,37,1,38,training,zh2x,i,zh2x_i,zh2x_3_izhi.wav,,izhi.jpg,,,,,,,,,,,,,,,,,,,,,,,,,,,,,,,,,
613cb18edb7eb18d77d8d1e1,2023-06-16_10h15.05.724,phx_ver10,2022.2.5,Win32,60.13952369,,,,,space,0.2509,0,28,28,43,1,44,training,zh2x,i,zh2x_i,zh2x_7_ixi.wav,,ixi.jpg,,,,,,,,,,,,,,,,,,,,,,,,,,,,,,,,,
613cb18edb7eb18d77d8d1e1,2023-06-16_10h15.05.724,phx_ver10,2022.2.5,Win32,60.13952369,,,,,space,0.0842,0,29,29,38,1,39,training,zh2x,i,zh2x_i,zh2x_3_izhi.wav,,izhi.jpg,,,,,,,,,,,,,,,,,,,,,,,,,,,,,,,,,
613cb18edb7eb18d77d8d1e1,2023-06-16_10h15.05.724,phx_ver10,2022.2.5,Win32,60.13952369,,,,,,,,,,,,,attn_test,,,,zh2x_8_axa.wav,zh2x_8_ixi.wav,ixi.jpg,RIGHT,,j,0.1306,space,0.5333,0,0,0,0,1,,,,,,,,,,,,,,,,,,,,,,
613cb18edb7eb18d77d8d1e1,2023-06-16_10h15.05.724,phx_ver10,2022.2.5,Win32,60.13952369,,,,,space,0.2745,0,30,30,47,1,48,training,zh2x,i,zh2x_i,zh2x_8_ixi.wav,,ixi.jpg,,,,,,,,,,,,,,,,,,,,,,,,,,,,,,,,,
613cb18edb7eb18d77d8d1e1,2023-06-16_10h15.05.724,phx_ver10,2022.2.5,Win32,60.13952369,,,,,space,0.2368,0,31,31,33,1,34,training,zh2x,i,zh2x_i,zh2x_2_izhi.wav,,izhi.jpg,,,,,,,,,,,,,,,,,,,,,,,,,,,,,,,,,
613cb18edb7eb18d77d8d1e1,2023-06-16_10h15.05.724,phx_ver10,2022.2.5,Win32,60.13952369,,,,,space,0.1172,0,32,32,13,1,14,training,zh2x,a,zh2x_a,zh2x_7_axa.wav,,axa.jpg,,,,,,,,,,,,,,,,,,,,,,,,,,,,,,,,,
613cb18edb7eb18d77d8d1e1,2023-06-16_10h15.05.724,phx_ver10,2022.2.5,Win32,60.13952369,,,,,space,0.2418,0,33,33,32,1,33,training,zh2x,i,zh2x_i,zh2x_1_izhi.wav,,izhi.jpg,,,,,,,,,,,,,,,,,,,,,,,,,,,,,,,,,
613cb18edb7eb18d77d8d1e1,2023-06-16_10h15.05.724,phx_ver10,2022.2.5,Win32,60.13952369,,,,,space,0.1173,0,34,34,14,1,15,training,zh2x,a,zh2x_a,zh2x_7_axa.wav,,axa.jpg,,,,,,,,,,,,,,,,,,,,,,,,,,,,,,,,,
613cb18edb7eb18d77d8d1e1,2023-06-16_10h15.05.724,phx_ver10,2022.2.5,Win32,60.13952369,,,,,space,0.0251,0,35,35,29,1,30,training,zh2x,e,zh2x_e,zh2x_7_exe.wav,,exe.jpg,,,,,,,,,,,,,,,,,,,,,,,,,,,,,,,,,
613cb18edb7eb18d77d8d1e1,2023-06-16_10h15.05.724,phx_ver10,2022.2.5,Win32,60.13952369,,,,,,,,,,,,,attn_test,,,,zh2x_1_ezhe.wav,zh2x_1_izhi.wav,izhi.jpg,RIGHT,,f,0.0709,space,0.4362,0,0,0,0,1,,,,,,,,,,,,,,,,,,,,,,
613cb18edb7eb18d77d8d1e1,2023-06-16_10h15.05.724,phx_ver10,2022.2.5,Win32,60.13952369,,,,,space,0.0048,0,36,36,40,1,41,training,zh2x,i,zh2x_i,zh2x_5_ixi.wav,,ixi.jpg,,,,,,,,,,,,,,,,,,,,,,,,,,,,,,,,,
613cb18edb7eb18d77d8d1e1,2023-06-16_10h15.05.724,phx_ver10,2022.2.5,Win32,60.13952369,,,,,space,0.0176,0,37,37,12,1,13,training,zh2x,a,zh2x_a,zh2x_7_axa.wav,,axa.jpg,,,,,,,,,,,,,,,,,,,,,,,,,,,,,,,,,
613cb18edb7eb18d77d8d1e1,2023-06-16_10h15.05.724,phx_ver10,2022.2.5,Win32,60.13952369,,,,,space,0.0979,0,38,38,36,1,37,training,zh2x,i,zh2x_i,zh2x_2_izhi.wav,,izhi.jpg,,,,,,,,,,,,,,,,,,,,,,,,,,,,,,,,,
613cb18edb7eb18d77d8d1e1,2023-06-16_10h15.05.724,phx_ver10,2022.2.5,Win32,60.13952369,,,,,space,0.2311,0,39,39,21,1,22,training,zh2x,e,zh2x_e,zh2x_3_ezhe.wav,,ezhe.jpg,,,,,,,,,,,,,,,,,,,,,,,,,,,,,,,,,
613cb18edb7eb18d77d8d1e1,2023-06-16_10h15.05.724,phx_ver10,2022.2.5,Win32,60.13952369,,,,,space,0.2912,0,40,40,39,1,40,training,zh2x,i,zh2x_i,zh2x_4_izhi.wav,,izhi.jpg,,,,,,,,,,,,,,,,,,,,,,,,,,,,,,,,,
613cb18edb7eb18d77d8d1e1,2023-06-16_10h15.05.724,phx_ver10,2022.2.5,Win32,60.13952369,,,,,space,0.1225,0,41,41,1,1,2,training,zh2x,a,zh2x_a,zh2x_2_azha.wav,,azha.jpg,,,,,,,,,,,,,,,,,,,,,,,,,,,,,,,,,
613cb18edb7eb18d77d8d1e1,2023-06-16_10h15.05.724,phx_ver10,2022.2.5,Win32,60.13952369,,,,,,,,,,,,,attn_test,,,,zh2x_1_azha.wav,zh2x_1_izhi.wav,azha.jpg,LEFT,,f,0.4508,space,0.9535,0,0,0,0,1,,,,,,,,,,,,,,,,,,,,,,
613cb18edb7eb18d77d8d1e1,2023-06-16_10h15.05.724,phx_ver10,2022.2.5,Win32,60.13952369,,,,,space,0.2306,0,42,42,23,1,24,training,zh2x,e,zh2x_e,zh2x_4_ezhe.wav,,ezhe.jpg,,,,,,,,,,,,,,,,,,,,,,,,,,,,,,,,,
613cb18edb7eb18d77d8d1e1,2023-06-16_10h15.05.724,phx_ver10,2022.2.5,Win32,60.13952369,,,,,space,0.0547,0,43,43,34,1,35,training,zh2x,i,zh2x_i,zh2x_2_izhi.wav,,izhi.jpg,,,,,,,,,,,,,,,,,,,,,,,,,,,,,,,,,
613cb18edb7eb18d77d8d1e1,2023-06-16_10h15.05.724,phx_ver10,2022.2.5,Win32,60.13952369,,,,,space,0.1601,0,44,44,3,1,4,training,zh2x,a,zh2x_a,zh2x_2_azha.wav,,azha.jpg,,,,,,,,,,,,,,,,,,,,,,,,,,,,,,,,,
613cb18edb7eb18d77d8d1e1,2023-06-16_10h15.05.724,phx_ver10,2022.2.5,Win32,60.13952369,,,,,space,0.2503,0,45,45,27,1,28,training,zh2x,e,zh2x_e,zh2x_7_exe.wav,,exe.jpg,,,,,,,,,,,,,,,,,,,,,,,,,,,,,,,,,
613cb18edb7eb18d77d8d1e1,2023-06-16_10h15.05.724,phx_ver10,2022.2.5,Win32,60.13952369,,,,,space,0.3416,0,46,46,6,1,7,training,zh2x,a,zh2x_a,zh2x_3_azha.wav,,azha.jpg,,,,,,,,,,,,,,,,,,,,,,,,,,,,,,,,,
613cb18edb7eb18d77d8d1e1,2023-06-16_10h15.05.724,phx_ver10,2022.2.5,Win32,60.13952369,,,,,space,0.4408,0,47,47,24,1,25,training,zh2x,e,zh2x_e,zh2x_5_exe.wav,,exe.jpg,,,,,,,,,,,,,,,,,,,,,,,,,,,,,,,,,
613cb18edb7eb18d77d8d1e1,2023-06-16_10h15.05.724,phx_ver10,2022.2.5,Win32,60.13952369,,,,,,,,,,,,,attn_test,,,,zh2x_1_ezhe.wav,zh2x_8_ixi.wav,ezhe.jpg,LEFT,,j,0.6179,space,5.0048,,,,,,,,,,,,,,,,,,,,,,,,,,,
613cb18edb7eb18d77d8d1e1,2023-06-16_10h15.05.724,phx_ver10,2022.2.5,Win32,60.13952369,,,,,,,,,,,,,,,,,,,,,,,,,,,,,,,space,3.7981,,,,,,,,,,,,,,,,,,,,
613cb18edb7eb18d77d8d1e1,2023-06-16_10h15.05.724,phx_ver10,2022.2.5,Win32,60.13952369,,,,,,,,,,,,,,,,,,,,,,,,,,,,,,,,,space,12.1945,,,,,,,,,,,,,,,,,,
613cb18edb7eb18d77d8d1e1,2023-06-16_10h15.05.724,phx_ver10,2022.2.5,Win32,60.13952369,,,,,,,,,,,,5,testing_pre,,,,ihi.wav,ifi.wav,,FALSE,,,,,,,,,,,,,,,f,2.7434,space,4.1836,0,0,0,4,1,,,,,,,,,
613cb18edb7eb18d77d8d1e1,2023-06-16_10h15.05.724,phx_ver10,2022.2.5,Win32,60.13952369,,,,,,,,,,,,4,testing_pre,,,,eihei.wav,eihei.wav,,TRUE,,,,,,,,,,,,,,,f,0.084,space,0.4587,0,1,1,3,1,,,,,,,,,
613cb18edb7eb18d77d8d1e1,2023-06-16_10h15.05.724,phx_ver10,2022.2.5,Win32,60.13952369,,,,,,,,,,,,2,testing_pre,,,,auhau.wav,aufau.wav,,FALSE,,,,,,,,,,,,,,,f,1.5368,space,1.8837,0,2,2,1,1,,,,,,,,,
613cb18edb7eb18d77d8d1e1,2023-06-16_10h15.05.724,phx_ver10,2022.2.5,Win32,60.13952369,,,,,,,,,,,,1,testing_pre,,,,ifi.wav,ifi.wav,,TRUE,,,,,,,,,,,,,,,f,0.3004,space,0.6201,0,3,3,0,1,,,,,,,,,
613cb18edb7eb18d77d8d1e1,2023-06-16_10h15.05.724,phx_ver10,2022.2.5,Win32,60.13952369,,,,,,,,,,,,3,testing_pre,,,,afa.wav,aha.wav,,FALSE,,,,,,,,,,,,,,,f,0.3101,space,0.5381,0,4,4,2,1,,,,,,,,,
613cb18edb7eb18d77d8d1e1,2023-06-16_10h15.05.724,phx_ver10,2022.2.5,Win32,60.13952369,,,,,,,,,,,,,,,,,,,,,,,,,,,,,,,,,,,,,,,,,,,,space,0.4677,,,,,,,
613cb18edb7eb18d77d8d1e1,2023-06-16_10h15.05.724,phx_ver10,2022.2.5,Win32,60.13952369,,,,,,,,,,,,14,testing_2,zh2x,ai,zh2x_ai,zh2x_8_aixai.wav,zh2x_8_aixai.wav,,TRUE,FALSE,,,,,,,,,,,,,,f,0.3095,space,0.5313,,,,,,,,0,0,0,13,1,,
613cb18edb7eb18d77d8d1e1,2023-06-16_10h15.05.724,phx_ver10,2022.2.5,Win32,60.13952369,,,,,,,,,,,,47,testing_3,zh2sh,i,zh2sh_i,zh2sh_1_izhi.wav,zh2sh_8_ishi.wav,,FALSE,FALSE,,,,,,,,,,,,,,f,0.5001,space,0.6173,,,,,,,,0,1,1,46,1,,
613cb18edb7eb18d77d8d1e1,2023-06-16_10h15.05.724,phx_ver10,2022.2.5,Win32,60.13952369,,,,,,,,,,,,93,testing_3,j2x,i,j2x_i,j2x_1_iji.wav,j2x_1_iji.wav,,TRUE,FALSE,,,,,,,,,,,,,,f,0.3843,space,0.4842,,,,,,,,0,2,2,92,1,,
613cb18edb7eb18d77d8d1e1,2023-06-16_10h15.05.724,phx_ver10,2022.2.5,Win32,60.13952369,,,,,,,,,,,,86,testing_3,j2x,e,j2x_e,j2x_8_exe.wav,j2x_8_exe.wav,,TRUE,FALSE,,,,,,,,,,,,,,f,0.0509,space,0.4007,,,,,,,,0,3,3,85,1,,
613cb18edb7eb18d77d8d1e1,2023-06-16_10h15.05.724,phx_ver10,2022.2.5,Win32,60.13952369,,,,,,,,,,,,77,testing_3,j2x,ai,j2x_ai,j2x_1_aijai.wav,j2x_1_aijai.wav,,TRUE,FALSE,,,,,,,,,,,,,,,,space,0.4178,,,,,,,,0,4,4,76,1,,
613cb18edb7eb18d77d8d1e1,2023-06-16_10h15.05.724,phx_ver10,2022.2.5,Win32,60.13952369,,,,,,,,,,,,109,testing_3,sh2x,e,sh2x_e,sh2x_1_eshe.wav,sh2x_1_eshe.wav,,TRUE,FALSE,,,,,,,,,,,,,,f,1.8665,space,2.0431,,,,,,,,0,5,5,108,1,,
613cb18edb7eb18d77d8d1e1,2023-06-16_10h15.05.724,phx_ver10,2022.2.5,Win32,60.13952369,,,,,,,,,,,,12,testing_1,zh2x,i,zh2x_i,zh2x_8_ixi.wav,zh2x_1_izhi.wav,,FALSE,TRUE,,,,,,,,,,,,,,f,0.221,space,0.2679,,,,,,,,0,6,6,11,1,,
613cb18edb7eb18d77d8d1e1,2023-06-16_10h15.05.724,phx_ver10,2022.2.5,Win32,60.13952369,,,,,,,,,,,,127,testing_3,sh2j,ai,sh2j_ai,sh2j_1_aishai.wav,sh2j_8_aijai.wav,,FALSE,FALSE,,,,,,,,,,,,,,f,0.2044,space,0.551,,,,,,,,0,7,7,126,1,,
613cb18edb7eb18d77d8d1e1,2023-06-16_10h15.05.724,phx_ver10,2022.2.5,Win32,60.13952369,,,,,,,,,,,,25,testing_3,zh2sh,a,zh2sh_a,zh2sh_1_azha.wav,zh2sh_1_azha.wav,,TRUE,FALSE,,,,,,,,,,,,,,f,1.3392,space,1.9342,,,,,,,,0,8,8,24,1,,
613cb18edb7eb18d77d8d1e1,2023-06-16_10h15.05.724,phx_ver10,2022.2.5,Win32,60.13952369,,,,,,,,,,,,13,testing_2,zh2x,ai,zh2x_ai,zh2x_1_aizhai.wav,zh2x_1_aizhai.wav,,TRUE,FALSE,,,,,,,,,,,,,,f,0.1167,space,0.3751,,,,,,,,0,9,9,12,1,,
613cb18edb7eb18d77d8d1e1,2023-06-16_10h15.05.724,phx_ver10,2022.2.5,Win32,60.13952369,,,,,,,,,,,,84,testing_3,j2x,au,j2x_au,j2x_8_auxau.wav,j2x_1_aujau.wav,,FALSE,FALSE,,,,,,,,,,,,,,f,1.9734,space,2.0502,,,,,,,,0,10,10,83,1,,
613cb18edb7eb18d77d8d1e1,2023-06-16_10h15.05.724,phx_ver10,2022.2.5,Win32,60.13952369,,,,,,,,,,,,48,testing_3,zh2sh,i,zh2sh_i,zh2sh_8_ishi.wav,zh2sh_1_izhi.wav,,FALSE,FALSE,,,,,,,,,,,,,,f,1.2894,space,1.3165,,,,,,,,0,11,11,47,1,,
613cb18edb7eb18d77d8d1e1,2023-06-16_10h15.05.724,phx_ver10,2022.2.5,Win32,60.13952369,,,,,,,,,,,,113,testing_3,sh2x,ei,sh2x_ei,sh2x_1_eishei.wav,sh2x_1_eishei.wav,,TRUE,FALSE,,,,,,,,,,,,,,j,0.2841,space,0.5171,,,,,,,,0,12,12,112,1,,
613cb18edb7eb18d77d8d1e1,2023-06-16_10h15.05.724,phx_ver10,2022.2.5,Win32,60.13952369,,,,,,,,,,,,61,testing_3,zh2j,e,zh2j_e,zh2j_1_ezhe.wav,zh2j_1_ezhe.wav,,TRUE,FALSE,,,,,,,,,,,,,,f,0.3847,space,0.6507,,,,,,,,0,13,13,60,1,,
613cb18edb7eb18d77d8d1e1,2023-06-16_10h15.05.724,phx_ver10,2022.2.5,Win32,60.13952369,,,,,,,,,,,,36,testing_3,zh2sh,au,zh2sh_au,zh2sh_8_aushau.wav,zh2sh_1_auzhau.wav,,FALSE,FALSE,,,,,,,,,,,,,,j,0.3727,space,0.6838,,,,,,,,0,14,14,35,1,,
613cb18edb7eb18d77d8d1e1,2023-06-16_10h15.05.724,phx_ver10,2022.2.5,Win32,60.13952369,,,,,,,,,,,,96,testing_3,j2x,i,j2x_i,j2x_8_ixi.wav,j2x_1_iji.wav,,FALSE,FALSE,,,,,,,,,,,,,,f,0.2675,space,0.5673,,,,,,,,0,15,15,95,1,,
613cb18edb7eb18d77d8d1e1,2023-06-16_10h15.05.724,phx_ver10,2022.2.5,Win32,60.13952369,,,,,,,,,,,,23,testing_2,zh2x,ei,zh2x_ei,zh2x_1_eizhei.wav,zh2x_8_eixei.wav,,FALSE,FALSE,,,,,,,,,,,,,,f,0.2552,space,0.4068,,,,,,,,0,16,16,22,1,,
613cb18edb7eb18d77d8d1e1,2023-06-16_10h15.05.724,phx_ver10,2022.2.5,Win32,60.13952369,,,,,,,,,,,,43,testing_3,zh2sh,ei,zh2sh_ei,zh2sh_1_eizhei.wav,zh2sh_8_eishei.wav,,FALSE,FALSE,,,,,,,,,,,,,,j,0.5504,space,0.6006,,,,,,,,0,17,17,42,1,,
613cb18edb7eb18d77d8d1e1,2023-06-16_10h15.05.724,phx_ver10,2022.2.5,Win32,60.13952369,,,,,,,,,,,,107,testing_3,sh2x,au,sh2x_au,sh2x_1_aushau.wav,sh2x_8_auxau.wav,,FALSE,FALSE,,,,,,,,,,,,,,f,0.5609,space,1.3525,,,,,,,,0,18,18,106,1,,
613cb18edb7eb18d77d8d1e1,2023-06-16_10h15.05.724,phx_ver10,2022.2.5,Win32,60.13952369,,,,,,,,,,,,119,testing_3,sh2x,i,sh2x_i,sh2x_1_ishi.wav,sh2x_8_ixi.wav,,FALSE,FALSE,,,,,,,,,,,,,,f,0.8337,space,1.0505,,,,,,,,0,19,19,118,1,,
613cb18edb7eb18d77d8d1e1,2023-06-16_10h15.05.724,phx_ver10,2022.2.5,Win32,60.13952369,,,,,,,,,,,,67,testing_3,zh2j,ei,zh2j_ei,zh2j_1_eizhei.wav,zh2j_8_eijei.wav,,FALSE,FALSE,,,,,,,,,,,,,,f,0.2338,space,0.4675,,,,,,,,0,20,20,66,1,,
613cb18edb7eb18d77d8d1e1,2023-06-16_10h15.05.724,phx_ver10,2022.2.5,Win32,60.13952369,,,,,,,,,,,,60,testing_3,zh2j,au,zh2j_au,zh2j_8_aujau.wav,zh2j_1_auzhau.wav,,FALSE,FALSE,,,,,,,,,,,,,,f,1.0512,space,1.1506,,,,,,,,0,21,21,59,1,,
613cb18edb7eb18d77d8d1e1,2023-06-16_10h15.05.724,phx_ver10,2022.2.5,Win32,60.13952369,,,,,,,,,,,,59,testing_3,zh2j,au,zh2j_au,zh2j_1_auzhau.wav,zh2j_8_aujau.wav,,FALSE,FALSE,,,,,,,,,,,,,,f,0.2016,space,0.3014,,,,,,,,0,22,22,58,1,,
613cb18edb7eb18d77d8d1e1,2023-06-16_10h15.05.724,phx_ver10,2022.2.5,Win32,60.13952369,,,,,,,,,,,,142,testing_3,sh2j,i,sh2j_i,sh2j_8_iji.wav,sh2j_8_iji.wav,,TRUE,FALSE,,,,,,,,,,,,,,f,0.3199,space,1.2507,,,,,,,,0,23,23,141,1,,
613cb18edb7eb18d77d8d1e1,2023-06-16_10h15.05.724,phx_ver10,2022.2.5,Win32,60.13952369,,,,,,,,,,,,32,testing_3,zh2sh,ai,zh2sh_ai,zh2sh_8_aishai.wav,zh2sh_1_aizhai.wav,,FALSE,FALSE,,,,,,,,,,,,,,j,0.0895,space,0.1668,,,,,,,,0,24,24,31,1,,
613cb18edb7eb18d77d8d1e1,2023-06-16_10h15.05.724,phx_ver10,2022.2.5,Win32,60.13952369,,,,,,,,,,,,28,testing_3,zh2sh,a,zh2sh_a,zh2sh_8_asha.wav,zh2sh_1_azha.wav,,FALSE,FALSE,,,,,,,,,,,,,,f,0.6396,space,1.2399,,,,,,,,0,25,25,27,1,,
613cb18edb7eb18d77d8d1e1,2023-06-16_10h15.05.724,phx_ver10,2022.2.5,Win32,60.13952369,,,,,,,,,,,,52,testing_3,zh2j,a,zh2j_a,zh2j_8_aja.wav,zh2j_1_azha.wav,,FALSE,FALSE,,,,,,,,,,,,,,f,1.9677,space,2.1666,,,,,,,,0,26,26,51,1,,
613cb18edb7eb18d77d8d1e1,2023-06-16_10h15.05.724,phx_ver10,2022.2.5,Win32,60.13952369,,,,,,,,,,,,45,testing_3,zh2sh,i,zh2sh_i,zh2sh_1_izhi.wav,zh2sh_1_izhi.wav,,TRUE,FALSE,,,,,,,,,,,,,,f,0.2887,space,0.6168,,,,,,,,0,27,27,44,1,,
613cb18edb7eb18d77d8d1e1,2023-06-16_10h15.05.724,phx_ver10,2022.2.5,Win32,60.13952369,,,,,,,,,,,,122,testing_3,sh2j,a,sh2j_a,sh2j_8_aja.wav,sh2j_8_aja.wav,,TRUE,FALSE,,,,,,,,,,,,,,j,0.3672,space,0.4341,,,,,,,,0,28,28,121,1,,
613cb18edb7eb18d77d8d1e1,2023-06-16_10h15.05.724,phx_ver10,2022.2.5,Win32,60.13952369,,,,,,,,,,,,99,testing_3,sh2x,a,sh2x_a,sh2x_1_asha.wav,sh2x_8_axa.wav,,FALSE,FALSE,,,,,,,,,,,,,,j,0.4414,space,0.4843,,,,,,,,0,29,29,98,1,,
613cb18edb7eb18d77d8d1e1,2023-06-16_10h15.05.724,phx_ver10,2022.2.5,Win32,60.13952369,,,,,,,,,,,,82,testing_3,j2x,au,j2x_au,j2x_8_auxau.wav,j2x_8_auxau.wav,,TRUE,FALSE,,,,,,,,,,,,,,f,1.067,space,1.6891,,,,,,,,0,30,30,81,1,,
613cb18edb7eb18d77d8d1e1,2023-06-16_10h15.05.724,phx_ver10,2022.2.5,Win32,60.13952369,,,,,,,,,,,,40,testing_3,zh2sh,e,zh2sh_e,zh2sh_8_eshe.wav,zh2sh_1_ezhe.wav,,FALSE,FALSE,,,,,,,,,,,,,,f,0.8513,space,1.1996,,,,,,,,0,31,31,39,1,,
613cb18edb7eb18d77d8d1e1,2023-06-16_10h15.05.724,phx_ver10,2022.2.5,Win32,60.13952369,,,,,,,,,,,,8,testing_1,zh2x,e,zh2x_e,zh2x_8_exe.wav,zh2x_1_ezhe.wav,,FALSE,TRUE,,,,,,,,,,,,,,j,0.1834,space,0.7338,,,,,,,,0,32,32,7,1,,
613cb18edb7eb18d77d8d1e1,2023-06-16_10h15.05.724,phx_ver10,2022.2.5,Win32,60.13952369,,,,,,,,,,,,88,testing_3,j2x,e,j2x_e,j2x_8_exe.wav,j2x_1_eje.wav,,FALSE,FALSE,,,,,,,,,,,,,,j,0.1183,space,0.1933,,,,,,,,0,33,33,87,1,,
613cb18edb7eb18d77d8d1e1,2023-06-16_10h15.05.724,phx_ver10,2022.2.5,Win32,60.13952369,,,,,,,,,,,,24,testing_2,zh2x,ei,zh2x_ei,zh2x_8_eixei.wav,zh2x_1_eizhei.wav,,FALSE,FALSE,,,,,,,,,,,,,,f,0.3332,space,0.4357,,,,,,,,0,34,34,23,1,,
613cb18edb7eb18d77d8d1e1,2023-06-16_10h15.05.724,phx_ver10,2022.2.5,Win32,60.13952369,,,,,,,,,,,,9,testing_1,zh2x,i,zh2x_i,zh2x_1_izhi.wav,zh2x_1_izhi_copy.wav,,TRUE,TRUE,,,,,,,,,,,,,,f,1.0943,space,1.2002,,,,,,,,0,35,35,8,1,,
613cb18edb7eb18d77d8d1e1,2023-06-16_10h15.05.724,phx_ver10,2022.2.5,Win32,60.13952369,,,,,,,,,,,,144,testing_3,sh2j,i,sh2j_i,sh2j_8_iji.wav,sh2j_1_ishi.wav,,FALSE,FALSE,,,,,,,,,,,,,,f,1.2758,space,1.3076,,,,,,,,0,36,36,143,1,,
613cb18edb7eb18d77d8d1e1,2023-06-16_10h15.05.724,phx_ver10,2022.2.5,Win32,60.13952369,,,,,,,,,,,,20,testing_2,zh2x,au,zh2x_au,zh2x_8_auxau.wav,zh2x_1_auzhau.wav,,FALSE,FALSE,,,,,,,,,,,,,,f,0.0009,space,0.0504,,,,,,,,0,37,37,19,1,,
613cb18edb7eb18d77d8d1e1,2023-06-16_10h15.05.724,phx_ver10,2022.2.5,Win32,60.13952369,,,,,,,,,,,,72,testing_3,zh2j,i,zh2j_i,zh2j_8_iji.wav,zh2j_1_izhi.wav,,FALSE,FALSE,,,,,,,,,,,,,,f,0.3051,space,1.3993,,,,,,,,0,38,38,71,1,,
613cb18edb7eb18d77d8d1e1,2023-06-16_10h15.05.724,phx_ver10,2022.2.5,Win32,60.13952369,,,,,,,,,,,,108,testing_3,sh2x,au,sh2x_au,sh2x_8_auxau.wav,sh2x_1_aushau.wav,,FALSE,FALSE,,,,,,,,,,,,,,f,0.3677,space,0.8002,,,,,,,,0,39,39,107,1,,
613cb18edb7eb18d77d8d1e1,2023-06-16_10h15.05.724,phx_ver10,2022.2.5,Win32,60.13952369,,,,,,,,,,,,131,testing_3,sh2j,au,sh2j_au,sh2j_1_aushau.wav,sh2j_8_aujau.wav,,FALSE,FALSE,,,,,,,,,,,,,,f,0.9251,space,1.6375,,,,,,,,0,40,40,130,1,,
613cb18edb7eb18d77d8d1e1,2023-06-16_10h15.05.724,phx_ver10,2022.2.5,Win32,60.13952369,,,,,,,,,,,,11,testing_1,zh2x,i,zh2x_i,zh2x_1_izhi.wav,zh2x_8_ixi.wav,,FALSE,TRUE,,,,,,,,,,,,,,j,0.2504,space,0.6505,,,,,,,,0,41,41,10,1,,
613cb18edb7eb18d77d8d1e1,2023-06-16_10h15.05.724,phx_ver10,2022.2.5,Win32,60.13952369,,,,,,,,,,,,15,testing_2,zh2x,ai,zh2x_ai,zh2x_1_aizhai.wav,zh2x_8_aixai.wav,,FALSE,FALSE,,,,,,,,,,,,,,f,0.3925,space,1.4506,,,,,,,,0,42,42,14,1,,
613cb18edb7eb18d77d8d1e1,2023-06-16_10h15.05.724,phx_ver10,2022.2.5,Win32,60.13952369,,,,,,,,,,,,90,testing_3,j2x,ei,j2x_ei,j2x_8_eixei.wav,j2x_8_eixei.wav,,TRUE,FALSE,,,,,,,,,,,,,,f,0.0092,space,1.9502,,,,,,,,0,43,43,89,1,,
613cb18edb7eb18d77d8d1e1,2023-06-16_10h15.05.724,phx_ver10,2022.2.5,Win32,60.13952369,,,,,,,,,,,,74,testing_3,j2x,a,j2x_a,j2x_8_axa.wav,j2x_8_axa.wav,,TRUE,FALSE,,,,,,,,,,,,,,j,0.151,space,0.3748,,,,,,,,0,44,44,73,1,,
613cb18edb7eb18d77d8d1e1,2023-06-16_10h15.05.724,phx_ver10,2022.2.5,Win32,60.13952369,,,,,,,,,,,,104,testing_3,sh2x,ai,sh2x_ai,sh2x_8_aixai.wav,sh2x_1_aishai.wav,,FALSE,FALSE,,,,,,,,,,,,,,f,1.5335,space,1.5539,,,,,,,,0,45,45,103,1,,
613cb18edb7eb18d77d8d1e1,2023-06-16_10h15.05.724,phx_ver10,2022.2.5,Win32,60.13952369,,,,,,,,,,,,2,testing_1,zh2x,a,zh2x_a,zh2x_8_axa.wav,zh2x_8_axa_copy.wav,,TRUE,TRUE,,,,,,,,,,,,,,f,0.0842,space,0.4499,,,,,,,,0,46,46,1,1,,
613cb18edb7eb18d77d8d1e1,2023-06-16_10h15.05.724,phx_ver10,2022.2.5,Win32,60.13952369,,,,,,,,,,,,100,testing_3,sh2x,a,sh2x_a,sh2x_8_axa.wav,sh2x_1_asha.wav,,FALSE,FALSE,,,,,,,,,,,,,,f,0.1055,space,0.1504,,,,,,,,0,47,47,99,1,,
613cb18edb7eb18d77d8d1e1,2023-06-16_10h15.05.724,phx_ver10,2022.2.5,Win32,60.13952369,,,,,,,,,,,,138,testing_3,sh2j,ei,sh2j_ei,sh2j_8_eijei.wav,sh2j_8_eijei.wav,,TRUE,FALSE,,,,,,,,,,,,,,j,1.8023,space,2.1455,,,,,,,,0,48,48,137,1,,
613cb18edb7eb18d77d8d1e1,2023-06-16_10h15.05.724,phx_ver10,2022.2.5,Win32,60.13952369,,,,,,,,,,,,78,testing_3,j2x,ai,j2x_ai,j2x_8_aixai.wav,j2x_8_aixai.wav,,TRUE,FALSE,,,,,,,,,,,,,,f,0.8396,space,1.4178,,,,,,,,0,49,49,77,1,,
613cb18edb7eb18d77d8d1e1,2023-06-16_10h15.05.724,phx_ver10,2022.2.5,Win32,60.13952369,,,,,,,,,,,,91,testing_3,j2x,ei,j2x_ei,j2x_1_eijei.wav,j2x_8_eixei.wav,,FALSE,FALSE,,,,,,,,,,,,,,j,4.7586,space,4.9673,,,,,,,,0,50,50,90,1,,
613cb18edb7eb18d77d8d1e1,2023-06-16_10h15.05.724,phx_ver10,2022.2.5,Win32,60.13952369,,,,,,,,,,,,80,testing_3,j2x,ai,j2x_ai,j2x_8_aixai.wav,j2x_1_aijai.wav,,FALSE,FALSE,,,,,,,,,,,,,,f,2.2669,space,2.2842,,,,,,,,0,51,51,79,1,,
613cb18edb7eb18d77d8d1e1,2023-06-16_10h15.05.724,phx_ver10,2022.2.5,Win32,60.13952369,,,,,,,,,,,,103,testing_3,sh2x,ai,sh2x_ai,sh2x_1_aishai.wav,sh2x_8_aixai.wav,,FALSE,FALSE,,,,,,,,,,,,,,f,1.6839,space,1.784,,,,,,,,0,52,52,102,1,,
613cb18edb7eb18d77d8d1e1,2023-06-16_10h15.05.724,phx_ver10,2022.2.5,Win32,60.13952369,,,,,,,,,,,,140,testing_3,sh2j,ei,sh2j_ei,sh2j_8_eijei.wav,sh2j_1_eishei.wav,,FALSE,FALSE,,,,,,,,,,,,,,f,0.8844,space,0.9344,,,,,,,,0,53,53,139,1,,
613cb18edb7eb18d77d8d1e1,2023-06-16_10h15.05.724,phx_ver10,2022.2.5,Win32,60.13952369,,,,,,,,,,,,65,testing_3,zh2j,ei,zh2j_ei,zh2j_1_eizhei.wav,zh2j_1_eizhei.wav,,TRUE,FALSE,,,,,,,,,,,,,,f,2.3167,space,2.741,,,,,,,,0,54,54,64,1,,
613cb18edb7eb18d77d8d1e1,2023-06-16_10h15.05.724,phx_ver10,2022.2.5,Win32,60.13952369,,,,,,,,,,,,98,testing_3,sh2x,a,sh2x_a,sh2x_8_axa.wav,sh2x_8_axa.wav,,TRUE,FALSE,,,,,,,,,,,,,,f,0.3834,space,1.2002,,,,,,,,0,55,55,97,1,,
613cb18edb7eb18d77d8d1e1,2023-06-16_10h15.05.724,phx_ver10,2022.2.5,Win32,60.13952369,,,,,,,,,,,,141,testing_3,sh2j,i,sh2j_i,sh2j_1_ishi.wav,sh2j_1_ishi.wav,,TRUE,FALSE,,,,,,,,,,,,,,f,1.1258,space,2.3735,,,,,,,,0,56,56,140,1,,
613cb18edb7eb18d77d8d1e1,2023-06-16_10h15.05.724,phx_ver10,2022.2.5,Win32,60.13952369,,,,,,,,,,,,87,testing_3,j2x,e,j2x_e,j2x_1_eje.wav,j2x_8_exe.wav,,FALSE,FALSE,,,,,,,,,,,,,,f,1.1341,space,1.1501,,,,,,,,0,57,57,86,1,,
613cb18edb7eb18d77d8d1e1,2023-06-16_10h15.05.724,phx_ver10,2022.2.5,Win32,60.13952369,,,,,,,,,,,,42,testing_3,zh2sh,ei,zh2sh_ei,zh2sh_8_eishei.wav,zh2sh_8_eishei.wav,,TRUE,FALSE,,,,,,,,,,,,,,f,0.5401,space,0.784,,,,,,,,0,58,58,41,1,,
613cb18edb7eb18d77d8d1e1,2023-06-16_10h15.05.724,phx_ver10,2022.2.5,Win32,60.13952369,,,,,,,,,,,,81,testing_3,j2x,au,j2x_au,j2x_1_aujau.wav,j2x_1_aujau.wav,,TRUE,FALSE,,,,,,,,,,,,,,f,0.4836,space,0.5232,,,,,,,,0,59,59,80,1,,
613cb18edb7eb18d77d8d1e1,2023-06-16_10h15.05.724,phx_ver10,2022.2.5,Win32,60.13952369,,,,,,,,,,,,111,testing_3,sh2x,e,sh2x_e,sh2x_1_eshe.wav,sh2x_8_exe.wav,,FALSE,FALSE,,,,,,,,,,,,,,f,1.0846,space,1.4836,,,,,,,,0,60,60,110,1,,
613cb18edb7eb18d77d8d1e1,2023-06-16_10h15.05.724,phx_ver10,2022.2.5,Win32,60.13952369,,,,,,,,,,,,6,testing_1,zh2x,e,zh2x_e,zh2x_8_exe.wav,zh2x_8_exe_copy.wav,,TRUE,TRUE,,,,,,,,,,,,,,f,2.0566,space,2.1167,,,,,,,,0,61,61,5,1,,
613cb18edb7eb18d77d8d1e1,2023-06-16_10h15.05.724,phx_ver10,2022.2.5,Win32,60.13952369,,,,,,,,,,,,63,testing_3,zh2j,e,zh2j_e,zh2j_1_ezhe.wav,zh2j_8_eje.wav,,FALSE,FALSE,,,,,,,,,,,,,,,,space,1.7351,,,,,,,,0,62,62,62,1,,
613cb18edb7eb18d77d8d1e1,2023-06-16_10h15.05.724,phx_ver10,2022.2.5,Win32,60.13952369,,,,,,,,,,,,114,testing_3,sh2x,ei,sh2x_ei,sh2x_8_eixei.wav,sh2x_8_eixei.wav,,TRUE,FALSE,,,,,,,,,,,,,,f,0.1985,space,0.2346,,,,,,,,0,63,63,113,1,,
613cb18edb7eb18d77d8d1e1,2023-06-16_10h15.05.724,phx_ver10,2022.2.5,Win32,60.13952369,,,,,,,,,,,,35,testing_3,zh2sh,au,zh2sh_au,zh2sh_1_auzhau.wav,zh2sh_8_aushau.wav,,FALSE,FALSE,,,,,,,,,,,,,,j,0.3174,space,0.5006,,,,,,,,0,64,64,34,1,,
613cb18edb7eb18d77d8d1e1,2023-06-16_10h15.05.724,phx_ver10,2022.2.5,Win32,60.13952369,,,,,,,,,,,,49,testing_3,zh2j,a,zh2j_a,zh2j_1_azha.wav,zh2j_1_azha.wav,,TRUE,FALSE,,,,,,,,,,,,,,f,0.6869,space,1.0233,,,,,,,,0,65,65,48,1,,
613cb18edb7eb18d77d8d1e1,2023-06-16_10h15.05.724,phx_ver10,2022.2.5,Win32,60.13952369,,,,,,,,,,,,50,testing_3,zh2j,a,zh2j_a,zh2j_8_aja.wav,zh2j_8_aja.wav,,TRUE,FALSE,,,,,,,,,,,,,,f,1.017,space,1.0506,,,,,,,,0,66,66,49,1,,
613cb18edb7eb18d77d8d1e1,2023-06-16_10h15.05.724,phx_ver10,2022.2.5,Win32,60.13952369,,,,,,,,,,,,10,testing_1,zh2x,i,zh2x_i,zh2x_8_ixi.wav,zh2x_8_ixi_copy.wav,,TRUE,TRUE,,,,,,,,,,,,,,f,4.867,space,5.0999,,,,,,,,0,67,67,9,1,,
613cb18edb7eb18d77d8d1e1,2023-06-16_10h15.05.724,phx_ver10,2022.2.5,Win32,60.13952369,,,,,,,,,,,,37,testing_3,zh2sh,e,zh2sh_e,zh2sh_1_ezhe.wav,zh2sh_1_ezhe.wav,,TRUE,FALSE,,,,,,,,,,,,,,f,0.1338,space,0.3005,,,,,,,,0,68,68,36,1,,
613cb18edb7eb18d77d8d1e1,2023-06-16_10h15.05.724,phx_ver10,2022.2.5,Win32,60.13952369,,,,,,,,,,,,123,testing_3,sh2j,a,sh2j_a,sh2j_1_asha.wav,sh2j_8_aja.wav,,FALSE,FALSE,,,,,,,,,,,,,,f,2.7,space,4.9989,,,,,,,,0,69,69,122,1,,
613cb18edb7eb18d77d8d1e1,2023-06-16_10h15.05.724,phx_ver10,2022.2.5,Win32,60.13952369,,,,,,,,,,,,46,testing_3,zh2sh,i,zh2sh_i,zh2sh_8_ishi.wav,zh2sh_8_ishi.wav,,TRUE,FALSE,,,,,,,,,,,,,,f,0.6341,space,1.1545,,,,,,,,0,70,70,45,1,,
613cb18edb7eb18d77d8d1e1,2023-06-16_10h15.05.724,phx_ver10,2022.2.5,Win32,60.13952369,,,,,,,,,,,,38,testing_3,zh2sh,e,zh2sh_e,zh2sh_8_eshe.wav,zh2sh_8_eshe.wav,,TRUE,FALSE,,,,,,,,,,,,,,j,0.2267,space,0.538,,,,,,,,0,71,71,37,1,,
613cb18edb7eb18d77d8d1e1,2023-06-16_10h15.05.724,phx_ver10,2022.2.5,Win32,60.13952369,,,,,,,,,,,,128,testing_3,sh2j,ai,sh2j_ai,sh2j_8_aijai.wav,sh2j_1_aishai.wav,,FALSE,FALSE,,,,,,,,,,,,,,f,0.3183,space,0.3813,,,,,,,,0,72,72,127,1,,
613cb18edb7eb18d77d8d1e1,2023-06-16_10h15.05.724,phx_ver10,2022.2.5,Win32,60.13952369,,,,,,,,,,,,94,testing_3,j2x,i,j2x_i,j2x_8_ixi.wav,j2x_8_ixi.wav,,TRUE,FALSE,,,,,,,,,,,,,,f,0.3047,space,0.5841,,,,,,,,0,73,73,93,1,,
613cb18edb7eb18d77d8d1e1,2023-06-16_10h15.05.724,phx_ver10,2022.2.5,Win32,60.13952369,,,,,,,,,,,,31,testing_3,zh2sh,ai,zh2sh_ai,zh2sh_1_aizhai.wav,zh2sh_8_aishai.wav,,FALSE,FALSE,,,,,,,,,,,,,,f,0.0481,space,0.3974,,,,,,,,0,74,74,30,1,,
613cb18edb7eb18d77d8d1e1,2023-06-16_10h15.05.724,phx_ver10,2022.2.5,Win32,60.13952369,,,,,,,,,,,,16,testing_2,zh2x,ai,zh2x_ai,zh2x_8_aixai.wav,zh2x_1_aizhai.wav,,FALSE,FALSE,,,,,,,,,,,,,,f,0.707,space,0.8349,,,,,,,,0,75,75,15,1,,
613cb18edb7eb18d77d8d1e1,2023-06-16_10h15.05.724,phx_ver10,2022.2.5,Win32,60.13952369,,,,,,,,,,,,57,testing_3,zh2j,au,zh2j_au,zh2j_1_auzhau.wav,zh2j_1_auzhau.wav,,TRUE,FALSE,,,,,,,,,,,,,,f,0.1336,space,0.1882,,,,,,,,0,76,76,56,1,,
613cb18edb7eb18d77d8d1e1,2023-06-16_10h15.05.724,phx_ver10,2022.2.5,Win32,60.13952369,,,,,,,,,,,,18,testing_2,zh2x,au,zh2x_au,zh2x_8_auxau.wav,zh2x_8_auxau.wav,,TRUE,FALSE,,,,,,,,,,,,,,f,0.2401,space,0.7368,,,,,,,,0,77,77,17,1,,
613cb18edb7eb18d77d8d1e1,2023-06-16_10h15.05.724,phx_ver10,2022.2.5,Win32,60.13952369,,,,,,,,,,,,136,testing_3,sh2j,e,sh2j_e,sh2j_8_eje.wav,sh2j_1_eshe.wav,,FALSE,FALSE,,,,,,,,,,,,,,f,1.1902,space,1.4506,,,,,,,,0,78,78,135,1,,
613cb18edb7eb18d77d8d1e1,2023-06-16_10h15.05.724,phx_ver10,2022.2.5,Win32,60.13952369,,,,,,,,,,,,118,testing_3,sh2x,i,sh2x_i,sh2x_8_ixi.wav,sh2x_8_ixi.wav,,TRUE,FALSE,,,,,,,,,,,,,,f,1.2548,space,1.4,,,,,,,,0,79,79,117,1,,
613cb18edb7eb18d77d8d1e1,2023-06-16_10h15.05.724,phx_ver10,2022.2.5,Win32,60.13952369,,,,,,,,,,,,44,testing_3,zh2sh,ei,zh2sh_ei,zh2sh_8_eishei.wav,zh2sh_1_eizhei.wav,,FALSE,FALSE,,,,,,,,,,,,,,f,0.1553,space,0.7222,,,,,,,,0,80,80,43,1,,
613cb18edb7eb18d77d8d1e1,2023-06-16_10h15.05.724,phx_ver10,2022.2.5,Win32,60.13952369,,,,,,,,,,,,112,testing_3,sh2x,e,sh2x_e,sh2x_8_exe.wav,sh2x_1_eshe.wav,,FALSE,FALSE,,,,,,,,,,,,,,f,1.2337,space,1.5603,,,,,,,,0,81,81,111,1,,
613cb18edb7eb18d77d8d1e1,2023-06-16_10h15.05.724,phx_ver10,2022.2.5,Win32,60.13952369,,,,,,,,,,,,125,testing_3,sh2j,ai,sh2j_ai,sh2j_1_aishai.wav,sh2j_1_aishai.wav,,TRUE,FALSE,,,,,,,,,,,,,,f,0.4062,space,0.5421,,,,,,,,0,82,82,124,1,,
613cb18edb7eb18d77d8d1e1,2023-06-16_10h15.05.724,phx_ver10,2022.2.5,Win32,60.13952369,,,,,,,,,,,,7,testing_1,zh2x,e,zh2x_e,zh2x_1_ezhe.wav,zh2x_8_exe.wav,,FALSE,TRUE,,,,,,,,,,,,,,f,0.3236,space,0.971,,,,,,,,0,83,83,6,1,,
613cb18edb7eb18d77d8d1e1,2023-06-16_10h15.05.724,phx_ver10,2022.2.5,Win32,60.13952369,,,,,,,,,,,,58,testing_3,zh2j,au,zh2j_au,zh2j_8_aujau.wav,zh2j_8_aujau.wav,,TRUE,FALSE,,,,,,,,,,,,,,j,0.0045,space,0.3006,,,,,,,,0,84,84,57,1,,
613cb18edb7eb18d77d8d1e1,2023-06-16_10h15.05.724,phx_ver10,2022.2.5,Win32,60.13952369,,,,,,,,,,,,135,testing_3,sh2j,e,sh2j_e,sh2j_1_eshe.wav,sh2j_8_eje.wav,,FALSE,FALSE,,,,,,,,,,,,,,f,0.3042,space,0.327,,,,,,,,0,85,85,134,1,,
613cb18edb7eb18d77d8d1e1,2023-06-16_10h15.05.724,phx_ver10,2022.2.5,Win32,60.13952369,,,,,,,,,,,,106,testing_3,sh2x,au,sh2x_au,sh2x_8_auxau.wav,sh2x_8_auxau.wav,,TRUE,FALSE,,,,,,,,,,,,,,f,4.7738,space,4.9033,,,,,,,,0,86,86,105,1,,
613cb18edb7eb18d77d8d1e1,2023-06-16_10h15.05.724,phx_ver10,2022.2.5,Win32,60.13952369,,,,,,,,,,,,75,testing_3,j2x,a,j2x_a,j2x_1_aja.wav,j2x_8_axa.wav,,FALSE,FALSE,,,,,,,,,,,,,,f,0.589,space,1.2009,,,,,,,,0,87,87,74,1,,
613cb18edb7eb18d77d8d1e1,2023-06-16_10h15.05.724,phx_ver10,2022.2.5,Win32,60.13952369,,,,,,,,,,,,117,testing_3,sh2x,i,sh2x_i,sh2x_1_ishi.wav,sh2x_1_ishi.wav,,TRUE,FALSE,,,,,,,,,,,,,,j,0.117,space,0.417,,,,,,,,0,88,88,116,1,,
613cb18edb7eb18d77d8d1e1,2023-06-16_10h15.05.724,phx_ver10,2022.2.5,Win32,60.13952369,,,,,,,,,,,,76,testing_3,j2x,a,j2x_a,j2x_8_axa.wav,j2x_1_aja.wav,,FALSE,FALSE,,,,,,,,,,,,,,f,0.1697,space,0.618,,,,,,,,0,89,89,75,1,,
613cb18edb7eb18d77d8d1e1,2023-06-16_10h15.05.724,phx_ver10,2022.2.5,Win32,60.13952369,,,,,,,,,,,,21,testing_2,zh2x,ei,zh2x_ei,zh2x_1_eizhei.wav,zh2x_1_eizhei.wav,,TRUE,FALSE,,,,,,,,,,,,,,f,0.0777,space,0.3013,,,,,,,,0,90,90,20,1,,
613cb18edb7eb18d77d8d1e1,2023-06-16_10h15.05.724,phx_ver10,2022.2.5,Win32,60.13952369,,,,,,,,,,,,137,testing_3,sh2j,ei,sh2j_ei,sh2j_1_eishei.wav,sh2j_1_eishei.wav,,TRUE,FALSE,,,,,,,,,,,,,,f,0.9171,space,1.181,,,,,,,,0,91,91,136,1,,
613cb18edb7eb18d77d8d1e1,2023-06-16_10h15.05.724,phx_ver10,2022.2.5,Win32,60.13952369,,,,,,,,,,,,68,testing_3,zh2j,ei,zh2j_ei,zh2j_8_eijei.wav,zh2j_1_eizhei.wav,,FALSE,FALSE,,,,,,,,,,,,,,f,0.5206,space,0.5868,,,,,,,,0,92,92,67,1,,
613cb18edb7eb18d77d8d1e1,2023-06-16_10h15.05.724,phx_ver10,2022.2.5,Win32,60.13952369,,,,,,,,,,,,69,testing_3,zh2j,i,zh2j_i,zh2j_1_izhi.wav,zh2j_1_izhi.wav,,TRUE,FALSE,,,,,,,,,,,,,,j,0.5175,space,0.6916,,,,,,,,0,93,93,68,1,,
613cb18edb7eb18d77d8d1e1,2023-06-16_10h15.05.724,phx_ver10,2022.2.5,Win32,60.13952369,,,,,,,,,,,,26,testing_3,zh2sh,a,zh2sh_a,zh2sh_8_asha.wav,zh2sh_8_asha.wav,,TRUE,FALSE,,,,,,,,,,,,,,f,0.0587,space,0.1003,,,,,,,,0,94,94,25,1,,
613cb18edb7eb18d77d8d1e1,2023-06-16_10h15.05.724,phx_ver10,2022.2.5,Win32,60.13952369,,,,,,,,,,,,27,testing_3,zh2sh,a,zh2sh_a,zh2sh_1_azha.wav,zh2sh_8_asha.wav,,FALSE,FALSE,,,,,,,,,,,,,,f,0.1032,space,0.3381,,,,,,,,0,95,95,26,1,,
613cb18edb7eb18d77d8d1e1,2023-06-16_10h15.05.724,phx_ver10,2022.2.5,Win32,60.13952369,,,,,,,,,,,,5,testing_1,zh2x,e,zh2x_e,zh2x_1_ezhe.wav,zh2x_1_ezhe_copy.wav,,TRUE,TRUE,,,,,,,,,,,,,,f,1.1181,space,1.5535,,,,,,,,0,96,96,4,1,,
613cb18edb7eb18d77d8d1e1,2023-06-16_10h15.05.724,phx_ver10,2022.2.5,Win32,60.13952369,,,,,,,,,,,,95,testing_3,j2x,i,j2x_i,j2x_1_iji.wav,j2x_8_ixi.wav,,FALSE,FALSE,,,,,,,,,,,,,,f,0.3019,space,0.5258,,,,,,,,0,97,97,94,1,,
613cb18edb7eb18d77d8d1e1,2023-06-16_10h15.05.724,phx_ver10,2022.2.5,Win32,60.13952369,,,,,,,,,,,,116,testing_3,sh2x,ei,sh2x_ei,sh2x_8_eixei.wav,sh2x_1_eishei.wav,,FALSE,FALSE,,,,,,,,,,,,,,f,0.2837,space,0.4112,,,,,,,,0,98,98,115,1,,
613cb18edb7eb18d77d8d1e1,2023-06-16_10h15.05.724,phx_ver10,2022.2.5,Win32,60.13952369,,,,,,,,,,,,121,testing_3,sh2j,a,sh2j_a,sh2j_1_asha.wav,sh2j_1_asha.wav,,TRUE,FALSE,,,,,,,,,,,,,,f,1.1831,space,1.6298,,,,,,,,0,99,99,120,1,,
613cb18edb7eb18d77d8d1e1,2023-06-16_10h15.05.724,phx_ver10,2022.2.5,Win32,60.13952369,,,,,,,,,,,,102,testing_3,sh2x,ai,sh2x_ai,sh2x_8_aixai.wav,sh2x_8_aixai.wav,,TRUE,FALSE,,,,,,,,,,,,,,f,2.0084,space,2.0336,,,,,,,,0,100,100,101,1,,
613cb18edb7eb18d77d8d1e1,2023-06-16_10h15.05.724,phx_ver10,2022.2.5,Win32,60.13952369,,,,,,,,,,,,130,testing_3,sh2j,au,sh2j_au,sh2j_8_aujau.wav,sh2j_8_aujau.wav,,TRUE,FALSE,,,,,,,,,,,,,,f,1.1862,space,1.2104,,,,,,,,0,101,101,129,1,,
613cb18edb7eb18d77d8d1e1,2023-06-16_10h15.05.724,phx_ver10,2022.2.5,Win32,60.13952369,,,,,,,,,,,,3,testing_1,zh2x,a,zh2x_a,zh2x_1_azha.wav,zh2x_8_axa.wav,,FALSE,TRUE,,,,,,,,,,,,,,j,0.6347,space,1.2832,,,,,,,,0,102,102,2,1,,
613cb18edb7eb18d77d8d1e1,2023-06-16_10h15.05.724,phx_ver10,2022.2.5,Win32,60.13952369,,,,,,,,,,,,133,testing_3,sh2j,e,sh2j_e,sh2j_1_eshe.wav,sh2j_1_eshe.wav,,TRUE,FALSE,,,,,,,,,,,,,,f,0.3345,space,0.5171,,,,,,,,0,103,103,132,1,,
613cb18edb7eb18d77d8d1e1,2023-06-16_10h15.05.724,phx_ver10,2022.2.5,Win32,60.13952369,,,,,,,,,,,,66,testing_3,zh2j,ei,zh2j_ei,zh2j_8_eijei.wav,zh2j_8_eijei.wav,,TRUE,FALSE,,,,,,,,,,,,,,f,0.2372,space,0.2912,,,,,,,,0,104,104,65,1,,
613cb18edb7eb18d77d8d1e1,2023-06-16_10h15.05.724,phx_ver10,2022.2.5,Win32,60.13952369,,,,,,,,,,,,139,testing_3,sh2j,ei,sh2j_ei,sh2j_1_eishei.wav,sh2j_8_eijei.wav,,FALSE,FALSE,,,,,,,,,,,,,,f,0.9678,space,1.2514,,,,,,,,0,105,105,138,1,,
613cb18edb7eb18d77d8d1e1,2023-06-16_10h15.05.724,phx_ver10,2022.2.5,Win32,60.13952369,,,,,,,,,,,,71,testing_3,zh2j,i,zh2j_i,zh2j_1_izhi.wav,zh2j_8_iji.wav,,FALSE,FALSE,,,,,,,,,,,,,,f,2.2702,space,2.5739,,,,,,,,0,106,106,70,1,,
613cb18edb7eb18d77d8d1e1,2023-06-16_10h15.05.724,phx_ver10,2022.2.5,Win32,60.13952369,,,,,,,,,,,,22,testing_2,zh2x,ei,zh2x_ei,zh2x_8_eixei.wav,zh2x_8_eixei.wav,,TRUE,FALSE,,,,,,,,,,,,,,f,5.17,space,5.202,,,,,,,,0,107,107,21,1,,
613cb18edb7eb18d77d8d1e1,2023-06-16_10h15.05.724,phx_ver10,2022.2.5,Win32,60.13952369,,,,,,,,,,,,89,testing_3,j2x,ei,j2x_ei,j2x_1_eijei.wav,j2x_1_eijei.wav,,TRUE,FALSE,,,,,,,,,,,,,,f,0.7894,space,1.087,,,,,,,,0,108,108,88,1,,
613cb18edb7eb18d77d8d1e1,2023-06-16_10h15.05.724,phx_ver10,2022.2.5,Win32,60.13952369,,,,,,,,,,,,79,testing_3,j2x,ai,j2x_ai,j2x_1_aijai.wav,j2x_8_aixai.wav,,FALSE,FALSE,,,,,,,,,,,,,,f,0.3546,space,0.7845,,,,,,,,0,109,109,78,1,,
613cb18edb7eb18d77d8d1e1,2023-06-16_10h15.05.724,phx_ver10,2022.2.5,Win32,60.13952369,,,,,,,,,,,,115,testing_3,sh2x,ei,sh2x_ei,sh2x_1_eishei.wav,sh2x_8_eixei.wav,,FALSE,FALSE,,,,,,,,,,,,,,j,0.2833,space,0.6873,,,,,,,,0,110,110,114,1,,
613cb18edb7eb18d77d8d1e1,2023-06-16_10h15.05.724,phx_ver10,2022.2.5,Win32,60.13952369,,,,,,,,,,,,83,testing_3,j2x,au,j2x_au,j2x_1_aujau.wav,j2x_8_auxau.wav,,FALSE,FALSE,,,,,,,,,,,,,,f,0.5838,space,0.6722,,,,,,,,0,111,111,82,1,,
613cb18edb7eb18d77d8d1e1,2023-06-16_10h15.05.724,phx_ver10,2022.2.5,Win32,60.13952369,,,,,,,,,,,,62,testing_3,zh2j,e,zh2j_e,zh2j_8_eje.wav,zh2j_8_eje.wav,,TRUE,FALSE,,,,,,,,,,,,,,f,0.1374,space,0.4085,,,,,,,,0,112,112,61,1,,
613cb18edb7eb18d77d8d1e1,2023-06-16_10h15.05.724,phx_ver10,2022.2.5,Win32,60.13952369,,,,,,,,,,,,92,testing_3,j2x,ei,j2x_ei,j2x_8_eixei.wav,j2x_1_eijei.wav,,FALSE,FALSE,,,,,,,,,,,,,,f,0.5003,space,0.588,,,,,,,,0,113,113,91,1,,
613cb18edb7eb18d77d8d1e1,2023-06-16_10h15.05.724,phx_ver10,2022.2.5,Win32,60.13952369,,,,,,,,,,,,124,testing_3,sh2j,a,sh2j_a,sh2j_8_aja.wav,sh2j_1_asha.wav,,FALSE,FALSE,,,,,,,,,,,,,,f,2.0143,space,2.1179,,,,,,,,0,114,114,123,1,,
613cb18edb7eb18d77d8d1e1,2023-06-16_10h15.05.724,phx_ver10,2022.2.5,Win32,60.13952369,,,,,,,,,,,,126,testing_3,sh2j,ai,sh2j_ai,sh2j_8_aijai.wav,sh2j_8_aijai.wav,,TRUE,FALSE,,,,,,,,,,,,,,f,1.7353,space,1.7904,,,,,,,,0,115,115,125,1,,
613cb18edb7eb18d77d8d1e1,2023-06-16_10h15.05.724,phx_ver10,2022.2.5,Win32,60.13952369,,,,,,,,,,,,51,testing_3,zh2j,a,zh2j_a,zh2j_1_azha.wav,zh2j_8_aja.wav,,FALSE,FALSE,,,,,,,,,,,,,,j,1.1636,space,1.1908,,,,,,,,0,116,116,50,1,,
613cb18edb7eb18d77d8d1e1,2023-06-16_10h15.05.724,phx_ver10,2022.2.5,Win32,60.13952369,,,,,,,,,,,,30,testing_3,zh2sh,ai,zh2sh_ai,zh2sh_8_aishai.wav,zh2sh_8_aishai.wav,,TRUE,FALSE,,,,,,,,,,,,,,f,0.0058,space,0.2379,,,,,,,,0,117,117,29,1,,
613cb18edb7eb18d77d8d1e1,2023-06-16_10h15.05.724,phx_ver10,2022.2.5,Win32,60.13952369,,,,,,,,,,,,120,testing_3,sh2x,i,sh2x_i,sh2x_8_ixi.wav,sh2x_1_ishi.wav,,FALSE,FALSE,,,,,,,,,,,,,,f,0.7528,space,0.9443,,,,,,,,0,118,118,119,1,,
613cb18edb7eb18d77d8d1e1,2023-06-16_10h15.05.724,phx_ver10,2022.2.5,Win32,60.13952369,,,,,,,,,,,,101,testing_3,sh2x,ai,sh2x_ai,sh2x_1_aishai.wav,sh2x_1_aishai.wav,,TRUE,FALSE,,,,,,,,,,,,,,j,0.8831,space,1.1502,,,,,,,,0,119,119,100,1,,
613cb18edb7eb18d77d8d1e1,2023-06-16_10h15.05.724,phx_ver10,2022.2.5,Win32,60.13952369,,,,,,,,,,,,129,testing_3,sh2j,au,sh2j_au,sh2j_1_aushau.wav,sh2j_1_aushau.wav,,TRUE,FALSE,,,,,,,,,,,,,,f,0.0022,space,0.4869,,,,,,,,0,120,120,128,1,,
613cb18edb7eb18d77d8d1e1,2023-06-16_10h15.05.724,phx_ver10,2022.2.5,Win32,60.13952369,,,,,,,,,,,,1,testing_1,zh2x,a,zh2x_a,zh2x_1_azha.wav,zh2x_1_azha_copy.wav,,TRUE,TRUE,,,,,,,,,,,,,,f,4.3058,space,4.7374,,,,,,,,0,121,121,0,1,,
613cb18edb7eb18d77d8d1e1,2023-06-16_10h15.05.724,phx_ver10,2022.2.5,Win32,60.13952369,,,,,,,,,,,,19,testing_2,zh2x,au,zh2x_au,zh2x_1_auzhau.wav,zh2x_8_auxau.wav,,FALSE,FALSE,,,,,,,,,,,,,,f,4.6568,space,5.0248,,,,,,,,0,122,122,18,1,,
613cb18edb7eb18d77d8d1e1,2023-06-16_10h15.05.724,phx_ver10,2022.2.5,Win32,60.13952369,,,,,,,,,,,,134,testing_3,sh2j,e,sh2j_e,sh2j_8_eje.wav,sh2j_8_eje.wav,,TRUE,FALSE,,,,,,,,,,,,,,f,2.2514,space,2.9171,,,,,,,,0,123,123,133,1,,
613cb18edb7eb18d77d8d1e1,2023-06-16_10h15.05.724,phx_ver10,2022.2.5,Win32,60.13952369,,,,,,,,,,,,17,testing_2,zh2x,au,zh2x_au,zh2x_1_auzhau.wav,zh2x_1_auzhau.wav,,TRUE,FALSE,,,,,,,,,,,,,,j,0.1538,space,0.3213,,,,,,,,0,124,124,16,1,,
613cb18edb7eb18d77d8d1e1,2023-06-16_10h15.05.724,phx_ver10,2022.2.5,Win32,60.13952369,,,,,,,,,,,,64,testing_3,zh2j,e,zh2j_e,zh2j_8_eje.wav,zh2j_1_ezhe.wav,,FALSE,FALSE,,,,,,,,,,,,,,f,0.9678,space,1.32,,,,,,,,0,125,125,63,1,,
613cb18edb7eb18d77d8d1e1,2023-06-16_10h15.05.724,phx_ver10,2022.2.5,Win32,60.13952369,,,,,,,,,,,,53,testing_3,zh2j,ai,zh2j_ai,zh2j_1_aizhai.wav,zh2j_1_aizhai.wav,,TRUE,FALSE,,,,,,,,,,,,,,f,0.991,space,2.3908,,,,,,,,0,126,126,52,1,,
613cb18edb7eb18d77d8d1e1,2023-06-16_10h15.05.724,phx_ver10,2022.2.5,Win32,60.13952369,,,,,,,,,,,,132,testing_3,sh2j,au,sh2j_au,sh2j_8_aujau.wav,sh2j_1_aushau.wav,,FALSE,FALSE,,,,,,,,,,,,,,f,0.9879,space,1.107,,,,,,,,0,127,127,131,1,,
613cb18edb7eb18d77d8d1e1,2023-06-16_10h15.05.724,phx_ver10,2022.2.5,Win32,60.13952369,,,,,,,,,,,,29,testing_3,zh2sh,ai,zh2sh_ai,zh2sh_1_aizhai.wav,zh2sh_1_aizhai.wav,,TRUE,FALSE,,,,,,,,,,,,,,f,1.4833,space,1.8256,,,,,,,,0,128,128,28,1,,
613cb18edb7eb18d77d8d1e1,2023-06-16_10h15.05.724,phx_ver10,2022.2.5,Win32,60.13952369,,,,,,,,,,,,41,testing_3,zh2sh,ei,zh2sh_ei,zh2sh_1_eizhei.wav,zh2sh_1_eizhei.wav,,TRUE,FALSE,,,,,,,,,,,,,,j,0.4366,space,0.5534,,,,,,,,0,129,129,40,1,,
613cb18edb7eb18d77d8d1e1,2023-06-16_10h15.05.724,phx_ver10,2022.2.5,Win32,60.13952369,,,,,,,,,,,,143,testing_3,sh2j,i,sh2j_i,sh2j_1_ishi.wav,sh2j_8_iji.wav,,FALSE,FALSE,,,,,,,,,,,,,,f,0.7706,space,1.1003,,,,,,,,0,130,130,142,1,,
613cb18edb7eb18d77d8d1e1,2023-06-16_10h15.05.724,phx_ver10,2022.2.5,Win32,60.13952369,,,,,,,,,,,,4,testing_1,zh2x,a,zh2x_a,zh2x_8_axa.wav,zh2x_1_azha.wav,,FALSE,TRUE,,,,,,,,,,,,,,f,1.566,space,1.7017,,,,,,,,0,131,131,3,1,,
613cb18edb7eb18d77d8d1e1,2023-06-16_10h15.05.724,phx_ver10,2022.2.5,Win32,60.13952369,,,,,,,,,,,,105,testing_3,sh2x,au,sh2x_au,sh2x_1_aushau.wav,sh2x_1_aushau.wav,,TRUE,FALSE,,,,,,,,,,,,,,f,2.0086,space,2.2503,,,,,,,,0,132,132,104,1,,
613cb18edb7eb18d77d8d1e1,2023-06-16_10h15.05.724,phx_ver10,2022.2.5,Win32,60.13952369,,,,,,,,,,,,73,testing_3,j2x,a,j2x_a,j2x_1_aja.wav,j2x_1_aja.wav,,TRUE,FALSE,,,,,,,,,,,,,,j,0.4636,space,1.9576,,,,,,,,0,133,133,72,1,,
613cb18edb7eb18d77d8d1e1,2023-06-16_10h15.05.724,phx_ver10,2022.2.5,Win32,60.13952369,,,,,,,,,,,,33,testing_3,zh2sh,au,zh2sh_au,zh2sh_1_auzhau.wav,zh2sh_1_auzhau.wav,,TRUE,FALSE,,,,,,,,,,,,,,f,0.1707,space,0.2141,,,,,,,,0,134,134,32,1,,
613cb18edb7eb18d77d8d1e1,2023-06-16_10h15.05.724,phx_ver10,2022.2.5,Win32,60.13952369,,,,,,,,,,,,54,testing_3,zh2j,ai,zh2j_ai,zh2j_8_aijai.wav,zh2j_8_aijai.wav,,TRUE,FALSE,,,,,,,,,,,,,,f,0.1939,space,0.5055,,,,,,,,0,135,135,53,1,,
613cb18edb7eb18d77d8d1e1,2023-06-16_10h15.05.724,phx_ver10,2022.2.5,Win32,60.13952369,,,,,,,,,,,,85,testing_3,j2x,e,j2x_e,j2x_1_eje.wav,j2x_1_eje.wav,,TRUE,FALSE,,,,,,,,,,,,,,f,1.1597,space,1.5527,,,,,,,,0,136,136,84,1,,
613cb18edb7eb18d77d8d1e1,2023-06-16_10h15.05.724,phx_ver10,2022.2.5,Win32,60.13952369,,,,,,,,,,,,34,testing_3,zh2sh,au,zh2sh_au,zh2sh_8_aushau.wav,zh2sh_8_aushau.wav,,TRUE,FALSE,,,,,,,,,,,,,,f,0.4928,space,0.557,,,,,,,,0,137,137,33,1,,
613cb18edb7eb18d77d8d1e1,2023-06-16_10h15.05.724,phx_ver10,2022.2.5,Win32,60.13952369,,,,,,,,,,,,110,testing_3,sh2x,e,sh2x_e,sh2x_8_exe.wav,sh2x_8_exe.wav,,TRUE,FALSE,,,,,,,,,,,,,,f,0.6413,space,1.6017,,,,,,,,0,138,138,109,1,,
613cb18edb7eb18d77d8d1e1,2023-06-16_10h15.05.724,phx_ver10,2022.2.5,Win32,60.13952369,,,,,,,,,,,,56,testing_3,zh2j,ai,zh2j_ai,zh2j_8_aijai.wav,zh2j_1_aizhai.wav,,FALSE,FALSE,,,,,,,,,,,,,,j,1.2504,space,1.2935,,,,,,,,0,139,139,55,1,,
613cb18edb7eb18d77d8d1e1,2023-06-16_10h15.05.724,phx_ver10,2022.2.5,Win32,60.13952369,,,,,,,,,,,,39,testing_3,zh2sh,e,zh2sh_e,zh2sh_1_ezhe.wav,zh2sh_8_eshe.wav,,FALSE,FALSE,,,,,,,,,,,,,,j,0.9,space,1.3051,,,,,,,,0,140,140,38,1,,
613cb18edb7eb18d77d8d1e1,2023-06-16_10h15.05.724,phx_ver10,2022.2.5,Win32,60.13952369,,,,,,,,,,,,97,testing_3,sh2x,a,sh2x_a,sh2x_1_asha.wav,sh2x_1_asha.wav,,TRUE,FALSE,,,,,,,,,,,,,,j,0.1241,space,0.1878,,,,,,,,0,141,141,96,1,,
613cb18edb7eb18d77d8d1e1,2023-06-16_10h15.05.724,phx_ver10,2022.2.5,Win32,60.13952369,,,,,,,,,,,,70,testing_3,zh2j,i,zh2j_i,zh2j_8_iji.wav,zh2j_8_iji.wav,,TRUE,FALSE,,,,,,,,,,,,,,f,4.4395,space,4.8165,,,,,,,,0,142,142,69,1,,
613cb18edb7eb18d77d8d1e1,2023-06-16_10h15.05.724,phx_ver10,2022.2.5,Win32,60.13952369,,,,,,,,,,,,55,testing_3,zh2j,ai,zh2j_ai,zh2j_1_aizhai.wav,zh2j_8_aijai.wav,,FALSE,FALSE,,,,,,,,,,,,,,f,2.684,space,2.7502,,,,,,,,0,143,143,54,1,,
613cb18edb7eb18d77d8d1e1,2023-06-16_10h15.05.724,phx_ver10,2022.2.5,Win32,60.13952369,,,,,,,,,,,,,,,,,,,,,,,,,,,,,,,,,,,,,,,,,,,,,,,,,,,space,4.4317
