participant,date,expName,psychopyVersion,OS,frameRate,space_1.keys,space_1.rt,space_2.keys,space_2.rt,space_train.keys,space_train.rt,training.thisRepN,training.thisTrialN,training.thisN,training.thisIndex,training.ran,token_id,task,continuum,vowel,series,sound_1,sound_2,img,same,trained,FJ_attn.keys,FJ_attn.rt,space_attn.keys,space_attn.rt,if_attn_test.thisRepN,if_attn_test.thisTrialN,if_attn_test.thisN,if_attn_test.thisIndex,if_attn_test.ran,space_trans_1.keys,space_trans_1.rt,space_trans_11.keys,space_trans_11.rt,FJ_test.keys,FJ_test.rt,space_test.keys,space_test.rt,testing_pre.thisRepN,testing_pre.thisTrialN,testing_pre.thisN,testing_pre.thisIndex,testing_pre.ran,space_trans_2.keys,space_trans_2.rt,testing_all.thisRepN,testing_all.thisTrialN,testing_all.thisN,testing_all.thisIndex,testing_all.ran,space_ending.keys,space_ending.rt
614894e91052a368b434202c,2023-06-16_10h01.41.692,phx_ver10,2022.2.5,MacIntel,76.92307692,,,,,,,,,,,,,,,,,,,,,,,,,,,,,,,,,,,,,,,,,,,,,,,,,,,,
614894e91052a368b434202c,2023-06-16_10h01.41.692,phx_ver10,2022.2.5,MacIntel,76.92307692,space,4.458,,,,,,,,,,,,,,,,,,,,,,,,,,,,,,,,,,,,,,,,,,,,,,,,,,
614894e91052a368b434202c,2023-06-16_10h01.41.692,phx_ver10,2022.2.5,MacIntel,76.92307692,,,space,1.537,,,,,,,,,,,,,,,,,,,,,,,,,,,,,,,,,,,,,,,,,,,,,,,,
614894e91052a368b434202c,2023-06-16_10h01.41.692,phx_ver10,2022.2.5,MacIntel,76.92307692,,,,,space,1.383,0,0,0,14,1,15,training,zh2x,a,zh2x_a,zh2x_7_axa.wav,,axa.jpg,,,,,,,,,,,,,,,,,,,,,,,,,,,,,,,,,
614894e91052a368b434202c,2023-06-16_10h01.41.692,phx_ver10,2022.2.5,MacIntel,76.92307692,,,,,space,0.191,0,1,1,45,1,46,training,zh2x,i,zh2x_i,zh2x_7_ixi.wav,,ixi.jpg,,,,,,,,,,,,,,,,,,,,,,,,,,,,,,,,,
614894e91052a368b434202c,2023-06-16_10h01.41.692,phx_ver10,2022.2.5,MacIntel,76.92307692,,,,,space,0.352,0,2,2,27,1,28,training,zh2x,e,zh2x_e,zh2x_7_exe.wav,,exe.jpg,,,,,,,,,,,,,,,,,,,,,,,,,,,,,,,,,
614894e91052a368b434202c,2023-06-16_10h01.41.692,phx_ver10,2022.2.5,MacIntel,76.92307692,,,,,space,0.001,0,3,3,6,1,7,training,zh2x,a,zh2x_a,zh2x_3_azha.wav,,azha.jpg,,,,,,,,,,,,,,,,,,,,,,,,,,,,,,,,,
614894e91052a368b434202c,2023-06-16_10h01.41.692,phx_ver10,2022.2.5,MacIntel,76.92307692,,,,,space,0.341,0,4,4,15,1,16,training,zh2x,a,zh2x_a,zh2x_8_axa.wav,,axa.jpg,,,,,,,,,,,,,,,,,,,,,,,,,,,,,,,,,
614894e91052a368b434202c,2023-06-16_10h01.41.692,phx_ver10,2022.2.5,MacIntel,76.92307692,,,,,space,0.508,0,5,5,43,1,44,training,zh2x,i,zh2x_i,zh2x_7_ixi.wav,,ixi.jpg,,,,,,,,,,,,,,,,,,,,,,,,,,,,,,,,,
614894e91052a368b434202c,2023-06-16_10h01.41.692,phx_ver10,2022.2.5,MacIntel,76.92307692,,,,,,,,,,,,,attn_test,,,,zh2x_1_izhi.wav,zh2x_8_axa.wav,axa.jpg,RIGHT,,j,2.463,space,5.026,0,0,0,0,1,,,,,,,,,,,,,,,,,,,,,,
614894e91052a368b434202c,2023-06-16_10h01.41.692,phx_ver10,2022.2.5,MacIntel,76.92307692,,,,,space,0.728,0,6,6,41,1,42,training,zh2x,i,zh2x_i,zh2x_6_ixi.wav,,ixi.jpg,,,,,,,,,,,,,,,,,,,,,,,,,,,,,,,,,
614894e91052a368b434202c,2023-06-16_10h01.41.692,phx_ver10,2022.2.5,MacIntel,76.92307692,,,,,space,0.964,0,7,7,25,1,26,training,zh2x,e,zh2x_e,zh2x_6_exe.wav,,exe.jpg,,,,,,,,,,,,,,,,,,,,,,,,,,,,,,,,,
614894e91052a368b434202c,2023-06-16_10h01.41.692,phx_ver10,2022.2.5,MacIntel,76.92307692,,,,,space,0.894,0,8,8,44,1,45,training,zh2x,i,zh2x_i,zh2x_7_ixi.wav,,ixi.jpg,,,,,,,,,,,,,,,,,,,,,,,,,,,,,,,,,
614894e91052a368b434202c,2023-06-16_10h01.41.692,phx_ver10,2022.2.5,MacIntel,76.92307692,,,,,space,0.653,0,9,9,21,1,22,training,zh2x,e,zh2x_e,zh2x_3_ezhe.wav,,ezhe.jpg,,,,,,,,,,,,,,,,,,,,,,,,,,,,,,,,,
614894e91052a368b434202c,2023-06-16_10h01.41.692,phx_ver10,2022.2.5,MacIntel,76.92307692,,,,,space,0.495,0,10,10,36,1,37,training,zh2x,i,zh2x_i,zh2x_2_izhi.wav,,izhi.jpg,,,,,,,,,,,,,,,,,,,,,,,,,,,,,,,,,
614894e91052a368b434202c,2023-06-16_10h01.41.692,phx_ver10,2022.2.5,MacIntel,76.92307692,,,,,space,0.812,0,11,11,12,1,13,training,zh2x,a,zh2x_a,zh2x_7_axa.wav,,axa.jpg,,,,,,,,,,,,,,,,,,,,,,,,,,,,,,,,,
614894e91052a368b434202c,2023-06-16_10h01.41.692,phx_ver10,2022.2.5,MacIntel,76.92307692,,,,,,,,,,,,,attn_test,,,,zh2x_8_exe.wav,zh2x_1_izhi.wav,exe.jpg,LEFT,,f,1.136,space,1.574,0,0,0,0,1,,,,,,,,,,,,,,,,,,,,,,
614894e91052a368b434202c,2023-06-16_10h01.41.692,phx_ver10,2022.2.5,MacIntel,76.92307692,,,,,space,0.598,0,12,12,47,1,48,training,zh2x,i,zh2x_i,zh2x_8_ixi.wav,,ixi.jpg,,,,,,,,,,,,,,,,,,,,,,,,,,,,,,,,,
614894e91052a368b434202c,2023-06-16_10h01.41.692,phx_ver10,2022.2.5,MacIntel,76.92307692,,,,,space,0.679,0,13,13,29,1,30,training,zh2x,e,zh2x_e,zh2x_7_exe.wav,,exe.jpg,,,,,,,,,,,,,,,,,,,,,,,,,,,,,,,,,
614894e91052a368b434202c,2023-06-16_10h01.41.692,phx_ver10,2022.2.5,MacIntel,76.92307692,,,,,space,0.043,0,14,14,19,1,20,training,zh2x,e,zh2x_e,zh2x_2_ezhe.wav,,ezhe.jpg,,,,,,,,,,,,,,,,,,,,,,,,,,,,,,,,,
614894e91052a368b434202c,2023-06-16_10h01.41.692,phx_ver10,2022.2.5,MacIntel,76.92307692,,,,,space,0.444,0,15,15,2,1,3,training,zh2x,a,zh2x_a,zh2x_2_azha.wav,,azha.jpg,,,,,,,,,,,,,,,,,,,,,,,,,,,,,,,,,
614894e91052a368b434202c,2023-06-16_10h01.41.692,phx_ver10,2022.2.5,MacIntel,76.92307692,,,,,space,0.001,0,16,16,33,1,34,training,zh2x,i,zh2x_i,zh2x_2_izhi.wav,,izhi.jpg,,,,,,,,,,,,,,,,,,,,,,,,,,,,,,,,,
614894e91052a368b434202c,2023-06-16_10h01.41.692,phx_ver10,2022.2.5,MacIntel,76.92307692,,,,,space,0.492,0,17,17,11,1,12,training,zh2x,a,zh2x_a,zh2x_7_axa.wav,,axa.jpg,,,,,,,,,,,,,,,,,,,,,,,,,,,,,,,,,
614894e91052a368b434202c,2023-06-16_10h01.41.692,phx_ver10,2022.2.5,MacIntel,76.92307692,,,,,,,,,,,,,attn_test,,,,zh2x_8_exe.wav,zh2x_8_axa.wav,axa.jpg,RIGHT,,j,0.389,space,1.004,0,0,0,0,1,,,,,,,,,,,,,,,,,,,,,,
614894e91052a368b434202c,2023-06-16_10h01.41.692,phx_ver10,2022.2.5,MacIntel,76.92307692,,,,,space,0.64,0,18,18,8,1,9,training,zh2x,a,zh2x_a,zh2x_5_axa.wav,,axa.jpg,,,,,,,,,,,,,,,,,,,,,,,,,,,,,,,,,
614894e91052a368b434202c,2023-06-16_10h01.41.692,phx_ver10,2022.2.5,MacIntel,76.92307692,,,,,space,0.175,0,19,19,24,1,25,training,zh2x,e,zh2x_e,zh2x_5_exe.wav,,exe.jpg,,,,,,,,,,,,,,,,,,,,,,,,,,,,,,,,,
614894e91052a368b434202c,2023-06-16_10h01.41.692,phx_ver10,2022.2.5,MacIntel,76.92307692,,,,,space,0.074,0,20,20,46,1,47,training,zh2x,i,zh2x_i,zh2x_7_ixi.wav,,ixi.jpg,,,,,,,,,,,,,,,,,,,,,,,,,,,,,,,,,
614894e91052a368b434202c,2023-06-16_10h01.41.692,phx_ver10,2022.2.5,MacIntel,76.92307692,,,,,space,0.066,0,21,21,40,1,41,training,zh2x,i,zh2x_i,zh2x_5_ixi.wav,,ixi.jpg,,,,,,,,,,,,,,,,,,,,,,,,,,,,,,,,,
614894e91052a368b434202c,2023-06-16_10h01.41.692,phx_ver10,2022.2.5,MacIntel,76.92307692,,,,,space,0.072,0,22,22,31,1,32,training,zh2x,e,zh2x_e,zh2x_8_exe.wav,,exe.jpg,,,,,,,,,,,,,,,,,,,,,,,,,,,,,,,,,
614894e91052a368b434202c,2023-06-16_10h01.41.692,phx_ver10,2022.2.5,MacIntel,76.92307692,,,,,space,0.04,0,23,23,37,1,38,training,zh2x,i,zh2x_i,zh2x_3_izhi.wav,,izhi.jpg,,,,,,,,,,,,,,,,,,,,,,,,,,,,,,,,,
614894e91052a368b434202c,2023-06-16_10h01.41.692,phx_ver10,2022.2.5,MacIntel,76.92307692,,,,,,,,,,,,,attn_test,,,,zh2x_8_ixi.wav,zh2x_8_exe.wav,ixi.jpg,LEFT,,f,1.675,space,2.1,0,0,0,0,1,,,,,,,,,,,,,,,,,,,,,,
614894e91052a368b434202c,2023-06-16_10h01.41.692,phx_ver10,2022.2.5,MacIntel,76.92307692,,,,,space,0.004,0,24,24,7,1,8,training,zh2x,a,zh2x_a,zh2x_4_azha.wav,,azha.jpg,,,,,,,,,,,,,,,,,,,,,,,,,,,,,,,,,
614894e91052a368b434202c,2023-06-16_10h01.41.692,phx_ver10,2022.2.5,MacIntel,76.92307692,,,,,space,0.162,0,25,25,20,1,21,training,zh2x,e,zh2x_e,zh2x_2_ezhe.wav,,ezhe.jpg,,,,,,,,,,,,,,,,,,,,,,,,,,,,,,,,,
614894e91052a368b434202c,2023-06-16_10h01.41.692,phx_ver10,2022.2.5,MacIntel,76.92307692,,,,,space,0.177,0,26,26,10,1,11,training,zh2x,a,zh2x_a,zh2x_6_axa.wav,,axa.jpg,,,,,,,,,,,,,,,,,,,,,,,,,,,,,,,,,
614894e91052a368b434202c,2023-06-16_10h01.41.692,phx_ver10,2022.2.5,MacIntel,76.92307692,,,,,space,0.268,0,27,27,4,1,5,training,zh2x,a,zh2x_a,zh2x_2_azha.wav,,azha.jpg,,,,,,,,,,,,,,,,,,,,,,,,,,,,,,,,,
614894e91052a368b434202c,2023-06-16_10h01.41.692,phx_ver10,2022.2.5,MacIntel,76.92307692,,,,,space,0.19,0,28,28,18,1,19,training,zh2x,e,zh2x_e,zh2x_2_ezhe.wav,,ezhe.jpg,,,,,,,,,,,,,,,,,,,,,,,,,,,,,,,,,
614894e91052a368b434202c,2023-06-16_10h01.41.692,phx_ver10,2022.2.5,MacIntel,76.92307692,,,,,space,0.207,0,29,29,35,1,36,training,zh2x,i,zh2x_i,zh2x_2_izhi.wav,,izhi.jpg,,,,,,,,,,,,,,,,,,,,,,,,,,,,,,,,,
614894e91052a368b434202c,2023-06-16_10h01.41.692,phx_ver10,2022.2.5,MacIntel,76.92307692,,,,,,,,,,,,,attn_test,,,,zh2x_1_ezhe.wav,zh2x_1_azha.wav,ezhe.jpg,LEFT,,j,0.153,space,0.531,0,0,0,0,1,,,,,,,,,,,,,,,,,,,,,,
614894e91052a368b434202c,2023-06-16_10h01.41.692,phx_ver10,2022.2.5,MacIntel,76.92307692,,,,,space,0.013,0,30,30,39,1,40,training,zh2x,i,zh2x_i,zh2x_4_izhi.wav,,izhi.jpg,,,,,,,,,,,,,,,,,,,,,,,,,,,,,,,,,
614894e91052a368b434202c,2023-06-16_10h01.41.692,phx_ver10,2022.2.5,MacIntel,76.92307692,,,,,space,0.11,0,31,31,9,1,10,training,zh2x,a,zh2x_a,zh2x_6_axa.wav,,axa.jpg,,,,,,,,,,,,,,,,,,,,,,,,,,,,,,,,,
614894e91052a368b434202c,2023-06-16_10h01.41.692,phx_ver10,2022.2.5,MacIntel,76.92307692,,,,,space,0.214,0,32,32,28,1,29,training,zh2x,e,zh2x_e,zh2x_7_exe.wav,,exe.jpg,,,,,,,,,,,,,,,,,,,,,,,,,,,,,,,,,
614894e91052a368b434202c,2023-06-16_10h01.41.692,phx_ver10,2022.2.5,MacIntel,76.92307692,,,,,space,0.217,0,33,33,17,1,18,training,zh2x,e,zh2x_e,zh2x_2_ezhe.wav,,ezhe.jpg,,,,,,,,,,,,,,,,,,,,,,,,,,,,,,,,,
614894e91052a368b434202c,2023-06-16_10h01.41.692,phx_ver10,2022.2.5,MacIntel,76.92307692,,,,,space,0.256,0,34,34,5,1,6,training,zh2x,a,zh2x_a,zh2x_3_azha.wav,,azha.jpg,,,,,,,,,,,,,,,,,,,,,,,,,,,,,,,,,
614894e91052a368b434202c,2023-06-16_10h01.41.692,phx_ver10,2022.2.5,MacIntel,76.92307692,,,,,space,0.004,0,35,35,38,1,39,training,zh2x,i,zh2x_i,zh2x_3_izhi.wav,,izhi.jpg,,,,,,,,,,,,,,,,,,,,,,,,,,,,,,,,,
614894e91052a368b434202c,2023-06-16_10h01.41.692,phx_ver10,2022.2.5,MacIntel,76.92307692,,,,,,,,,,,,,attn_test,,,,zh2x_1_ezhe.wav,zh2x_8_axa.wav,ezhe.jpg,LEFT,,f,0.042,space,0.177,0,0,0,0,1,,,,,,,,,,,,,,,,,,,,,,
614894e91052a368b434202c,2023-06-16_10h01.41.692,phx_ver10,2022.2.5,MacIntel,76.92307692,,,,,space,0.707,0,36,36,26,1,27,training,zh2x,e,zh2x_e,zh2x_6_exe.wav,,exe.jpg,,,,,,,,,,,,,,,,,,,,,,,,,,,,,,,,,
614894e91052a368b434202c,2023-06-16_10h01.41.692,phx_ver10,2022.2.5,MacIntel,76.92307692,,,,,space,0.055,0,37,37,22,1,23,training,zh2x,e,zh2x_e,zh2x_3_ezhe.wav,,ezhe.jpg,,,,,,,,,,,,,,,,,,,,,,,,,,,,,,,,,
614894e91052a368b434202c,2023-06-16_10h01.41.692,phx_ver10,2022.2.5,MacIntel,76.92307692,,,,,space,0.847,0,38,38,32,1,33,training,zh2x,i,zh2x_i,zh2x_1_izhi.wav,,izhi.jpg,,,,,,,,,,,,,,,,,,,,,,,,,,,,,,,,,
614894e91052a368b434202c,2023-06-16_10h01.41.692,phx_ver10,2022.2.5,MacIntel,76.92307692,,,,,space,0.033,0,39,39,30,1,31,training,zh2x,e,zh2x_e,zh2x_7_exe.wav,,exe.jpg,,,,,,,,,,,,,,,,,,,,,,,,,,,,,,,,,
614894e91052a368b434202c,2023-06-16_10h01.41.692,phx_ver10,2022.2.5,MacIntel,76.92307692,,,,,space,0.186,0,40,40,34,1,35,training,zh2x,i,zh2x_i,zh2x_2_izhi.wav,,izhi.jpg,,,,,,,,,,,,,,,,,,,,,,,,,,,,,,,,,
614894e91052a368b434202c,2023-06-16_10h01.41.692,phx_ver10,2022.2.5,MacIntel,76.92307692,,,,,space,0.124,0,41,41,13,1,14,training,zh2x,a,zh2x_a,zh2x_7_axa.wav,,axa.jpg,,,,,,,,,,,,,,,,,,,,,,,,,,,,,,,,,
614894e91052a368b434202c,2023-06-16_10h01.41.692,phx_ver10,2022.2.5,MacIntel,76.92307692,,,,,,,,,,,,,attn_test,,,,zh2x_1_azha.wav,zh2x_1_izhi.wav,izhi.jpg,RIGHT,,f,0.135,space,0.676,0,0,0,0,1,,,,,,,,,,,,,,,,,,,,,,
614894e91052a368b434202c,2023-06-16_10h01.41.692,phx_ver10,2022.2.5,MacIntel,76.92307692,,,,,space,0.076,0,42,42,16,1,17,training,zh2x,e,zh2x_e,zh2x_1_ezhe.wav,,ezhe.jpg,,,,,,,,,,,,,,,,,,,,,,,,,,,,,,,,,
614894e91052a368b434202c,2023-06-16_10h01.41.692,phx_ver10,2022.2.5,MacIntel,76.92307692,,,,,space,0.471,0,43,43,1,1,2,training,zh2x,a,zh2x_a,zh2x_2_azha.wav,,azha.jpg,,,,,,,,,,,,,,,,,,,,,,,,,,,,,,,,,
614894e91052a368b434202c,2023-06-16_10h01.41.692,phx_ver10,2022.2.5,MacIntel,76.92307692,,,,,space,0.108,0,44,44,23,1,24,training,zh2x,e,zh2x_e,zh2x_4_ezhe.wav,,ezhe.jpg,,,,,,,,,,,,,,,,,,,,,,,,,,,,,,,,,
614894e91052a368b434202c,2023-06-16_10h01.41.692,phx_ver10,2022.2.5,MacIntel,76.92307692,,,,,space,0.165,0,45,45,0,1,1,training,zh2x,a,zh2x_a,zh2x_1_azha.wav,,azha.jpg,,,,,,,,,,,,,,,,,,,,,,,,,,,,,,,,,
614894e91052a368b434202c,2023-06-16_10h01.41.692,phx_ver10,2022.2.5,MacIntel,76.92307692,,,,,space,0.214,0,46,46,42,1,43,training,zh2x,i,zh2x_i,zh2x_6_ixi.wav,,ixi.jpg,,,,,,,,,,,,,,,,,,,,,,,,,,,,,,,,,
614894e91052a368b434202c,2023-06-16_10h01.41.692,phx_ver10,2022.2.5,MacIntel,76.92307692,,,,,space,0.169,0,47,47,3,1,4,training,zh2x,a,zh2x_a,zh2x_2_azha.wav,,azha.jpg,,,,,,,,,,,,,,,,,,,,,,,,,,,,,,,,,
614894e91052a368b434202c,2023-06-16_10h01.41.692,phx_ver10,2022.2.5,MacIntel,76.92307692,,,,,,,,,,,,,attn_test,,,,zh2x_1_azha.wav,zh2x_1_izhi.wav,azha.jpg,LEFT,,f,0.292,space,0.385,,,,,,,,,,,,,,,,,,,,,,,,,,,
614894e91052a368b434202c,2023-06-16_10h01.41.692,phx_ver10,2022.2.5,MacIntel,76.92307692,,,,,,,,,,,,,,,,,,,,,,,,,,,,,,,space,0.295,,,,,,,,,,,,,,,,,,,,
614894e91052a368b434202c,2023-06-16_10h01.41.692,phx_ver10,2022.2.5,MacIntel,76.92307692,,,,,,,,,,,,,,,,,,,,,,,,,,,,,,,,,space,0.324,,,,,,,,,,,,,,,,,,
614894e91052a368b434202c,2023-06-16_10h01.41.692,phx_ver10,2022.2.5,MacIntel,76.92307692,,,,,,,,,,,,5,testing_pre,,,,ihi.wav,ifi.wav,,FALSE,,,,,,,,,,,,,,,f,0.589,space,2.074,0,0,0,4,1,,,,,,,,,
614894e91052a368b434202c,2023-06-16_10h01.41.692,phx_ver10,2022.2.5,MacIntel,76.92307692,,,,,,,,,,,,1,testing_pre,,,,ifi.wav,ifi.wav,,TRUE,,,,,,,,,,,,,,,f,0.493,space,0.827,0,1,1,0,1,,,,,,,,,
614894e91052a368b434202c,2023-06-16_10h01.41.692,phx_ver10,2022.2.5,MacIntel,76.92307692,,,,,,,,,,,,4,testing_pre,,,,eihei.wav,eihei.wav,,TRUE,,,,,,,,,,,,,,,f,0.14,space,0.347,0,2,2,3,1,,,,,,,,,
614894e91052a368b434202c,2023-06-16_10h01.41.692,phx_ver10,2022.2.5,MacIntel,76.92307692,,,,,,,,,,,,2,testing_pre,,,,auhau.wav,aufau.wav,,FALSE,,,,,,,,,,,,,,,j,0.118,space,0.522,0,3,3,1,1,,,,,,,,,
614894e91052a368b434202c,2023-06-16_10h01.41.692,phx_ver10,2022.2.5,MacIntel,76.92307692,,,,,,,,,,,,3,testing_pre,,,,afa.wav,aha.wav,,FALSE,,,,,,,,,,,,,,,j,0.027,space,0.256,0,4,4,2,1,,,,,,,,,
614894e91052a368b434202c,2023-06-16_10h01.41.692,phx_ver10,2022.2.5,MacIntel,76.92307692,,,,,,,,,,,,,,,,,,,,,,,,,,,,,,,,,,,,,,,,,,,,space,0.627,,,,,,,
614894e91052a368b434202c,2023-06-16_10h01.41.692,phx_ver10,2022.2.5,MacIntel,76.92307692,,,,,,,,,,,,47,testing_3,zh2sh,i,zh2sh_i,zh2sh_1_izhi.wav,zh2sh_8_ishi.wav,,FALSE,FALSE,,,,,,,,,,,,,,j,0.263,space,0.462,,,,,,,,0,0,0,46,1,,
614894e91052a368b434202c,2023-06-16_10h01.41.692,phx_ver10,2022.2.5,MacIntel,76.92307692,,,,,,,,,,,,30,testing_3,zh2sh,ai,zh2sh_ai,zh2sh_8_aishai.wav,zh2sh_8_aishai.wav,,TRUE,FALSE,,,,,,,,,,,,,,f,0.088,space,0.375,,,,,,,,0,1,1,29,1,,
614894e91052a368b434202c,2023-06-16_10h01.41.692,phx_ver10,2022.2.5,MacIntel,76.92307692,,,,,,,,,,,,102,testing_3,sh2x,ai,sh2x_ai,sh2x_8_aixai.wav,sh2x_8_aixai.wav,,TRUE,FALSE,,,,,,,,,,,,,,f,0.028,space,0.23,,,,,,,,0,2,2,101,1,,
614894e91052a368b434202c,2023-06-16_10h01.41.692,phx_ver10,2022.2.5,MacIntel,76.92307692,,,,,,,,,,,,45,testing_3,zh2sh,i,zh2sh_i,zh2sh_1_izhi.wav,zh2sh_1_izhi.wav,,TRUE,FALSE,,,,,,,,,,,,,,f,0.094,space,0.547,,,,,,,,0,3,3,44,1,,
614894e91052a368b434202c,2023-06-16_10h01.41.692,phx_ver10,2022.2.5,MacIntel,76.92307692,,,,,,,,,,,,88,testing_3,j2x,e,j2x_e,j2x_8_exe.wav,j2x_1_eje.wav,,FALSE,FALSE,,,,,,,,,,,,,,f,0.516,space,0.659,,,,,,,,0,4,4,87,1,,
614894e91052a368b434202c,2023-06-16_10h01.41.692,phx_ver10,2022.2.5,MacIntel,76.92307692,,,,,,,,,,,,41,testing_3,zh2sh,ei,zh2sh_ei,zh2sh_1_eizhei.wav,zh2sh_1_eizhei.wav,,TRUE,FALSE,,,,,,,,,,,,,,f,0.001,space,0.227,,,,,,,,0,5,5,40,1,,
614894e91052a368b434202c,2023-06-16_10h01.41.692,phx_ver10,2022.2.5,MacIntel,76.92307692,,,,,,,,,,,,18,testing_2,zh2x,au,zh2x_au,zh2x_8_auxau.wav,zh2x_8_auxau.wav,,TRUE,FALSE,,,,,,,,,,,,,,f,0.086,space,0.71,,,,,,,,0,6,6,17,1,,
614894e91052a368b434202c,2023-06-16_10h01.41.692,phx_ver10,2022.2.5,MacIntel,76.92307692,,,,,,,,,,,,1,testing_1,zh2x,a,zh2x_a,zh2x_1_azha.wav,zh2x_1_azha_copy.wav,,TRUE,TRUE,,,,,,,,,,,,,,f,0.564,space,1.96,,,,,,,,0,7,7,0,1,,
614894e91052a368b434202c,2023-06-16_10h01.41.692,phx_ver10,2022.2.5,MacIntel,76.92307692,,,,,,,,,,,,19,testing_2,zh2x,au,zh2x_au,zh2x_1_auzhau.wav,zh2x_8_auxau.wav,,FALSE,FALSE,,,,,,,,,,,,,,j,0.017,space,0.38,,,,,,,,0,8,8,18,1,,
614894e91052a368b434202c,2023-06-16_10h01.41.692,phx_ver10,2022.2.5,MacIntel,76.92307692,,,,,,,,,,,,121,testing_3,sh2j,a,sh2j_a,sh2j_1_asha.wav,sh2j_1_asha.wav,,TRUE,FALSE,,,,,,,,,,,,,,j,0.282,space,0.585,,,,,,,,0,9,9,120,1,,
614894e91052a368b434202c,2023-06-16_10h01.41.692,phx_ver10,2022.2.5,MacIntel,76.92307692,,,,,,,,,,,,29,testing_3,zh2sh,ai,zh2sh_ai,zh2sh_1_aizhai.wav,zh2sh_1_aizhai.wav,,TRUE,FALSE,,,,,,,,,,,,,,f,0.373,space,0.734,,,,,,,,0,10,10,28,1,,
614894e91052a368b434202c,2023-06-16_10h01.41.692,phx_ver10,2022.2.5,MacIntel,76.92307692,,,,,,,,,,,,110,testing_3,sh2x,e,sh2x_e,sh2x_8_exe.wav,sh2x_8_exe.wav,,TRUE,FALSE,,,,,,,,,,,,,,f,0.015,space,0.321,,,,,,,,0,11,11,109,1,,
614894e91052a368b434202c,2023-06-16_10h01.41.692,phx_ver10,2022.2.5,MacIntel,76.92307692,,,,,,,,,,,,94,testing_3,j2x,i,j2x_i,j2x_8_ixi.wav,j2x_8_ixi.wav,,TRUE,FALSE,,,,,,,,,,,,,,f,0.124,space,0.445,,,,,,,,0,12,12,93,1,,
614894e91052a368b434202c,2023-06-16_10h01.41.692,phx_ver10,2022.2.5,MacIntel,76.92307692,,,,,,,,,,,,66,testing_3,zh2j,ei,zh2j_ei,zh2j_8_eijei.wav,zh2j_8_eijei.wav,,TRUE,FALSE,,,,,,,,,,,,,,f,0.255,space,0.444,,,,,,,,0,13,13,65,1,,
614894e91052a368b434202c,2023-06-16_10h01.41.692,phx_ver10,2022.2.5,MacIntel,76.92307692,,,,,,,,,,,,59,testing_3,zh2j,au,zh2j_au,zh2j_1_auzhau.wav,zh2j_8_aujau.wav,,FALSE,FALSE,,,,,,,,,,,,,,f,0.372,space,0.447,,,,,,,,0,14,14,58,1,,
614894e91052a368b434202c,2023-06-16_10h01.41.692,phx_ver10,2022.2.5,MacIntel,76.92307692,,,,,,,,,,,,69,testing_3,zh2j,i,zh2j_i,zh2j_1_izhi.wav,zh2j_1_izhi.wav,,TRUE,FALSE,,,,,,,,,,,,,,f,0.242,space,0.484,,,,,,,,0,15,15,68,1,,
614894e91052a368b434202c,2023-06-16_10h01.41.692,phx_ver10,2022.2.5,MacIntel,76.92307692,,,,,,,,,,,,73,testing_3,j2x,a,j2x_a,j2x_1_aja.wav,j2x_1_aja.wav,,TRUE,FALSE,,,,,,,,,,,,,,f,0.19,space,0.575,,,,,,,,0,16,16,72,1,,
614894e91052a368b434202c,2023-06-16_10h01.41.692,phx_ver10,2022.2.5,MacIntel,76.92307692,,,,,,,,,,,,63,testing_3,zh2j,e,zh2j_e,zh2j_1_ezhe.wav,zh2j_8_eje.wav,,FALSE,FALSE,,,,,,,,,,,,,,f,0.136,space,1.166,,,,,,,,0,17,17,62,1,,
614894e91052a368b434202c,2023-06-16_10h01.41.692,phx_ver10,2022.2.5,MacIntel,76.92307692,,,,,,,,,,,,98,testing_3,sh2x,a,sh2x_a,sh2x_8_axa.wav,sh2x_8_axa.wav,,TRUE,FALSE,,,,,,,,,,,,,,f,0.273,space,0.538,,,,,,,,0,18,18,97,1,,
614894e91052a368b434202c,2023-06-16_10h01.41.692,phx_ver10,2022.2.5,MacIntel,76.92307692,,,,,,,,,,,,38,testing_3,zh2sh,e,zh2sh_e,zh2sh_8_eshe.wav,zh2sh_8_eshe.wav,,TRUE,FALSE,,,,,,,,,,,,,,f,0.176,space,0.297,,,,,,,,0,19,19,37,1,,
614894e91052a368b434202c,2023-06-16_10h01.41.692,phx_ver10,2022.2.5,MacIntel,76.92307692,,,,,,,,,,,,74,testing_3,j2x,a,j2x_a,j2x_8_axa.wav,j2x_8_axa.wav,,TRUE,FALSE,,,,,,,,,,,,,,f,0.056,space,0.336,,,,,,,,0,20,20,73,1,,
614894e91052a368b434202c,2023-06-16_10h01.41.692,phx_ver10,2022.2.5,MacIntel,76.92307692,,,,,,,,,,,,111,testing_3,sh2x,e,sh2x_e,sh2x_1_eshe.wav,sh2x_8_exe.wav,,FALSE,FALSE,,,,,,,,,,,,,,j,0.087,space,0.377,,,,,,,,0,21,21,110,1,,
614894e91052a368b434202c,2023-06-16_10h01.41.692,phx_ver10,2022.2.5,MacIntel,76.92307692,,,,,,,,,,,,26,testing_3,zh2sh,a,zh2sh_a,zh2sh_8_asha.wav,zh2sh_8_asha.wav,,TRUE,FALSE,,,,,,,,,,,,,,f,0.424,space,1.264,,,,,,,,0,22,22,25,1,,
614894e91052a368b434202c,2023-06-16_10h01.41.692,phx_ver10,2022.2.5,MacIntel,76.92307692,,,,,,,,,,,,137,testing_3,sh2j,ei,sh2j_ei,sh2j_1_eishei.wav,sh2j_1_eishei.wav,,TRUE,FALSE,,,,,,,,,,,,,,f,0.02,space,0.286,,,,,,,,0,23,23,136,1,,
614894e91052a368b434202c,2023-06-16_10h01.41.692,phx_ver10,2022.2.5,MacIntel,76.92307692,,,,,,,,,,,,20,testing_2,zh2x,au,zh2x_au,zh2x_8_auxau.wav,zh2x_1_auzhau.wav,,FALSE,FALSE,,,,,,,,,,,,,,j,0.393,space,0.539,,,,,,,,0,24,24,19,1,,
614894e91052a368b434202c,2023-06-16_10h01.41.692,phx_ver10,2022.2.5,MacIntel,76.92307692,,,,,,,,,,,,43,testing_3,zh2sh,ei,zh2sh_ei,zh2sh_1_eizhei.wav,zh2sh_8_eishei.wav,,FALSE,FALSE,,,,,,,,,,,,,,j,0.242,space,0.539,,,,,,,,0,25,25,42,1,,
614894e91052a368b434202c,2023-06-16_10h01.41.692,phx_ver10,2022.2.5,MacIntel,76.92307692,,,,,,,,,,,,120,testing_3,sh2x,i,sh2x_i,sh2x_8_ixi.wav,sh2x_1_ishi.wav,,FALSE,FALSE,,,,,,,,,,,,,,j,0.254,space,0.416,,,,,,,,0,26,26,119,1,,
614894e91052a368b434202c,2023-06-16_10h01.41.692,phx_ver10,2022.2.5,MacIntel,76.92307692,,,,,,,,,,,,68,testing_3,zh2j,ei,zh2j_ei,zh2j_8_eijei.wav,zh2j_1_eizhei.wav,,FALSE,FALSE,,,,,,,,,,,,,,f,0.258,space,0.445,,,,,,,,0,27,27,67,1,,
614894e91052a368b434202c,2023-06-16_10h01.41.692,phx_ver10,2022.2.5,MacIntel,76.92307692,,,,,,,,,,,,57,testing_3,zh2j,au,zh2j_au,zh2j_1_auzhau.wav,zh2j_1_auzhau.wav,,TRUE,FALSE,,,,,,,,,,,,,,f,0.202,space,0.455,,,,,,,,0,28,28,56,1,,
614894e91052a368b434202c,2023-06-16_10h01.41.692,phx_ver10,2022.2.5,MacIntel,76.92307692,,,,,,,,,,,,109,testing_3,sh2x,e,sh2x_e,sh2x_1_eshe.wav,sh2x_1_eshe.wav,,TRUE,FALSE,,,,,,,,,,,,,,f,0.294,space,0.359,,,,,,,,0,29,29,108,1,,
614894e91052a368b434202c,2023-06-16_10h01.41.692,phx_ver10,2022.2.5,MacIntel,76.92307692,,,,,,,,,,,,10,testing_1,zh2x,i,zh2x_i,zh2x_8_ixi.wav,zh2x_8_ixi_copy.wav,,TRUE,TRUE,,,,,,,,,,,,,,f,0.078,space,0.238,,,,,,,,0,30,30,9,1,,
614894e91052a368b434202c,2023-06-16_10h01.41.692,phx_ver10,2022.2.5,MacIntel,76.92307692,,,,,,,,,,,,62,testing_3,zh2j,e,zh2j_e,zh2j_8_eje.wav,zh2j_8_eje.wav,,TRUE,FALSE,,,,,,,,,,,,,,f,0.248,space,0.602,,,,,,,,0,31,31,61,1,,
614894e91052a368b434202c,2023-06-16_10h01.41.692,phx_ver10,2022.2.5,MacIntel,76.92307692,,,,,,,,,,,,49,testing_3,zh2j,a,zh2j_a,zh2j_1_azha.wav,zh2j_1_azha.wav,,TRUE,FALSE,,,,,,,,,,,,,,f,0.216,space,0.393,,,,,,,,0,32,32,48,1,,
614894e91052a368b434202c,2023-06-16_10h01.41.692,phx_ver10,2022.2.5,MacIntel,76.92307692,,,,,,,,,,,,91,testing_3,j2x,ei,j2x_ei,j2x_1_eijei.wav,j2x_8_eixei.wav,,FALSE,FALSE,,,,,,,,,,,,,,j,0.23,space,0.335,,,,,,,,0,33,33,90,1,,
614894e91052a368b434202c,2023-06-16_10h01.41.692,phx_ver10,2022.2.5,MacIntel,76.92307692,,,,,,,,,,,,104,testing_3,sh2x,ai,sh2x_ai,sh2x_8_aixai.wav,sh2x_1_aishai.wav,,FALSE,FALSE,,,,,,,,,,,,,,f,0.272,space,0.538,,,,,,,,0,34,34,103,1,,
614894e91052a368b434202c,2023-06-16_10h01.41.692,phx_ver10,2022.2.5,MacIntel,76.92307692,,,,,,,,,,,,134,testing_3,sh2j,e,sh2j_e,sh2j_8_eje.wav,sh2j_8_eje.wav,,TRUE,FALSE,,,,,,,,,,,,,,f,0.213,space,0.533,,,,,,,,0,35,35,133,1,,
614894e91052a368b434202c,2023-06-16_10h01.41.692,phx_ver10,2022.2.5,MacIntel,76.92307692,,,,,,,,,,,,138,testing_3,sh2j,ei,sh2j_ei,sh2j_8_eijei.wav,sh2j_8_eijei.wav,,TRUE,FALSE,,,,,,,,,,,,,,f,0.339,space,0.458,,,,,,,,0,36,36,137,1,,
614894e91052a368b434202c,2023-06-16_10h01.41.692,phx_ver10,2022.2.5,MacIntel,76.92307692,,,,,,,,,,,,36,testing_3,zh2sh,au,zh2sh_au,zh2sh_8_aushau.wav,zh2sh_1_auzhau.wav,,FALSE,FALSE,,,,,,,,,,,,,,j,0.786,space,0.883,,,,,,,,0,37,37,35,1,,
614894e91052a368b434202c,2023-06-16_10h01.41.692,phx_ver10,2022.2.5,MacIntel,76.92307692,,,,,,,,,,,,48,testing_3,zh2sh,i,zh2sh_i,zh2sh_8_ishi.wav,zh2sh_1_izhi.wav,,FALSE,FALSE,,,,,,,,,,,,,,j,0.493,space,0.79,,,,,,,,0,38,38,47,1,,
614894e91052a368b434202c,2023-06-16_10h01.41.692,phx_ver10,2022.2.5,MacIntel,76.92307692,,,,,,,,,,,,114,testing_3,sh2x,ei,sh2x_ei,sh2x_8_eixei.wav,sh2x_8_eixei.wav,,TRUE,FALSE,,,,,,,,,,,,,,f,0.696,space,1.033,,,,,,,,0,39,39,113,1,,
614894e91052a368b434202c,2023-06-16_10h01.41.692,phx_ver10,2022.2.5,MacIntel,76.92307692,,,,,,,,,,,,127,testing_3,sh2j,ai,sh2j_ai,sh2j_1_aishai.wav,sh2j_8_aijai.wav,,FALSE,FALSE,,,,,,,,,,,,,,j,0.126,space,0.393,,,,,,,,0,40,40,126,1,,
614894e91052a368b434202c,2023-06-16_10h01.41.692,phx_ver10,2022.2.5,MacIntel,76.92307692,,,,,,,,,,,,142,testing_3,sh2j,i,sh2j_i,sh2j_8_iji.wav,sh2j_8_iji.wav,,TRUE,FALSE,,,,,,,,,,,,,,f,0.044,space,0.355,,,,,,,,0,41,41,141,1,,
614894e91052a368b434202c,2023-06-16_10h01.41.692,phx_ver10,2022.2.5,MacIntel,76.92307692,,,,,,,,,,,,22,testing_2,zh2x,ei,zh2x_ei,zh2x_8_eixei.wav,zh2x_8_eixei.wav,,TRUE,FALSE,,,,,,,,,,,,,,f,0.178,space,0.293,,,,,,,,0,42,42,21,1,,
614894e91052a368b434202c,2023-06-16_10h01.41.692,phx_ver10,2022.2.5,MacIntel,76.92307692,,,,,,,,,,,,60,testing_3,zh2j,au,zh2j_au,zh2j_8_aujau.wav,zh2j_1_auzhau.wav,,FALSE,FALSE,,,,,,,,,,,,,,f,0.225,space,0.348,,,,,,,,0,43,43,59,1,,
614894e91052a368b434202c,2023-06-16_10h01.41.692,phx_ver10,2022.2.5,MacIntel,76.92307692,,,,,,,,,,,,139,testing_3,sh2j,ei,sh2j_ei,sh2j_1_eishei.wav,sh2j_8_eijei.wav,,FALSE,FALSE,,,,,,,,,,,,,,j,0.364,space,0.47,,,,,,,,0,44,44,138,1,,
614894e91052a368b434202c,2023-06-16_10h01.41.692,phx_ver10,2022.2.5,MacIntel,76.92307692,,,,,,,,,,,,28,testing_3,zh2sh,a,zh2sh_a,zh2sh_8_asha.wav,zh2sh_1_azha.wav,,FALSE,FALSE,,,,,,,,,,,,,,j,0.645,space,0.952,,,,,,,,0,45,45,27,1,,
614894e91052a368b434202c,2023-06-16_10h01.41.692,phx_ver10,2022.2.5,MacIntel,76.92307692,,,,,,,,,,,,13,testing_2,zh2x,ai,zh2x_ai,zh2x_1_aizhai.wav,zh2x_1_aizhai.wav,,TRUE,FALSE,,,,,,,,,,,,,,f,0.511,space,0.579,,,,,,,,0,46,46,12,1,,
614894e91052a368b434202c,2023-06-16_10h01.41.692,phx_ver10,2022.2.5,MacIntel,76.92307692,,,,,,,,,,,,123,testing_3,sh2j,a,sh2j_a,sh2j_1_asha.wav,sh2j_8_aja.wav,,FALSE,FALSE,,,,,,,,,,,,,,j,1.189,space,1.458,,,,,,,,0,47,47,122,1,,
614894e91052a368b434202c,2023-06-16_10h01.41.692,phx_ver10,2022.2.5,MacIntel,76.92307692,,,,,,,,,,,,99,testing_3,sh2x,a,sh2x_a,sh2x_1_asha.wav,sh2x_8_axa.wav,,FALSE,FALSE,,,,,,,,,,,,,,j,0.717,space,0.914,,,,,,,,0,48,48,98,1,,
614894e91052a368b434202c,2023-06-16_10h01.41.692,phx_ver10,2022.2.5,MacIntel,76.92307692,,,,,,,,,,,,34,testing_3,zh2sh,au,zh2sh_au,zh2sh_8_aushau.wav,zh2sh_8_aushau.wav,,TRUE,FALSE,,,,,,,,,,,,,,f,0.946,space,1.188,,,,,,,,0,49,49,33,1,,
614894e91052a368b434202c,2023-06-16_10h01.41.692,phx_ver10,2022.2.5,MacIntel,76.92307692,,,,,,,,,,,,144,testing_3,sh2j,i,sh2j_i,sh2j_8_iji.wav,sh2j_1_ishi.wav,,FALSE,FALSE,,,,,,,,,,,,,,f,2.714,space,2.917,,,,,,,,0,50,50,143,1,,
614894e91052a368b434202c,2023-06-16_10h01.41.692,phx_ver10,2022.2.5,MacIntel,76.92307692,,,,,,,,,,,,82,testing_3,j2x,au,j2x_au,j2x_8_auxau.wav,j2x_8_auxau.wav,,TRUE,FALSE,,,,,,,,,,,,,,f,0.121,space,0.336,,,,,,,,0,51,51,81,1,,
614894e91052a368b434202c,2023-06-16_10h01.41.692,phx_ver10,2022.2.5,MacIntel,76.92307692,,,,,,,,,,,,89,testing_3,j2x,ei,j2x_ei,j2x_1_eijei.wav,j2x_1_eijei.wav,,TRUE,FALSE,,,,,,,,,,,,,,f,0.178,space,0.404,,,,,,,,0,52,52,88,1,,
614894e91052a368b434202c,2023-06-16_10h01.41.692,phx_ver10,2022.2.5,MacIntel,76.92307692,,,,,,,,,,,,101,testing_3,sh2x,ai,sh2x_ai,sh2x_1_aishai.wav,sh2x_1_aishai.wav,,TRUE,FALSE,,,,,,,,,,,,,,f,0.229,space,0.319,,,,,,,,0,53,53,100,1,,
614894e91052a368b434202c,2023-06-16_10h01.41.692,phx_ver10,2022.2.5,MacIntel,76.92307692,,,,,,,,,,,,79,testing_3,j2x,ai,j2x_ai,j2x_1_aijai.wav,j2x_8_aixai.wav,,FALSE,FALSE,,,,,,,,,,,,,,j,0.043,space,0.293,,,,,,,,0,54,54,78,1,,
614894e91052a368b434202c,2023-06-16_10h01.41.692,phx_ver10,2022.2.5,MacIntel,76.92307692,,,,,,,,,,,,12,testing_1,zh2x,i,zh2x_i,zh2x_8_ixi.wav,zh2x_1_izhi.wav,,FALSE,TRUE,,,,,,,,,,,,,,j,0.171,space,0.358,,,,,,,,0,55,55,11,1,,
614894e91052a368b434202c,2023-06-16_10h01.41.692,phx_ver10,2022.2.5,MacIntel,76.92307692,,,,,,,,,,,,55,testing_3,zh2j,ai,zh2j_ai,zh2j_1_aizhai.wav,zh2j_8_aijai.wav,,FALSE,FALSE,,,,,,,,,,,,,,f,0.039,space,0.228,,,,,,,,0,56,56,54,1,,
614894e91052a368b434202c,2023-06-16_10h01.41.692,phx_ver10,2022.2.5,MacIntel,76.92307692,,,,,,,,,,,,117,testing_3,sh2x,i,sh2x_i,sh2x_1_ishi.wav,sh2x_1_ishi.wav,,TRUE,FALSE,,,,,,,,,,,,,,f,0.095,space,0.285,,,,,,,,0,57,57,116,1,,
614894e91052a368b434202c,2023-06-16_10h01.41.692,phx_ver10,2022.2.5,MacIntel,76.92307692,,,,,,,,,,,,106,testing_3,sh2x,au,sh2x_au,sh2x_8_auxau.wav,sh2x_8_auxau.wav,,TRUE,FALSE,,,,,,,,,,,,,,f,0.136,space,0.417,,,,,,,,0,58,58,105,1,,
614894e91052a368b434202c,2023-06-16_10h01.41.692,phx_ver10,2022.2.5,MacIntel,76.92307692,,,,,,,,,,,,52,testing_3,zh2j,a,zh2j_a,zh2j_8_aja.wav,zh2j_1_azha.wav,,FALSE,FALSE,,,,,,,,,,,,,,f,0.142,space,0.285,,,,,,,,0,59,59,51,1,,
614894e91052a368b434202c,2023-06-16_10h01.41.692,phx_ver10,2022.2.5,MacIntel,76.92307692,,,,,,,,,,,,130,testing_3,sh2j,au,sh2j_au,sh2j_8_aujau.wav,sh2j_8_aujau.wav,,TRUE,FALSE,,,,,,,,,,,,,,f,0.161,space,0.296,,,,,,,,0,60,60,129,1,,
614894e91052a368b434202c,2023-06-16_10h01.41.692,phx_ver10,2022.2.5,MacIntel,76.92307692,,,,,,,,,,,,39,testing_3,zh2sh,e,zh2sh_e,zh2sh_1_ezhe.wav,zh2sh_8_eshe.wav,,FALSE,FALSE,,,,,,,,,,,,,,j,0.307,space,0.334,,,,,,,,0,61,61,38,1,,
614894e91052a368b434202c,2023-06-16_10h01.41.692,phx_ver10,2022.2.5,MacIntel,76.92307692,,,,,,,,,,,,133,testing_3,sh2j,e,sh2j_e,sh2j_1_eshe.wav,sh2j_1_eshe.wav,,TRUE,FALSE,,,,,,,,,,,,,,f,0.186,space,0.479,,,,,,,,0,62,62,132,1,,
614894e91052a368b434202c,2023-06-16_10h01.41.692,phx_ver10,2022.2.5,MacIntel,76.92307692,,,,,,,,,,,,35,testing_3,zh2sh,au,zh2sh_au,zh2sh_1_auzhau.wav,zh2sh_8_aushau.wav,,FALSE,FALSE,,,,,,,,,,,,,,j,0.186,space,0.362,,,,,,,,0,63,63,34,1,,
614894e91052a368b434202c,2023-06-16_10h01.41.692,phx_ver10,2022.2.5,MacIntel,76.92307692,,,,,,,,,,,,108,testing_3,sh2x,au,sh2x_au,sh2x_8_auxau.wav,sh2x_1_aushau.wav,,FALSE,FALSE,,,,,,,,,,,,,,j,0.057,space,0.281,,,,,,,,0,64,64,107,1,,
614894e91052a368b434202c,2023-06-16_10h01.41.692,phx_ver10,2022.2.5,MacIntel,76.92307692,,,,,,,,,,,,5,testing_1,zh2x,e,zh2x_e,zh2x_1_ezhe.wav,zh2x_1_ezhe_copy.wav,,TRUE,TRUE,,,,,,,,,,,,,,f,0.392,space,0.71,,,,,,,,0,65,65,4,1,,
614894e91052a368b434202c,2023-06-16_10h01.41.692,phx_ver10,2022.2.5,MacIntel,76.92307692,,,,,,,,,,,,129,testing_3,sh2j,au,sh2j_au,sh2j_1_aushau.wav,sh2j_1_aushau.wav,,TRUE,FALSE,,,,,,,,,,,,,,f,0.084,space,0.378,,,,,,,,0,66,66,128,1,,
614894e91052a368b434202c,2023-06-16_10h01.41.692,phx_ver10,2022.2.5,MacIntel,76.92307692,,,,,,,,,,,,24,testing_2,zh2x,ei,zh2x_ei,zh2x_8_eixei.wav,zh2x_1_eizhei.wav,,FALSE,FALSE,,,,,,,,,,,,,,j,0.363,space,0.457,,,,,,,,0,67,67,23,1,,
614894e91052a368b434202c,2023-06-16_10h01.41.692,phx_ver10,2022.2.5,MacIntel,76.92307692,,,,,,,,,,,,37,testing_3,zh2sh,e,zh2sh_e,zh2sh_1_ezhe.wav,zh2sh_1_ezhe.wav,,TRUE,FALSE,,,,,,,,,,,,,,f,0.35,space,0.475,,,,,,,,0,68,68,36,1,,
614894e91052a368b434202c,2023-06-16_10h01.41.692,phx_ver10,2022.2.5,MacIntel,76.92307692,,,,,,,,,,,,65,testing_3,zh2j,ei,zh2j_ei,zh2j_1_eizhei.wav,zh2j_1_eizhei.wav,,TRUE,FALSE,,,,,,,,,,,,,,f,0.279,space,0.376,,,,,,,,0,69,69,64,1,,
614894e91052a368b434202c,2023-06-16_10h01.41.692,phx_ver10,2022.2.5,MacIntel,76.92307692,,,,,,,,,,,,71,testing_3,zh2j,i,zh2j_i,zh2j_1_izhi.wav,zh2j_8_iji.wav,,FALSE,FALSE,,,,,,,,,,,,,,f,0.064,space,0.375,,,,,,,,0,70,70,70,1,,
614894e91052a368b434202c,2023-06-16_10h01.41.692,phx_ver10,2022.2.5,MacIntel,76.92307692,,,,,,,,,,,,4,testing_1,zh2x,a,zh2x_a,zh2x_8_axa.wav,zh2x_1_azha.wav,,FALSE,TRUE,,,,,,,,,,,,,,j,0.234,space,0.311,,,,,,,,0,71,71,3,1,,
614894e91052a368b434202c,2023-06-16_10h01.41.692,phx_ver10,2022.2.5,MacIntel,76.92307692,,,,,,,,,,,,46,testing_3,zh2sh,i,zh2sh_i,zh2sh_8_ishi.wav,zh2sh_8_ishi.wav,,TRUE,FALSE,,,,,,,,,,,,,,f,0.176,space,0.283,,,,,,,,0,72,72,45,1,,
614894e91052a368b434202c,2023-06-16_10h01.41.692,phx_ver10,2022.2.5,MacIntel,76.92307692,,,,,,,,,,,,83,testing_3,j2x,au,j2x_au,j2x_1_aujau.wav,j2x_8_auxau.wav,,FALSE,FALSE,,,,,,,,,,,,,,j,0.12,space,0.296,,,,,,,,0,73,73,82,1,,
614894e91052a368b434202c,2023-06-16_10h01.41.692,phx_ver10,2022.2.5,MacIntel,76.92307692,,,,,,,,,,,,105,testing_3,sh2x,au,sh2x_au,sh2x_1_aushau.wav,sh2x_1_aushau.wav,,TRUE,FALSE,,,,,,,,,,,,,,f,0.389,space,0.625,,,,,,,,0,74,74,104,1,,
614894e91052a368b434202c,2023-06-16_10h01.41.692,phx_ver10,2022.2.5,MacIntel,76.92307692,,,,,,,,,,,,54,testing_3,zh2j,ai,zh2j_ai,zh2j_8_aijai.wav,zh2j_8_aijai.wav,,TRUE,FALSE,,,,,,,,,,,,,,f,0.281,space,0.389,,,,,,,,0,75,75,53,1,,
614894e91052a368b434202c,2023-06-16_10h01.41.692,phx_ver10,2022.2.5,MacIntel,76.92307692,,,,,,,,,,,,122,testing_3,sh2j,a,sh2j_a,sh2j_8_aja.wav,sh2j_8_aja.wav,,TRUE,FALSE,,,,,,,,,,,,,,f,0.106,space,0.215,,,,,,,,0,76,76,121,1,,
614894e91052a368b434202c,2023-06-16_10h01.41.692,phx_ver10,2022.2.5,MacIntel,76.92307692,,,,,,,,,,,,140,testing_3,sh2j,ei,sh2j_ei,sh2j_8_eijei.wav,sh2j_1_eishei.wav,,FALSE,FALSE,,,,,,,,,,,,,,j,0.321,space,0.36,,,,,,,,0,77,77,139,1,,
614894e91052a368b434202c,2023-06-16_10h01.41.692,phx_ver10,2022.2.5,MacIntel,76.92307692,,,,,,,,,,,,113,testing_3,sh2x,ei,sh2x_ei,sh2x_1_eishei.wav,sh2x_1_eishei.wav,,TRUE,FALSE,,,,,,,,,,,,,,f,0.046,space,0.245,,,,,,,,0,78,78,112,1,,
614894e91052a368b434202c,2023-06-16_10h01.41.692,phx_ver10,2022.2.5,MacIntel,76.92307692,,,,,,,,,,,,64,testing_3,zh2j,e,zh2j_e,zh2j_8_eje.wav,zh2j_1_ezhe.wav,,FALSE,FALSE,,,,,,,,,,,,,,f,0.325,space,0.525,,,,,,,,0,79,79,63,1,,
614894e91052a368b434202c,2023-06-16_10h01.41.692,phx_ver10,2022.2.5,MacIntel,76.92307692,,,,,,,,,,,,124,testing_3,sh2j,a,sh2j_a,sh2j_8_aja.wav,sh2j_1_asha.wav,,FALSE,FALSE,,,,,,,,,,,,,,j,0.148,space,0.309,,,,,,,,0,80,80,123,1,,
614894e91052a368b434202c,2023-06-16_10h01.41.692,phx_ver10,2022.2.5,MacIntel,76.92307692,,,,,,,,,,,,81,testing_3,j2x,au,j2x_au,j2x_1_aujau.wav,j2x_1_aujau.wav,,TRUE,FALSE,,,,,,,,,,,,,,f,0.241,space,0.335,,,,,,,,0,81,81,80,1,,
614894e91052a368b434202c,2023-06-16_10h01.41.692,phx_ver10,2022.2.5,MacIntel,76.92307692,,,,,,,,,,,,61,testing_3,zh2j,e,zh2j_e,zh2j_1_ezhe.wav,zh2j_1_ezhe.wav,,TRUE,FALSE,,,,,,,,,,,,,,f,0.252,space,0.364,,,,,,,,0,82,82,60,1,,
614894e91052a368b434202c,2023-06-16_10h01.41.692,phx_ver10,2022.2.5,MacIntel,76.92307692,,,,,,,,,,,,143,testing_3,sh2j,i,sh2j_i,sh2j_1_ishi.wav,sh2j_8_iji.wav,,FALSE,FALSE,,,,,,,,,,,,,,j,0.273,space,0.444,,,,,,,,0,83,83,142,1,,
614894e91052a368b434202c,2023-06-16_10h01.41.692,phx_ver10,2022.2.5,MacIntel,76.92307692,,,,,,,,,,,,23,testing_2,zh2x,ei,zh2x_ei,zh2x_1_eizhei.wav,zh2x_8_eixei.wav,,FALSE,FALSE,,,,,,,,,,,,,,j,0.775,space,0.974,,,,,,,,0,84,84,22,1,,
614894e91052a368b434202c,2023-06-16_10h01.41.692,phx_ver10,2022.2.5,MacIntel,76.92307692,,,,,,,,,,,,50,testing_3,zh2j,a,zh2j_a,zh2j_8_aja.wav,zh2j_8_aja.wav,,TRUE,FALSE,,,,,,,,,,,,,,f,0.459,space,0.631,,,,,,,,0,85,85,49,1,,
614894e91052a368b434202c,2023-06-16_10h01.41.692,phx_ver10,2022.2.5,MacIntel,76.92307692,,,,,,,,,,,,6,testing_1,zh2x,e,zh2x_e,zh2x_8_exe.wav,zh2x_8_exe_copy.wav,,TRUE,TRUE,,,,,,,,,,,,,,f,4.06,space,4.288,,,,,,,,0,86,86,5,1,,
614894e91052a368b434202c,2023-06-16_10h01.41.692,phx_ver10,2022.2.5,MacIntel,76.92307692,,,,,,,,,,,,44,testing_3,zh2sh,ei,zh2sh_ei,zh2sh_8_eishei.wav,zh2sh_1_eizhei.wav,,FALSE,FALSE,,,,,,,,,,,,,,j,0.343,space,0.376,,,,,,,,0,87,87,43,1,,
614894e91052a368b434202c,2023-06-16_10h01.41.692,phx_ver10,2022.2.5,MacIntel,76.92307692,,,,,,,,,,,,125,testing_3,sh2j,ai,sh2j_ai,sh2j_1_aishai.wav,sh2j_1_aishai.wav,,TRUE,FALSE,,,,,,,,,,,,,,f,0.006,space,0.194,,,,,,,,0,88,88,124,1,,
614894e91052a368b434202c,2023-06-16_10h01.41.692,phx_ver10,2022.2.5,MacIntel,76.92307692,,,,,,,,,,,,84,testing_3,j2x,au,j2x_au,j2x_8_auxau.wav,j2x_1_aujau.wav,,FALSE,FALSE,,,,,,,,,,,,,,j,0.56,space,0.666,,,,,,,,0,89,89,83,1,,
614894e91052a368b434202c,2023-06-16_10h01.41.692,phx_ver10,2022.2.5,MacIntel,76.92307692,,,,,,,,,,,,9,testing_1,zh2x,i,zh2x_i,zh2x_1_izhi.wav,zh2x_1_izhi_copy.wav,,TRUE,TRUE,,,,,,,,,,,,,,f,0.176,space,0.508,,,,,,,,0,90,90,8,1,,
614894e91052a368b434202c,2023-06-16_10h01.41.692,phx_ver10,2022.2.5,MacIntel,76.92307692,,,,,,,,,,,,136,testing_3,sh2j,e,sh2j_e,sh2j_8_eje.wav,sh2j_1_eshe.wav,,FALSE,FALSE,,,,,,,,,,,,,,j,0.19,space,0.294,,,,,,,,0,91,91,135,1,,
614894e91052a368b434202c,2023-06-16_10h01.41.692,phx_ver10,2022.2.5,MacIntel,76.92307692,,,,,,,,,,,,107,testing_3,sh2x,au,sh2x_au,sh2x_1_aushau.wav,sh2x_8_auxau.wav,,FALSE,FALSE,,,,,,,,,,,,,,j,1.28,space,1.469,,,,,,,,0,92,92,106,1,,
614894e91052a368b434202c,2023-06-16_10h01.41.692,phx_ver10,2022.2.5,MacIntel,76.92307692,,,,,,,,,,,,95,testing_3,j2x,i,j2x_i,j2x_1_iji.wav,j2x_8_ixi.wav,,FALSE,FALSE,,,,,,,,,,,,,,j,3.053,space,3.175,,,,,,,,0,93,93,94,1,,
614894e91052a368b434202c,2023-06-16_10h01.41.692,phx_ver10,2022.2.5,MacIntel,76.92307692,,,,,,,,,,,,77,testing_3,j2x,ai,j2x_ai,j2x_1_aijai.wav,j2x_1_aijai.wav,,TRUE,FALSE,,,,,,,,,,,,,,f,0.296,space,0.48,,,,,,,,0,94,94,76,1,,
614894e91052a368b434202c,2023-06-16_10h01.41.692,phx_ver10,2022.2.5,MacIntel,76.92307692,,,,,,,,,,,,128,testing_3,sh2j,ai,sh2j_ai,sh2j_8_aijai.wav,sh2j_1_aishai.wav,,FALSE,FALSE,,,,,,,,,,,,,,j,0.339,space,0.423,,,,,,,,0,95,95,127,1,,
614894e91052a368b434202c,2023-06-16_10h01.41.692,phx_ver10,2022.2.5,MacIntel,76.92307692,,,,,,,,,,,,56,testing_3,zh2j,ai,zh2j_ai,zh2j_8_aijai.wav,zh2j_1_aizhai.wav,,FALSE,FALSE,,,,,,,,,,,,,,f,0.107,space,0.294,,,,,,,,0,96,96,55,1,,
614894e91052a368b434202c,2023-06-16_10h01.41.692,phx_ver10,2022.2.5,MacIntel,76.92307692,,,,,,,,,,,,7,testing_1,zh2x,e,zh2x_e,zh2x_1_ezhe.wav,zh2x_8_exe.wav,,FALSE,TRUE,,,,,,,,,,,,,,j,0.078,space,0.158,,,,,,,,0,97,97,6,1,,
614894e91052a368b434202c,2023-06-16_10h01.41.692,phx_ver10,2022.2.5,MacIntel,76.92307692,,,,,,,,,,,,42,testing_3,zh2sh,ei,zh2sh_ei,zh2sh_8_eishei.wav,zh2sh_8_eishei.wav,,TRUE,FALSE,,,,,,,,,,,,,,f,0.099,space,0.348,,,,,,,,0,98,98,41,1,,
614894e91052a368b434202c,2023-06-16_10h01.41.692,phx_ver10,2022.2.5,MacIntel,76.92307692,,,,,,,,,,,,33,testing_3,zh2sh,au,zh2sh_au,zh2sh_1_auzhau.wav,zh2sh_1_auzhau.wav,,TRUE,FALSE,,,,,,,,,,,,,,f,0.293,space,0.348,,,,,,,,0,99,99,32,1,,
614894e91052a368b434202c,2023-06-16_10h01.41.692,phx_ver10,2022.2.5,MacIntel,76.92307692,,,,,,,,,,,,72,testing_3,zh2j,i,zh2j_i,zh2j_8_iji.wav,zh2j_1_izhi.wav,,FALSE,FALSE,,,,,,,,,,,,,,f,0.173,space,0.216,,,,,,,,0,100,100,71,1,,
614894e91052a368b434202c,2023-06-16_10h01.41.692,phx_ver10,2022.2.5,MacIntel,76.92307692,,,,,,,,,,,,25,testing_3,zh2sh,a,zh2sh_a,zh2sh_1_azha.wav,zh2sh_1_azha.wav,,TRUE,FALSE,,,,,,,,,,,,,,f,0.105,space,0.157,,,,,,,,0,101,101,24,1,,
614894e91052a368b434202c,2023-06-16_10h01.41.692,phx_ver10,2022.2.5,MacIntel,76.92307692,,,,,,,,,,,,21,testing_2,zh2x,ei,zh2x_ei,zh2x_1_eizhei.wav,zh2x_1_eizhei.wav,,TRUE,FALSE,,,,,,,,,,,,,,f,0.015,space,0.121,,,,,,,,0,102,102,20,1,,
614894e91052a368b434202c,2023-06-16_10h01.41.692,phx_ver10,2022.2.5,MacIntel,76.92307692,,,,,,,,,,,,51,testing_3,zh2j,a,zh2j_a,zh2j_1_azha.wav,zh2j_8_aja.wav,,FALSE,FALSE,,,,,,,,,,,,,,f,0.227,space,0.267,,,,,,,,0,103,103,50,1,,
614894e91052a368b434202c,2023-06-16_10h01.41.692,phx_ver10,2022.2.5,MacIntel,76.92307692,,,,,,,,,,,,8,testing_1,zh2x,e,zh2x_e,zh2x_8_exe.wav,zh2x_1_ezhe.wav,,FALSE,TRUE,,,,,,,,,,,,,,j,0.004,space,0.242,,,,,,,,0,104,104,7,1,,
614894e91052a368b434202c,2023-06-16_10h01.41.692,phx_ver10,2022.2.5,MacIntel,76.92307692,,,,,,,,,,,,78,testing_3,j2x,ai,j2x_ai,j2x_8_aixai.wav,j2x_8_aixai.wav,,TRUE,FALSE,,,,,,,,,,,,,,f,0.546,space,0.711,,,,,,,,0,105,105,77,1,,
614894e91052a368b434202c,2023-06-16_10h01.41.692,phx_ver10,2022.2.5,MacIntel,76.92307692,,,,,,,,,,,,96,testing_3,j2x,i,j2x_i,j2x_8_ixi.wav,j2x_1_iji.wav,,FALSE,FALSE,,,,,,,,,,,,,,j,0.108,space,0.228,,,,,,,,0,106,106,95,1,,
614894e91052a368b434202c,2023-06-16_10h01.41.692,phx_ver10,2022.2.5,MacIntel,76.92307692,,,,,,,,,,,,31,testing_3,zh2sh,ai,zh2sh_ai,zh2sh_1_aizhai.wav,zh2sh_8_aishai.wav,,FALSE,FALSE,,,,,,,,,,,,,,f,0.483,space,0.58,,,,,,,,0,107,107,30,1,,
614894e91052a368b434202c,2023-06-16_10h01.41.692,phx_ver10,2022.2.5,MacIntel,76.92307692,,,,,,,,,,,,40,testing_3,zh2sh,e,zh2sh_e,zh2sh_8_eshe.wav,zh2sh_1_ezhe.wav,,FALSE,FALSE,,,,,,,,,,,,,,j,0.094,space,0.162,,,,,,,,0,108,108,39,1,,
614894e91052a368b434202c,2023-06-16_10h01.41.692,phx_ver10,2022.2.5,MacIntel,76.92307692,,,,,,,,,,,,103,testing_3,sh2x,ai,sh2x_ai,sh2x_1_aishai.wav,sh2x_8_aixai.wav,,FALSE,FALSE,,,,,,,,,,,,,,j,0.285,space,0.406,,,,,,,,0,109,109,102,1,,
614894e91052a368b434202c,2023-06-16_10h01.41.692,phx_ver10,2022.2.5,MacIntel,76.92307692,,,,,,,,,,,,80,testing_3,j2x,ai,j2x_ai,j2x_8_aixai.wav,j2x_1_aijai.wav,,FALSE,FALSE,,,,,,,,,,,,,,j,0.222,space,0.311,,,,,,,,0,110,110,79,1,,
614894e91052a368b434202c,2023-06-16_10h01.41.692,phx_ver10,2022.2.5,MacIntel,76.92307692,,,,,,,,,,,,3,testing_1,zh2x,a,zh2x_a,zh2x_1_azha.wav,zh2x_8_axa.wav,,FALSE,TRUE,,,,,,,,,,,,,,j,0.429,space,0.738,,,,,,,,0,111,111,2,1,,
614894e91052a368b434202c,2023-06-16_10h01.41.692,phx_ver10,2022.2.5,MacIntel,76.92307692,,,,,,,,,,,,14,testing_2,zh2x,ai,zh2x_ai,zh2x_8_aixai.wav,zh2x_8_aixai.wav,,TRUE,FALSE,,,,,,,,,,,,,,f,0.137,space,0.241,,,,,,,,0,112,112,13,1,,
614894e91052a368b434202c,2023-06-16_10h01.41.692,phx_ver10,2022.2.5,MacIntel,76.92307692,,,,,,,,,,,,27,testing_3,zh2sh,a,zh2sh_a,zh2sh_1_azha.wav,zh2sh_8_asha.wav,,FALSE,FALSE,,,,,,,,,,,,,,j,0.054,space,0.204,,,,,,,,0,113,113,26,1,,
614894e91052a368b434202c,2023-06-16_10h01.41.692,phx_ver10,2022.2.5,MacIntel,76.92307692,,,,,,,,,,,,131,testing_3,sh2j,au,sh2j_au,sh2j_1_aushau.wav,sh2j_8_aujau.wav,,FALSE,FALSE,,,,,,,,,,,,,,j,0.856,space,0.975,,,,,,,,0,114,114,130,1,,
614894e91052a368b434202c,2023-06-16_10h01.41.692,phx_ver10,2022.2.5,MacIntel,76.92307692,,,,,,,,,,,,112,testing_3,sh2x,e,sh2x_e,sh2x_8_exe.wav,sh2x_1_eshe.wav,,FALSE,FALSE,,,,,,,,,,,,,,f,1.292,space,1.907,,,,,,,,0,115,115,111,1,,
614894e91052a368b434202c,2023-06-16_10h01.41.692,phx_ver10,2022.2.5,MacIntel,76.92307692,,,,,,,,,,,,15,testing_2,zh2x,ai,zh2x_ai,zh2x_1_aizhai.wav,zh2x_8_aixai.wav,,FALSE,FALSE,,,,,,,,,,,,,,j,0.484,space,0.777,,,,,,,,0,116,116,14,1,,
614894e91052a368b434202c,2023-06-16_10h01.41.692,phx_ver10,2022.2.5,MacIntel,76.92307692,,,,,,,,,,,,92,testing_3,j2x,ei,j2x_ei,j2x_8_eixei.wav,j2x_1_eijei.wav,,FALSE,FALSE,,,,,,,,,,,,,,j,0.328,space,0.373,,,,,,,,0,117,117,91,1,,
614894e91052a368b434202c,2023-06-16_10h01.41.692,phx_ver10,2022.2.5,MacIntel,76.92307692,,,,,,,,,,,,2,testing_1,zh2x,a,zh2x_a,zh2x_8_axa.wav,zh2x_8_axa_copy.wav,,TRUE,TRUE,,,,,,,,,,,,,,f,0.109,space,0.362,,,,,,,,0,118,118,1,1,,
614894e91052a368b434202c,2023-06-16_10h01.41.692,phx_ver10,2022.2.5,MacIntel,76.92307692,,,,,,,,,,,,86,testing_3,j2x,e,j2x_e,j2x_8_exe.wav,j2x_8_exe.wav,,TRUE,FALSE,,,,,,,,,,,,,,j,0.088,space,0.301,,,,,,,,0,119,119,85,1,,
614894e91052a368b434202c,2023-06-16_10h01.41.692,phx_ver10,2022.2.5,MacIntel,76.92307692,,,,,,,,,,,,16,testing_2,zh2x,ai,zh2x_ai,zh2x_8_aixai.wav,zh2x_1_aizhai.wav,,FALSE,FALSE,,,,,,,,,,,,,,j,0.326,space,0.509,,,,,,,,0,120,120,15,1,,
614894e91052a368b434202c,2023-06-16_10h01.41.692,phx_ver10,2022.2.5,MacIntel,76.92307692,,,,,,,,,,,,97,testing_3,sh2x,a,sh2x_a,sh2x_1_asha.wav,sh2x_1_asha.wav,,TRUE,FALSE,,,,,,,,,,,,,,f,0.002,space,0.108,,,,,,,,0,121,121,96,1,,
614894e91052a368b434202c,2023-06-16_10h01.41.692,phx_ver10,2022.2.5,MacIntel,76.92307692,,,,,,,,,,,,115,testing_3,sh2x,ei,sh2x_ei,sh2x_1_eishei.wav,sh2x_8_eixei.wav,,FALSE,FALSE,,,,,,,,,,,,,,j,0.431,space,0.648,,,,,,,,0,122,122,114,1,,
614894e91052a368b434202c,2023-06-16_10h01.41.692,phx_ver10,2022.2.5,MacIntel,76.92307692,,,,,,,,,,,,118,testing_3,sh2x,i,sh2x_i,sh2x_8_ixi.wav,sh2x_8_ixi.wav,,TRUE,FALSE,,,,,,,,,,,,,,f,0.633,space,0.831,,,,,,,,0,123,123,117,1,,
614894e91052a368b434202c,2023-06-16_10h01.41.692,phx_ver10,2022.2.5,MacIntel,76.92307692,,,,,,,,,,,,87,testing_3,j2x,e,j2x_e,j2x_1_eje.wav,j2x_8_exe.wav,,FALSE,FALSE,,,,,,,,,,,,,,j,0.201,space,0.318,,,,,,,,0,124,124,86,1,,
614894e91052a368b434202c,2023-06-16_10h01.41.692,phx_ver10,2022.2.5,MacIntel,76.92307692,,,,,,,,,,,,141,testing_3,sh2j,i,sh2j_i,sh2j_1_ishi.wav,sh2j_1_ishi.wav,,TRUE,FALSE,,,,,,,,,,,,,,f,0.294,space,0.374,,,,,,,,0,125,125,140,1,,
614894e91052a368b434202c,2023-06-16_10h01.41.692,phx_ver10,2022.2.5,MacIntel,76.92307692,,,,,,,,,,,,32,testing_3,zh2sh,ai,zh2sh_ai,zh2sh_8_aishai.wav,zh2sh_1_aizhai.wav,,FALSE,FALSE,,,,,,,,,,,,,,j,0.239,space,0.34,,,,,,,,0,126,126,31,1,,
614894e91052a368b434202c,2023-06-16_10h01.41.692,phx_ver10,2022.2.5,MacIntel,76.92307692,,,,,,,,,,,,17,testing_2,zh2x,au,zh2x_au,zh2x_1_auzhau.wav,zh2x_1_auzhau.wav,,TRUE,FALSE,,,,,,,,,,,,,,f,0.319,space,0.545,,,,,,,,0,127,127,16,1,,
614894e91052a368b434202c,2023-06-16_10h01.41.692,phx_ver10,2022.2.5,MacIntel,76.92307692,,,,,,,,,,,,119,testing_3,sh2x,i,sh2x_i,sh2x_1_ishi.wav,sh2x_8_ixi.wav,,FALSE,FALSE,,,,,,,,,,,,,,j,0.229,space,0.424,,,,,,,,0,128,128,118,1,,
614894e91052a368b434202c,2023-06-16_10h01.41.692,phx_ver10,2022.2.5,MacIntel,76.92307692,,,,,,,,,,,,132,testing_3,sh2j,au,sh2j_au,sh2j_8_aujau.wav,sh2j_1_aushau.wav,,FALSE,FALSE,,,,,,,,,,,,,,j,0.295,space,0.384,,,,,,,,0,129,129,131,1,,
614894e91052a368b434202c,2023-06-16_10h01.41.692,phx_ver10,2022.2.5,MacIntel,76.92307692,,,,,,,,,,,,126,testing_3,sh2j,ai,sh2j_ai,sh2j_8_aijai.wav,sh2j_8_aijai.wav,,TRUE,FALSE,,,,,,,,,,,,,,f,0.376,space,0.431,,,,,,,,0,130,130,125,1,,
614894e91052a368b434202c,2023-06-16_10h01.41.692,phx_ver10,2022.2.5,MacIntel,76.92307692,,,,,,,,,,,,90,testing_3,j2x,ei,j2x_ei,j2x_8_eixei.wav,j2x_8_eixei.wav,,TRUE,FALSE,,,,,,,,,,,,,,f,0.112,space,0.431,,,,,,,,0,131,131,89,1,,
614894e91052a368b434202c,2023-06-16_10h01.41.692,phx_ver10,2022.2.5,MacIntel,76.92307692,,,,,,,,,,,,85,testing_3,j2x,e,j2x_e,j2x_1_eje.wav,j2x_1_eje.wav,,TRUE,FALSE,,,,,,,,,,,,,,f,0.189,space,0.309,,,,,,,,0,132,132,84,1,,
614894e91052a368b434202c,2023-06-16_10h01.41.692,phx_ver10,2022.2.5,MacIntel,76.92307692,,,,,,,,,,,,93,testing_3,j2x,i,j2x_i,j2x_1_iji.wav,j2x_1_iji.wav,,TRUE,FALSE,,,,,,,,,,,,,,f,0.13,space,0.235,,,,,,,,0,133,133,92,1,,
614894e91052a368b434202c,2023-06-16_10h01.41.692,phx_ver10,2022.2.5,MacIntel,76.92307692,,,,,,,,,,,,100,testing_3,sh2x,a,sh2x_a,sh2x_8_axa.wav,sh2x_1_asha.wav,,FALSE,FALSE,,,,,,,,,,,,,,j,0.072,space,0.245,,,,,,,,0,134,134,99,1,,
614894e91052a368b434202c,2023-06-16_10h01.41.692,phx_ver10,2022.2.5,MacIntel,76.92307692,,,,,,,,,,,,75,testing_3,j2x,a,j2x_a,j2x_1_aja.wav,j2x_8_axa.wav,,FALSE,FALSE,,,,,,,,,,,,,,j,0.083,space,0.24,,,,,,,,0,135,135,74,1,,
614894e91052a368b434202c,2023-06-16_10h01.41.692,phx_ver10,2022.2.5,MacIntel,76.92307692,,,,,,,,,,,,58,testing_3,zh2j,au,zh2j_au,zh2j_8_aujau.wav,zh2j_8_aujau.wav,,TRUE,FALSE,,,,,,,,,,,,,,f,0.059,space,0.355,,,,,,,,0,136,136,57,1,,
614894e91052a368b434202c,2023-06-16_10h01.41.692,phx_ver10,2022.2.5,MacIntel,76.92307692,,,,,,,,,,,,116,testing_3,sh2x,ei,sh2x_ei,sh2x_8_eixei.wav,sh2x_1_eishei.wav,,FALSE,FALSE,,,,,,,,,,,,,,j,0.34,space,0.497,,,,,,,,0,137,137,115,1,,
614894e91052a368b434202c,2023-06-16_10h01.41.692,phx_ver10,2022.2.5,MacIntel,76.92307692,,,,,,,,,,,,53,testing_3,zh2j,ai,zh2j_ai,zh2j_1_aizhai.wav,zh2j_1_aizhai.wav,,TRUE,FALSE,,,,,,,,,,,,,,f,0.295,space,0.389,,,,,,,,0,138,138,52,1,,
614894e91052a368b434202c,2023-06-16_10h01.41.692,phx_ver10,2022.2.5,MacIntel,76.92307692,,,,,,,,,,,,67,testing_3,zh2j,ei,zh2j_ei,zh2j_1_eizhei.wav,zh2j_8_eijei.wav,,FALSE,FALSE,,,,,,,,,,,,,,f,0.228,space,0.467,,,,,,,,0,139,139,66,1,,
614894e91052a368b434202c,2023-06-16_10h01.41.692,phx_ver10,2022.2.5,MacIntel,76.92307692,,,,,,,,,,,,70,testing_3,zh2j,i,zh2j_i,zh2j_8_iji.wav,zh2j_8_iji.wav,,TRUE,FALSE,,,,,,,,,,,,,,f,0.138,space,0.213,,,,,,,,0,140,140,69,1,,
614894e91052a368b434202c,2023-06-16_10h01.41.692,phx_ver10,2022.2.5,MacIntel,76.92307692,,,,,,,,,,,,135,testing_3,sh2j,e,sh2j_e,sh2j_1_eshe.wav,sh2j_8_eje.wav,,FALSE,FALSE,,,,,,,,,,,,,,j,0.584,space,0.826,,,,,,,,0,141,141,134,1,,
614894e91052a368b434202c,2023-06-16_10h01.41.692,phx_ver10,2022.2.5,MacIntel,76.92307692,,,,,,,,,,,,11,testing_1,zh2x,i,zh2x_i,zh2x_1_izhi.wav,zh2x_8_ixi.wav,,FALSE,TRUE,,,,,,,,,,,,,,f,0.415,space,0.598,,,,,,,,0,142,142,10,1,,
614894e91052a368b434202c,2023-06-16_10h01.41.692,phx_ver10,2022.2.5,MacIntel,76.92307692,,,,,,,,,,,,76,testing_3,j2x,a,j2x_a,j2x_8_axa.wav,j2x_1_aja.wav,,FALSE,FALSE,,,,,,,,,,,,,,j,0.291,space,0.355,,,,,,,,0,143,143,75,1,,
614894e91052a368b434202c,2023-06-16_10h01.41.692,phx_ver10,2022.2.5,MacIntel,76.92307692,,,,,,,,,,,,,,,,,,,,,,,,,,,,,,,,,,,,,,,,,,,,,,,,,,,space,2.328
