participant,date,expName,psychopyVersion,OS,frameRate,space_1.keys,space_1.rt,space_2.keys,space_2.rt,space_train.keys,space_train.rt,training.thisRepN,training.thisTrialN,training.thisN,training.thisIndex,training.ran,token_id,task,continuum,vowel,series,sound_1,sound_2,img,same,trained,FJ_attn.keys,FJ_attn.rt,space_attn.keys,space_attn.rt,if_attn_test.thisRepN,if_attn_test.thisTrialN,if_attn_test.thisN,if_attn_test.thisIndex,if_attn_test.ran,space_trans_1.keys,space_trans_1.rt,space_trans_11.keys,space_trans_11.rt,FJ_test.keys,FJ_test.rt,space_test.keys,space_test.rt,testing_pre.thisRepN,testing_pre.thisTrialN,testing_pre.thisN,testing_pre.thisIndex,testing_pre.ran,space_trans_2.keys,space_trans_2.rt,testing_all.thisRepN,testing_all.thisTrialN,testing_all.thisN,testing_all.thisIndex,testing_all.ran,space_ending.keys,space_ending.rt
6149a2480ec7bd14c9fe92a5,2023-06-16_10h30.36.674,phx_ver10,2022.2.5,Win32,60.03121623,,,,,,,,,,,,,,,,,,,,,,,,,,,,,,,,,,,,,,,,,,,,,,,,,,,,
6149a2480ec7bd14c9fe92a5,2023-06-16_10h30.36.674,phx_ver10,2022.2.5,Win32,60.03121623,space,6.173,,,,,,,,,,,,,,,,,,,,,,,,,,,,,,,,,,,,,,,,,,,,,,,,,,
6149a2480ec7bd14c9fe92a5,2023-06-16_10h30.36.674,phx_ver10,2022.2.5,Win32,60.03121623,,,space,6.667,,,,,,,,,,,,,,,,,,,,,,,,,,,,,,,,,,,,,,,,,,,,,,,,
6149a2480ec7bd14c9fe92a5,2023-06-16_10h30.36.674,phx_ver10,2022.2.5,Win32,60.03121623,,,,,space,1.5844,0,0,0,36,1,37,training,zh2x,i,zh2x_i,zh2x_2_izhi.wav,,izhi.jpg,,,,,,,,,,,,,,,,,,,,,,,,,,,,,,,,,
6149a2480ec7bd14c9fe92a5,2023-06-16_10h30.36.674,phx_ver10,2022.2.5,Win32,60.03121623,,,,,space,0.9361,0,1,1,21,1,22,training,zh2x,e,zh2x_e,zh2x_3_ezhe.wav,,ezhe.jpg,,,,,,,,,,,,,,,,,,,,,,,,,,,,,,,,,
6149a2480ec7bd14c9fe92a5,2023-06-16_10h30.36.674,phx_ver10,2022.2.5,Win32,60.03121623,,,,,space,0.1677,0,2,2,25,1,26,training,zh2x,e,zh2x_e,zh2x_6_exe.wav,,exe.jpg,,,,,,,,,,,,,,,,,,,,,,,,,,,,,,,,,
6149a2480ec7bd14c9fe92a5,2023-06-16_10h30.36.674,phx_ver10,2022.2.5,Win32,60.03121623,,,,,space,0.239,0,3,3,33,1,34,training,zh2x,i,zh2x_i,zh2x_2_izhi.wav,,izhi.jpg,,,,,,,,,,,,,,,,,,,,,,,,,,,,,,,,,
6149a2480ec7bd14c9fe92a5,2023-06-16_10h30.36.674,phx_ver10,2022.2.5,Win32,60.03121623,,,,,space,0.4508,0,4,4,19,1,20,training,zh2x,e,zh2x_e,zh2x_2_ezhe.wav,,ezhe.jpg,,,,,,,,,,,,,,,,,,,,,,,,,,,,,,,,,
6149a2480ec7bd14c9fe92a5,2023-06-16_10h30.36.674,phx_ver10,2022.2.5,Win32,60.03121623,,,,,space,3.9924,0,5,5,17,1,18,training,zh2x,e,zh2x_e,zh2x_2_ezhe.wav,,ezhe.jpg,,,,,,,,,,,,,,,,,,,,,,,,,,,,,,,,,
6149a2480ec7bd14c9fe92a5,2023-06-16_10h30.36.674,phx_ver10,2022.2.5,Win32,60.03121623,,,,,,,,,,,,,attn_test,,,,zh2x_8_exe.wav,zh2x_8_axa.wav,exe.jpg,LEFT,,f,0.8732,space,2.1529,0,0,0,0,1,,,,,,,,,,,,,,,,,,,,,,
6149a2480ec7bd14c9fe92a5,2023-06-16_10h30.36.674,phx_ver10,2022.2.5,Win32,60.03121623,,,,,space,1.0342,0,6,6,7,1,8,training,zh2x,a,zh2x_a,zh2x_4_azha.wav,,azha.jpg,,,,,,,,,,,,,,,,,,,,,,,,,,,,,,,,,
6149a2480ec7bd14c9fe92a5,2023-06-16_10h30.36.674,phx_ver10,2022.2.5,Win32,60.03121623,,,,,space,0.0487,0,7,7,11,1,12,training,zh2x,a,zh2x_a,zh2x_7_axa.wav,,axa.jpg,,,,,,,,,,,,,,,,,,,,,,,,,,,,,,,,,
6149a2480ec7bd14c9fe92a5,2023-06-16_10h30.36.674,phx_ver10,2022.2.5,Win32,60.03121623,,,,,space,0.9343,0,8,8,15,1,16,training,zh2x,a,zh2x_a,zh2x_8_axa.wav,,axa.jpg,,,,,,,,,,,,,,,,,,,,,,,,,,,,,,,,,
6149a2480ec7bd14c9fe92a5,2023-06-16_10h30.36.674,phx_ver10,2022.2.5,Win32,60.03121623,,,,,space,0.3924,0,9,9,10,1,11,training,zh2x,a,zh2x_a,zh2x_6_axa.wav,,axa.jpg,,,,,,,,,,,,,,,,,,,,,,,,,,,,,,,,,
6149a2480ec7bd14c9fe92a5,2023-06-16_10h30.36.674,phx_ver10,2022.2.5,Win32,60.03121623,,,,,space,0.0683,0,10,10,8,1,9,training,zh2x,a,zh2x_a,zh2x_5_axa.wav,,axa.jpg,,,,,,,,,,,,,,,,,,,,,,,,,,,,,,,,,
6149a2480ec7bd14c9fe92a5,2023-06-16_10h30.36.674,phx_ver10,2022.2.5,Win32,60.03121623,,,,,space,0.3688,0,11,11,28,1,29,training,zh2x,e,zh2x_e,zh2x_7_exe.wav,,exe.jpg,,,,,,,,,,,,,,,,,,,,,,,,,,,,,,,,,
6149a2480ec7bd14c9fe92a5,2023-06-16_10h30.36.674,phx_ver10,2022.2.5,Win32,60.03121623,,,,,,,,,,,,,attn_test,,,,zh2x_1_izhi.wav,zh2x_1_azha.wav,azha.jpg,RIGHT,,f,1.5677,space,2.5171,0,0,0,0,1,,,,,,,,,,,,,,,,,,,,,,
6149a2480ec7bd14c9fe92a5,2023-06-16_10h30.36.674,phx_ver10,2022.2.5,Win32,60.03121623,,,,,space,0.6058,0,12,12,6,1,7,training,zh2x,a,zh2x_a,zh2x_3_azha.wav,,azha.jpg,,,,,,,,,,,,,,,,,,,,,,,,,,,,,,,,,
6149a2480ec7bd14c9fe92a5,2023-06-16_10h30.36.674,phx_ver10,2022.2.5,Win32,60.03121623,,,,,space,0.8702,0,13,13,13,1,14,training,zh2x,a,zh2x_a,zh2x_7_axa.wav,,axa.jpg,,,,,,,,,,,,,,,,,,,,,,,,,,,,,,,,,
6149a2480ec7bd14c9fe92a5,2023-06-16_10h30.36.674,phx_ver10,2022.2.5,Win32,60.03121623,,,,,space,0.9348,0,14,14,42,1,43,training,zh2x,i,zh2x_i,zh2x_6_ixi.wav,,ixi.jpg,,,,,,,,,,,,,,,,,,,,,,,,,,,,,,,,,
6149a2480ec7bd14c9fe92a5,2023-06-16_10h30.36.674,phx_ver10,2022.2.5,Win32,60.03121623,,,,,space,0.2179,0,15,15,5,1,6,training,zh2x,a,zh2x_a,zh2x_3_azha.wav,,azha.jpg,,,,,,,,,,,,,,,,,,,,,,,,,,,,,,,,,
6149a2480ec7bd14c9fe92a5,2023-06-16_10h30.36.674,phx_ver10,2022.2.5,Win32,60.03121623,,,,,space,0.4778,0,16,16,34,1,35,training,zh2x,i,zh2x_i,zh2x_2_izhi.wav,,izhi.jpg,,,,,,,,,,,,,,,,,,,,,,,,,,,,,,,,,
6149a2480ec7bd14c9fe92a5,2023-06-16_10h30.36.674,phx_ver10,2022.2.5,Win32,60.03121623,,,,,space,0.2837,0,17,17,22,1,23,training,zh2x,e,zh2x_e,zh2x_3_ezhe.wav,,ezhe.jpg,,,,,,,,,,,,,,,,,,,,,,,,,,,,,,,,,
6149a2480ec7bd14c9fe92a5,2023-06-16_10h30.36.674,phx_ver10,2022.2.5,Win32,60.03121623,,,,,,,,,,,,,attn_test,,,,zh2x_8_ixi.wav,zh2x_1_izhi.wav,izhi.jpg,RIGHT,,f,3.5833,space,4.1895,0,0,0,0,1,,,,,,,,,,,,,,,,,,,,,,
6149a2480ec7bd14c9fe92a5,2023-06-16_10h30.36.674,phx_ver10,2022.2.5,Win32,60.03121623,,,,,space,0.2589,0,18,18,14,1,15,training,zh2x,a,zh2x_a,zh2x_7_axa.wav,,axa.jpg,,,,,,,,,,,,,,,,,,,,,,,,,,,,,,,,,
6149a2480ec7bd14c9fe92a5,2023-06-16_10h30.36.674,phx_ver10,2022.2.5,Win32,60.03121623,,,,,space,0.1552,0,19,19,32,1,33,training,zh2x,i,zh2x_i,zh2x_1_izhi.wav,,izhi.jpg,,,,,,,,,,,,,,,,,,,,,,,,,,,,,,,,,
6149a2480ec7bd14c9fe92a5,2023-06-16_10h30.36.674,phx_ver10,2022.2.5,Win32,60.03121623,,,,,space,0.2223,0,20,20,24,1,25,training,zh2x,e,zh2x_e,zh2x_5_exe.wav,,exe.jpg,,,,,,,,,,,,,,,,,,,,,,,,,,,,,,,,,
6149a2480ec7bd14c9fe92a5,2023-06-16_10h30.36.674,phx_ver10,2022.2.5,Win32,60.03121623,,,,,space,0.8251,0,21,21,30,1,31,training,zh2x,e,zh2x_e,zh2x_7_exe.wav,,exe.jpg,,,,,,,,,,,,,,,,,,,,,,,,,,,,,,,,,
6149a2480ec7bd14c9fe92a5,2023-06-16_10h30.36.674,phx_ver10,2022.2.5,Win32,60.03121623,,,,,space,0.0743,0,22,22,37,1,38,training,zh2x,i,zh2x_i,zh2x_3_izhi.wav,,izhi.jpg,,,,,,,,,,,,,,,,,,,,,,,,,,,,,,,,,
6149a2480ec7bd14c9fe92a5,2023-06-16_10h30.36.674,phx_ver10,2022.2.5,Win32,60.03121623,,,,,space,0.5008,0,23,23,45,1,46,training,zh2x,i,zh2x_i,zh2x_7_ixi.wav,,ixi.jpg,,,,,,,,,,,,,,,,,,,,,,,,,,,,,,,,,
6149a2480ec7bd14c9fe92a5,2023-06-16_10h30.36.674,phx_ver10,2022.2.5,Win32,60.03121623,,,,,,,,,,,,,attn_test,,,,zh2x_8_exe.wav,zh2x_1_izhi.wav,exe.jpg,LEFT,,j,0.1733,space,0.8433,0,0,0,0,1,,,,,,,,,,,,,,,,,,,,,,
6149a2480ec7bd14c9fe92a5,2023-06-16_10h30.36.674,phx_ver10,2022.2.5,Win32,60.03121623,,,,,space,0.4853,0,24,24,2,1,3,training,zh2x,a,zh2x_a,zh2x_2_azha.wav,,azha.jpg,,,,,,,,,,,,,,,,,,,,,,,,,,,,,,,,,
6149a2480ec7bd14c9fe92a5,2023-06-16_10h30.36.674,phx_ver10,2022.2.5,Win32,60.03121623,,,,,space,0.5534,0,25,25,43,1,44,training,zh2x,i,zh2x_i,zh2x_7_ixi.wav,,ixi.jpg,,,,,,,,,,,,,,,,,,,,,,,,,,,,,,,,,
6149a2480ec7bd14c9fe92a5,2023-06-16_10h30.36.674,phx_ver10,2022.2.5,Win32,60.03121623,,,,,space,0.4375,0,26,26,1,1,2,training,zh2x,a,zh2x_a,zh2x_2_azha.wav,,azha.jpg,,,,,,,,,,,,,,,,,,,,,,,,,,,,,,,,,
6149a2480ec7bd14c9fe92a5,2023-06-16_10h30.36.674,phx_ver10,2022.2.5,Win32,60.03121623,,,,,space,0.2503,0,27,27,29,1,30,training,zh2x,e,zh2x_e,zh2x_7_exe.wav,,exe.jpg,,,,,,,,,,,,,,,,,,,,,,,,,,,,,,,,,
6149a2480ec7bd14c9fe92a5,2023-06-16_10h30.36.674,phx_ver10,2022.2.5,Win32,60.03121623,,,,,space,0.2066,0,28,28,20,1,21,training,zh2x,e,zh2x_e,zh2x_2_ezhe.wav,,ezhe.jpg,,,,,,,,,,,,,,,,,,,,,,,,,,,,,,,,,
6149a2480ec7bd14c9fe92a5,2023-06-16_10h30.36.674,phx_ver10,2022.2.5,Win32,60.03121623,,,,,space,0.4378,0,29,29,3,1,4,training,zh2x,a,zh2x_a,zh2x_2_azha.wav,,azha.jpg,,,,,,,,,,,,,,,,,,,,,,,,,,,,,,,,,
6149a2480ec7bd14c9fe92a5,2023-06-16_10h30.36.674,phx_ver10,2022.2.5,Win32,60.03121623,,,,,,,,,,,,,attn_test,,,,zh2x_1_ezhe.wav,zh2x_8_exe.wav,ezhe.jpg,LEFT,,f,0.7578,space,1.4705,0,0,0,0,1,,,,,,,,,,,,,,,,,,,,,,
6149a2480ec7bd14c9fe92a5,2023-06-16_10h30.36.674,phx_ver10,2022.2.5,Win32,60.03121623,,,,,space,0.4654,0,30,30,44,1,45,training,zh2x,i,zh2x_i,zh2x_7_ixi.wav,,ixi.jpg,,,,,,,,,,,,,,,,,,,,,,,,,,,,,,,,,
6149a2480ec7bd14c9fe92a5,2023-06-16_10h30.36.674,phx_ver10,2022.2.5,Win32,60.03121623,,,,,space,0.4757,0,31,31,39,1,40,training,zh2x,i,zh2x_i,zh2x_4_izhi.wav,,izhi.jpg,,,,,,,,,,,,,,,,,,,,,,,,,,,,,,,,,
6149a2480ec7bd14c9fe92a5,2023-06-16_10h30.36.674,phx_ver10,2022.2.5,Win32,60.03121623,,,,,space,0.411,0,32,32,38,1,39,training,zh2x,i,zh2x_i,zh2x_3_izhi.wav,,izhi.jpg,,,,,,,,,,,,,,,,,,,,,,,,,,,,,,,,,
6149a2480ec7bd14c9fe92a5,2023-06-16_10h30.36.674,phx_ver10,2022.2.5,Win32,60.03121623,,,,,space,0.2233,0,33,33,46,1,47,training,zh2x,i,zh2x_i,zh2x_7_ixi.wav,,ixi.jpg,,,,,,,,,,,,,,,,,,,,,,,,,,,,,,,,,
6149a2480ec7bd14c9fe92a5,2023-06-16_10h30.36.674,phx_ver10,2022.2.5,Win32,60.03121623,,,,,space,0.5856,0,34,34,31,1,32,training,zh2x,e,zh2x_e,zh2x_8_exe.wav,,exe.jpg,,,,,,,,,,,,,,,,,,,,,,,,,,,,,,,,,
6149a2480ec7bd14c9fe92a5,2023-06-16_10h30.36.674,phx_ver10,2022.2.5,Win32,60.03121623,,,,,space,0.2524,0,35,35,0,1,1,training,zh2x,a,zh2x_a,zh2x_1_azha.wav,,azha.jpg,,,,,,,,,,,,,,,,,,,,,,,,,,,,,,,,,
6149a2480ec7bd14c9fe92a5,2023-06-16_10h30.36.674,phx_ver10,2022.2.5,Win32,60.03121623,,,,,,,,,,,,,attn_test,,,,zh2x_8_exe.wav,zh2x_1_ezhe.wav,exe.jpg,LEFT,,f,0.0371,space,1.0343,0,0,0,0,1,,,,,,,,,,,,,,,,,,,,,,
6149a2480ec7bd14c9fe92a5,2023-06-16_10h30.36.674,phx_ver10,2022.2.5,Win32,60.03121623,,,,,space,0.3189,0,36,36,41,1,42,training,zh2x,i,zh2x_i,zh2x_6_ixi.wav,,ixi.jpg,,,,,,,,,,,,,,,,,,,,,,,,,,,,,,,,,
6149a2480ec7bd14c9fe92a5,2023-06-16_10h30.36.674,phx_ver10,2022.2.5,Win32,60.03121623,,,,,space,0.3874,0,37,37,27,1,28,training,zh2x,e,zh2x_e,zh2x_7_exe.wav,,exe.jpg,,,,,,,,,,,,,,,,,,,,,,,,,,,,,,,,,
6149a2480ec7bd14c9fe92a5,2023-06-16_10h30.36.674,phx_ver10,2022.2.5,Win32,60.03121623,,,,,space,0.1841,0,38,38,23,1,24,training,zh2x,e,zh2x_e,zh2x_4_ezhe.wav,,ezhe.jpg,,,,,,,,,,,,,,,,,,,,,,,,,,,,,,,,,
6149a2480ec7bd14c9fe92a5,2023-06-16_10h30.36.674,phx_ver10,2022.2.5,Win32,60.03121623,,,,,space,0.334,0,39,39,4,1,5,training,zh2x,a,zh2x_a,zh2x_2_azha.wav,,azha.jpg,,,,,,,,,,,,,,,,,,,,,,,,,,,,,,,,,
6149a2480ec7bd14c9fe92a5,2023-06-16_10h30.36.674,phx_ver10,2022.2.5,Win32,60.03121623,,,,,space,0.1842,0,40,40,16,1,17,training,zh2x,e,zh2x_e,zh2x_1_ezhe.wav,,ezhe.jpg,,,,,,,,,,,,,,,,,,,,,,,,,,,,,,,,,
6149a2480ec7bd14c9fe92a5,2023-06-16_10h30.36.674,phx_ver10,2022.2.5,Win32,60.03121623,,,,,space,0.4374,0,41,41,40,1,41,training,zh2x,i,zh2x_i,zh2x_5_ixi.wav,,ixi.jpg,,,,,,,,,,,,,,,,,,,,,,,,,,,,,,,,,
6149a2480ec7bd14c9fe92a5,2023-06-16_10h30.36.674,phx_ver10,2022.2.5,Win32,60.03121623,,,,,,,,,,,,,attn_test,,,,zh2x_1_ezhe.wav,zh2x_8_axa.wav,ezhe.jpg,LEFT,,f,0.6541,space,1.2357,0,0,0,0,1,,,,,,,,,,,,,,,,,,,,,,
6149a2480ec7bd14c9fe92a5,2023-06-16_10h30.36.674,phx_ver10,2022.2.5,Win32,60.03121623,,,,,space,0.4171,0,42,42,18,1,19,training,zh2x,e,zh2x_e,zh2x_2_ezhe.wav,,ezhe.jpg,,,,,,,,,,,,,,,,,,,,,,,,,,,,,,,,,
6149a2480ec7bd14c9fe92a5,2023-06-16_10h30.36.674,phx_ver10,2022.2.5,Win32,60.03121623,,,,,space,0.4173,0,43,43,47,1,48,training,zh2x,i,zh2x_i,zh2x_8_ixi.wav,,ixi.jpg,,,,,,,,,,,,,,,,,,,,,,,,,,,,,,,,,
6149a2480ec7bd14c9fe92a5,2023-06-16_10h30.36.674,phx_ver10,2022.2.5,Win32,60.03121623,,,,,space,0.1649,0,44,44,26,1,27,training,zh2x,e,zh2x_e,zh2x_6_exe.wav,,exe.jpg,,,,,,,,,,,,,,,,,,,,,,,,,,,,,,,,,
6149a2480ec7bd14c9fe92a5,2023-06-16_10h30.36.674,phx_ver10,2022.2.5,Win32,60.03121623,,,,,space,0.1687,0,45,45,12,1,13,training,zh2x,a,zh2x_a,zh2x_7_axa.wav,,axa.jpg,,,,,,,,,,,,,,,,,,,,,,,,,,,,,,,,,
6149a2480ec7bd14c9fe92a5,2023-06-16_10h30.36.674,phx_ver10,2022.2.5,Win32,60.03121623,,,,,space,0.3162,0,46,46,9,1,10,training,zh2x,a,zh2x_a,zh2x_6_axa.wav,,axa.jpg,,,,,,,,,,,,,,,,,,,,,,,,,,,,,,,,,
6149a2480ec7bd14c9fe92a5,2023-06-16_10h30.36.674,phx_ver10,2022.2.5,Win32,60.03121623,,,,,space,0.3518,0,47,47,35,1,36,training,zh2x,i,zh2x_i,zh2x_2_izhi.wav,,izhi.jpg,,,,,,,,,,,,,,,,,,,,,,,,,,,,,,,,,
6149a2480ec7bd14c9fe92a5,2023-06-16_10h30.36.674,phx_ver10,2022.2.5,Win32,60.03121623,,,,,,,,,,,,,attn_test,,,,zh2x_1_azha.wav,zh2x_8_axa.wav,axa.jpg,RIGHT,,j,0.9724,space,2.3235,,,,,,,,,,,,,,,,,,,,,,,,,,,
6149a2480ec7bd14c9fe92a5,2023-06-16_10h30.36.674,phx_ver10,2022.2.5,Win32,60.03121623,,,,,,,,,,,,,,,,,,,,,,,,,,,,,,,space,0.8859,,,,,,,,,,,,,,,,,,,,
6149a2480ec7bd14c9fe92a5,2023-06-16_10h30.36.674,phx_ver10,2022.2.5,Win32,60.03121623,,,,,,,,,,,,,,,,,,,,,,,,,,,,,,,,,space,11.7299,,,,,,,,,,,,,,,,,,
6149a2480ec7bd14c9fe92a5,2023-06-16_10h30.36.674,phx_ver10,2022.2.5,Win32,60.03121623,,,,,,,,,,,,3,testing_pre,,,,afa.wav,aha.wav,,FALSE,,,,,,,,,,,,,,,f,2.4992,space,3.7817,0,0,0,2,1,,,,,,,,,
6149a2480ec7bd14c9fe92a5,2023-06-16_10h30.36.674,phx_ver10,2022.2.5,Win32,60.03121623,,,,,,,,,,,,4,testing_pre,,,,eihei.wav,eihei.wav,,TRUE,,,,,,,,,,,,,,,f,0.3861,space,1.4013,0,1,1,3,1,,,,,,,,,
6149a2480ec7bd14c9fe92a5,2023-06-16_10h30.36.674,phx_ver10,2022.2.5,Win32,60.03121623,,,,,,,,,,,,2,testing_pre,,,,auhau.wav,aufau.wav,,FALSE,,,,,,,,,,,,,,,f,0.3497,space,0.8844,0,2,2,1,1,,,,,,,,,
6149a2480ec7bd14c9fe92a5,2023-06-16_10h30.36.674,phx_ver10,2022.2.5,Win32,60.03121623,,,,,,,,,,,,1,testing_pre,,,,ifi.wav,ifi.wav,,TRUE,,,,,,,,,,,,,,,f,0.2957,space,0.8949,0,3,3,0,1,,,,,,,,,
6149a2480ec7bd14c9fe92a5,2023-06-16_10h30.36.674,phx_ver10,2022.2.5,Win32,60.03121623,,,,,,,,,,,,5,testing_pre,,,,ihi.wav,ifi.wav,,FALSE,,,,,,,,,,,,,,,f,0.3166,space,1.4864,0,4,4,4,1,,,,,,,,,
6149a2480ec7bd14c9fe92a5,2023-06-16_10h30.36.674,phx_ver10,2022.2.5,Win32,60.03121623,,,,,,,,,,,,,,,,,,,,,,,,,,,,,,,,,,,,,,,,,,,,space,0.5973,,,,,,,
6149a2480ec7bd14c9fe92a5,2023-06-16_10h30.36.674,phx_ver10,2022.2.5,Win32,60.03121623,,,,,,,,,,,,81,testing_3,j2x,au,j2x_au,j2x_1_aujau.wav,j2x_1_aujau.wav,,TRUE,FALSE,,,,,,,,,,,,,,f,0.2875,space,1.2174,,,,,,,,0,0,0,80,1,,
6149a2480ec7bd14c9fe92a5,2023-06-16_10h30.36.674,phx_ver10,2022.2.5,Win32,60.03121623,,,,,,,,,,,,142,testing_3,sh2j,i,sh2j_i,sh2j_8_iji.wav,sh2j_8_iji.wav,,TRUE,FALSE,,,,,,,,,,,,,,f,0.2573,space,0.8571,,,,,,,,0,1,1,141,1,,
6149a2480ec7bd14c9fe92a5,2023-06-16_10h30.36.674,phx_ver10,2022.2.5,Win32,60.03121623,,,,,,,,,,,,106,testing_3,sh2x,au,sh2x_au,sh2x_8_auxau.wav,sh2x_8_auxau.wav,,TRUE,FALSE,,,,,,,,,,,,,,f,0.2879,space,0.8176,,,,,,,,0,2,2,105,1,,
6149a2480ec7bd14c9fe92a5,2023-06-16_10h30.36.674,phx_ver10,2022.2.5,Win32,60.03121623,,,,,,,,,,,,87,testing_3,j2x,e,j2x_e,j2x_1_eje.wav,j2x_8_exe.wav,,FALSE,FALSE,,,,,,,,,,,,,,f,0.4994,space,0.8595,,,,,,,,0,3,3,86,1,,
6149a2480ec7bd14c9fe92a5,2023-06-16_10h30.36.674,phx_ver10,2022.2.5,Win32,60.03121623,,,,,,,,,,,,97,testing_3,sh2x,a,sh2x_a,sh2x_1_asha.wav,sh2x_1_asha.wav,,TRUE,FALSE,,,,,,,,,,,,,,f,0.2016,space,0.8536,,,,,,,,0,4,4,96,1,,
6149a2480ec7bd14c9fe92a5,2023-06-16_10h30.36.674,phx_ver10,2022.2.5,Win32,60.03121623,,,,,,,,,,,,102,testing_3,sh2x,ai,sh2x_ai,sh2x_8_aixai.wav,sh2x_8_aixai.wav,,TRUE,FALSE,,,,,,,,,,,,,,f,0.22,space,0.7505,,,,,,,,0,5,5,101,1,,
6149a2480ec7bd14c9fe92a5,2023-06-16_10h30.36.674,phx_ver10,2022.2.5,Win32,60.03121623,,,,,,,,,,,,7,testing_1,zh2x,e,zh2x_e,zh2x_1_ezhe.wav,zh2x_8_exe.wav,,FALSE,TRUE,,,,,,,,,,,,,,j,0.2092,space,0.651,,,,,,,,0,6,6,6,1,,
6149a2480ec7bd14c9fe92a5,2023-06-16_10h30.36.674,phx_ver10,2022.2.5,Win32,60.03121623,,,,,,,,,,,,68,testing_3,zh2j,ei,zh2j_ei,zh2j_8_eijei.wav,zh2j_1_eizhei.wav,,FALSE,FALSE,,,,,,,,,,,,,,f,1.0508,space,7.9318,,,,,,,,0,7,7,67,1,,
6149a2480ec7bd14c9fe92a5,2023-06-16_10h30.36.674,phx_ver10,2022.2.5,Win32,60.03121623,,,,,,,,,,,,49,testing_3,zh2j,a,zh2j_a,zh2j_1_azha.wav,zh2j_1_azha.wav,,TRUE,FALSE,,,,,,,,,,,,,,f,0.1018,space,0.6849,,,,,,,,0,8,8,48,1,,
6149a2480ec7bd14c9fe92a5,2023-06-16_10h30.36.674,phx_ver10,2022.2.5,Win32,60.03121623,,,,,,,,,,,,69,testing_3,zh2j,i,zh2j_i,zh2j_1_izhi.wav,zh2j_1_izhi.wav,,TRUE,FALSE,,,,,,,,,,,,,,f,0.2704,space,0.8963,,,,,,,,0,9,9,68,1,,
6149a2480ec7bd14c9fe92a5,2023-06-16_10h30.36.674,phx_ver10,2022.2.5,Win32,60.03121623,,,,,,,,,,,,144,testing_3,sh2j,i,sh2j_i,sh2j_8_iji.wav,sh2j_1_ishi.wav,,FALSE,FALSE,,,,,,,,,,,,,,j,0.204,space,0.7218,,,,,,,,0,10,10,143,1,,
6149a2480ec7bd14c9fe92a5,2023-06-16_10h30.36.674,phx_ver10,2022.2.5,Win32,60.03121623,,,,,,,,,,,,99,testing_3,sh2x,a,sh2x_a,sh2x_1_asha.wav,sh2x_8_axa.wav,,FALSE,FALSE,,,,,,,,,,,,,,j,0.0568,space,0.5186,,,,,,,,0,11,11,98,1,,
6149a2480ec7bd14c9fe92a5,2023-06-16_10h30.36.674,phx_ver10,2022.2.5,Win32,60.03121623,,,,,,,,,,,,108,testing_3,sh2x,au,sh2x_au,sh2x_8_auxau.wav,sh2x_1_aushau.wav,,FALSE,FALSE,,,,,,,,,,,,,,j,0.2151,space,0.598,,,,,,,,0,12,12,107,1,,
6149a2480ec7bd14c9fe92a5,2023-06-16_10h30.36.674,phx_ver10,2022.2.5,Win32,60.03121623,,,,,,,,,,,,4,testing_1,zh2x,a,zh2x_a,zh2x_8_axa.wav,zh2x_1_azha.wav,,FALSE,TRUE,,,,,,,,,,,,,,j,0.4079,space,0.7683,,,,,,,,0,13,13,3,1,,
6149a2480ec7bd14c9fe92a5,2023-06-16_10h30.36.674,phx_ver10,2022.2.5,Win32,60.03121623,,,,,,,,,,,,141,testing_3,sh2j,i,sh2j_i,sh2j_1_ishi.wav,sh2j_1_ishi.wav,,TRUE,FALSE,,,,,,,,,,,,,,f,0.1362,space,0.4826,,,,,,,,0,14,14,140,1,,
6149a2480ec7bd14c9fe92a5,2023-06-16_10h30.36.674,phx_ver10,2022.2.5,Win32,60.03121623,,,,,,,,,,,,17,testing_2,zh2x,au,zh2x_au,zh2x_1_auzhau.wav,zh2x_1_auzhau.wav,,TRUE,FALSE,,,,,,,,,,,,,,f,0.172,space,0.5806,,,,,,,,0,15,15,16,1,,
6149a2480ec7bd14c9fe92a5,2023-06-16_10h30.36.674,phx_ver10,2022.2.5,Win32,60.03121623,,,,,,,,,,,,113,testing_3,sh2x,ei,sh2x_ei,sh2x_1_eishei.wav,sh2x_1_eishei.wav,,TRUE,FALSE,,,,,,,,,,,,,,f,0.1842,space,0.6391,,,,,,,,0,16,16,112,1,,
6149a2480ec7bd14c9fe92a5,2023-06-16_10h30.36.674,phx_ver10,2022.2.5,Win32,60.03121623,,,,,,,,,,,,6,testing_1,zh2x,e,zh2x_e,zh2x_8_exe.wav,zh2x_8_exe_copy.wav,,TRUE,TRUE,,,,,,,,,,,,,,f,0.4673,space,0.9413,,,,,,,,0,17,17,5,1,,
6149a2480ec7bd14c9fe92a5,2023-06-16_10h30.36.674,phx_ver10,2022.2.5,Win32,60.03121623,,,,,,,,,,,,11,testing_1,zh2x,i,zh2x_i,zh2x_1_izhi.wav,zh2x_8_ixi.wav,,FALSE,TRUE,,,,,,,,,,,,,,j,0.4659,space,36.9994,,,,,,,,0,18,18,10,1,,
6149a2480ec7bd14c9fe92a5,2023-06-16_10h30.36.674,phx_ver10,2022.2.5,Win32,60.03121623,,,,,,,,,,,,75,testing_3,j2x,a,j2x_a,j2x_1_aja.wav,j2x_8_axa.wav,,FALSE,FALSE,,,,,,,,,,,,,,j,0.8833,space,1.3013,,,,,,,,0,19,19,74,1,,
6149a2480ec7bd14c9fe92a5,2023-06-16_10h30.36.674,phx_ver10,2022.2.5,Win32,60.03121623,,,,,,,,,,,,138,testing_3,sh2j,ei,sh2j_ei,sh2j_8_eijei.wav,sh2j_8_eijei.wav,,TRUE,FALSE,,,,,,,,,,,,,,f,0.3518,space,0.7682,,,,,,,,0,20,20,137,1,,
6149a2480ec7bd14c9fe92a5,2023-06-16_10h30.36.674,phx_ver10,2022.2.5,Win32,60.03121623,,,,,,,,,,,,3,testing_1,zh2x,a,zh2x_a,zh2x_1_azha.wav,zh2x_8_axa.wav,,FALSE,TRUE,,,,,,,,,,,,,,j,0.0353,space,0.4777,,,,,,,,0,21,21,2,1,,
6149a2480ec7bd14c9fe92a5,2023-06-16_10h30.36.674,phx_ver10,2022.2.5,Win32,60.03121623,,,,,,,,,,,,140,testing_3,sh2j,ei,sh2j_ei,sh2j_8_eijei.wav,sh2j_1_eishei.wav,,FALSE,FALSE,,,,,,,,,,,,,,j,0.3177,space,0.886,,,,,,,,0,22,22,139,1,,
6149a2480ec7bd14c9fe92a5,2023-06-16_10h30.36.674,phx_ver10,2022.2.5,Win32,60.03121623,,,,,,,,,,,,78,testing_3,j2x,ai,j2x_ai,j2x_8_aixai.wav,j2x_8_aixai.wav,,TRUE,FALSE,,,,,,,,,,,,,,f,0.3072,space,0.7262,,,,,,,,0,23,23,77,1,,
6149a2480ec7bd14c9fe92a5,2023-06-16_10h30.36.674,phx_ver10,2022.2.5,Win32,60.03121623,,,,,,,,,,,,24,testing_2,zh2x,ei,zh2x_ei,zh2x_8_eixei.wav,zh2x_1_eizhei.wav,,FALSE,FALSE,,,,,,,,,,,,,,j,0.138,space,0.5151,,,,,,,,0,24,24,23,1,,
6149a2480ec7bd14c9fe92a5,2023-06-16_10h30.36.674,phx_ver10,2022.2.5,Win32,60.03121623,,,,,,,,,,,,32,testing_3,zh2sh,ai,zh2sh_ai,zh2sh_8_aishai.wav,zh2sh_1_aizhai.wav,,FALSE,FALSE,,,,,,,,,,,,,,j,0.1694,space,0.594,,,,,,,,0,25,25,31,1,,
6149a2480ec7bd14c9fe92a5,2023-06-16_10h30.36.674,phx_ver10,2022.2.5,Win32,60.03121623,,,,,,,,,,,,52,testing_3,zh2j,a,zh2j_a,zh2j_8_aja.wav,zh2j_1_azha.wav,,FALSE,FALSE,,,,,,,,,,,,,,f,0.2189,space,0.5173,,,,,,,,0,26,26,51,1,,
6149a2480ec7bd14c9fe92a5,2023-06-16_10h30.36.674,phx_ver10,2022.2.5,Win32,60.03121623,,,,,,,,,,,,18,testing_2,zh2x,au,zh2x_au,zh2x_8_auxau.wav,zh2x_8_auxau.wav,,TRUE,FALSE,,,,,,,,,,,,,,f,0.2342,space,0.5216,,,,,,,,0,27,27,17,1,,
6149a2480ec7bd14c9fe92a5,2023-06-16_10h30.36.674,phx_ver10,2022.2.5,Win32,60.03121623,,,,,,,,,,,,105,testing_3,sh2x,au,sh2x_au,sh2x_1_aushau.wav,sh2x_1_aushau.wav,,TRUE,FALSE,,,,,,,,,,,,,,f,0.119,space,0.4738,,,,,,,,0,28,28,104,1,,
6149a2480ec7bd14c9fe92a5,2023-06-16_10h30.36.674,phx_ver10,2022.2.5,Win32,60.03121623,,,,,,,,,,,,65,testing_3,zh2j,ei,zh2j_ei,zh2j_1_eizhei.wav,zh2j_1_eizhei.wav,,TRUE,FALSE,,,,,,,,,,,,,,f,0.2836,space,0.6358,,,,,,,,0,29,29,64,1,,
6149a2480ec7bd14c9fe92a5,2023-06-16_10h30.36.674,phx_ver10,2022.2.5,Win32,60.03121623,,,,,,,,,,,,50,testing_3,zh2j,a,zh2j_a,zh2j_8_aja.wav,zh2j_8_aja.wav,,TRUE,FALSE,,,,,,,,,,,,,,f,0.1665,space,0.5914,,,,,,,,0,30,30,49,1,,
6149a2480ec7bd14c9fe92a5,2023-06-16_10h30.36.674,phx_ver10,2022.2.5,Win32,60.03121623,,,,,,,,,,,,9,testing_1,zh2x,i,zh2x_i,zh2x_1_izhi.wav,zh2x_1_izhi_copy.wav,,TRUE,TRUE,,,,,,,,,,,,,,f,0.3344,space,0.6837,,,,,,,,0,31,31,8,1,,
6149a2480ec7bd14c9fe92a5,2023-06-16_10h30.36.674,phx_ver10,2022.2.5,Win32,60.03121623,,,,,,,,,,,,130,testing_3,sh2j,au,sh2j_au,sh2j_8_aujau.wav,sh2j_8_aujau.wav,,TRUE,FALSE,,,,,,,,,,,,,,f,0.2392,space,1.2341,,,,,,,,0,32,32,129,1,,
6149a2480ec7bd14c9fe92a5,2023-06-16_10h30.36.674,phx_ver10,2022.2.5,Win32,60.03121623,,,,,,,,,,,,1,testing_1,zh2x,a,zh2x_a,zh2x_1_azha.wav,zh2x_1_azha_copy.wav,,TRUE,TRUE,,,,,,,,,,,,,,f,0.2678,space,0.6666,,,,,,,,0,33,33,0,1,,
6149a2480ec7bd14c9fe92a5,2023-06-16_10h30.36.674,phx_ver10,2022.2.5,Win32,60.03121623,,,,,,,,,,,,121,testing_3,sh2j,a,sh2j_a,sh2j_1_asha.wav,sh2j_1_asha.wav,,TRUE,FALSE,,,,,,,,,,,,,,f,0.2924,space,0.6209,,,,,,,,0,34,34,120,1,,
6149a2480ec7bd14c9fe92a5,2023-06-16_10h30.36.674,phx_ver10,2022.2.5,Win32,60.03121623,,,,,,,,,,,,64,testing_3,zh2j,e,zh2j_e,zh2j_8_eje.wav,zh2j_1_ezhe.wav,,FALSE,FALSE,,,,,,,,,,,,,,f,0.1172,space,0.4195,,,,,,,,0,35,35,63,1,,
6149a2480ec7bd14c9fe92a5,2023-06-16_10h30.36.674,phx_ver10,2022.2.5,Win32,60.03121623,,,,,,,,,,,,73,testing_3,j2x,a,j2x_a,j2x_1_aja.wav,j2x_1_aja.wav,,TRUE,FALSE,,,,,,,,,,,,,,f,0.1166,space,0.3731,,,,,,,,0,36,36,72,1,,
6149a2480ec7bd14c9fe92a5,2023-06-16_10h30.36.674,phx_ver10,2022.2.5,Win32,60.03121623,,,,,,,,,,,,132,testing_3,sh2j,au,sh2j_au,sh2j_8_aujau.wav,sh2j_1_aushau.wav,,FALSE,FALSE,,,,,,,,,,,,,,j,0.0906,space,0.4672,,,,,,,,0,37,37,131,1,,
6149a2480ec7bd14c9fe92a5,2023-06-16_10h30.36.674,phx_ver10,2022.2.5,Win32,60.03121623,,,,,,,,,,,,47,testing_3,zh2sh,i,zh2sh_i,zh2sh_1_izhi.wav,zh2sh_8_ishi.wav,,FALSE,FALSE,,,,,,,,,,,,,,j,0.1702,space,0.5169,,,,,,,,0,38,38,46,1,,
6149a2480ec7bd14c9fe92a5,2023-06-16_10h30.36.674,phx_ver10,2022.2.5,Win32,60.03121623,,,,,,,,,,,,122,testing_3,sh2j,a,sh2j_a,sh2j_8_aja.wav,sh2j_8_aja.wav,,TRUE,FALSE,,,,,,,,,,,,,,f,0.7024,space,1.1187,,,,,,,,0,39,39,121,1,,
6149a2480ec7bd14c9fe92a5,2023-06-16_10h30.36.674,phx_ver10,2022.2.5,Win32,60.03121623,,,,,,,,,,,,100,testing_3,sh2x,a,sh2x_a,sh2x_8_axa.wav,sh2x_1_asha.wav,,FALSE,FALSE,,,,,,,,,,,,,,j,0.1669,space,0.5183,,,,,,,,0,40,40,99,1,,
6149a2480ec7bd14c9fe92a5,2023-06-16_10h30.36.674,phx_ver10,2022.2.5,Win32,60.03121623,,,,,,,,,,,,43,testing_3,zh2sh,ei,zh2sh_ei,zh2sh_1_eizhei.wav,zh2sh_8_eishei.wav,,FALSE,FALSE,,,,,,,,,,,,,,j,0.0354,space,0.435,,,,,,,,0,41,41,42,1,,
6149a2480ec7bd14c9fe92a5,2023-06-16_10h30.36.674,phx_ver10,2022.2.5,Win32,60.03121623,,,,,,,,,,,,16,testing_2,zh2x,ai,zh2x_ai,zh2x_8_aixai.wav,zh2x_1_aizhai.wav,,FALSE,FALSE,,,,,,,,,,,,,,j,0.0046,space,0.3414,,,,,,,,0,42,42,15,1,,
6149a2480ec7bd14c9fe92a5,2023-06-16_10h30.36.674,phx_ver10,2022.2.5,Win32,60.03121623,,,,,,,,,,,,61,testing_3,zh2j,e,zh2j_e,zh2j_1_ezhe.wav,zh2j_1_ezhe.wav,,TRUE,FALSE,,,,,,,,,,,,,,f,0.2342,space,0.5218,,,,,,,,0,43,43,60,1,,
6149a2480ec7bd14c9fe92a5,2023-06-16_10h30.36.674,phx_ver10,2022.2.5,Win32,60.03121623,,,,,,,,,,,,103,testing_3,sh2x,ai,sh2x_ai,sh2x_1_aishai.wav,sh2x_8_aixai.wav,,FALSE,FALSE,,,,,,,,,,,,,,j,0.1497,space,0.4707,,,,,,,,0,44,44,102,1,,
6149a2480ec7bd14c9fe92a5,2023-06-16_10h30.36.674,phx_ver10,2022.2.5,Win32,60.03121623,,,,,,,,,,,,2,testing_1,zh2x,a,zh2x_a,zh2x_8_axa.wav,zh2x_8_axa_copy.wav,,TRUE,TRUE,,,,,,,,,,,,,,f,0.2868,space,0.5829,,,,,,,,0,45,45,1,1,,
6149a2480ec7bd14c9fe92a5,2023-06-16_10h30.36.674,phx_ver10,2022.2.5,Win32,60.03121623,,,,,,,,,,,,10,testing_1,zh2x,i,zh2x_i,zh2x_8_ixi.wav,zh2x_8_ixi_copy.wav,,TRUE,TRUE,,,,,,,,,,,,,,f,0.0345,space,0.3387,,,,,,,,0,46,46,9,1,,
6149a2480ec7bd14c9fe92a5,2023-06-16_10h30.36.674,phx_ver10,2022.2.5,Win32,60.03121623,,,,,,,,,,,,41,testing_3,zh2sh,ei,zh2sh_ei,zh2sh_1_eizhei.wav,zh2sh_1_eizhei.wav,,TRUE,FALSE,,,,,,,,,,,,,,f,0.0752,space,0.3947,,,,,,,,0,47,47,40,1,,
6149a2480ec7bd14c9fe92a5,2023-06-16_10h30.36.674,phx_ver10,2022.2.5,Win32,60.03121623,,,,,,,,,,,,136,testing_3,sh2j,e,sh2j_e,sh2j_8_eje.wav,sh2j_1_eshe.wav,,FALSE,FALSE,,,,,,,,,,,,,,j,0.1208,space,0.4366,,,,,,,,0,48,48,135,1,,
6149a2480ec7bd14c9fe92a5,2023-06-16_10h30.36.674,phx_ver10,2022.2.5,Win32,60.03121623,,,,,,,,,,,,63,testing_3,zh2j,e,zh2j_e,zh2j_1_ezhe.wav,zh2j_8_eje.wav,,FALSE,FALSE,,,,,,,,,,,,,,f,0.0352,space,0.4007,,,,,,,,0,49,49,62,1,,
6149a2480ec7bd14c9fe92a5,2023-06-16_10h30.36.674,phx_ver10,2022.2.5,Win32,60.03121623,,,,,,,,,,,,83,testing_3,j2x,au,j2x_au,j2x_1_aujau.wav,j2x_8_auxau.wav,,FALSE,FALSE,,,,,,,,,,,,,,j,0.2254,space,0.5453,,,,,,,,0,50,50,82,1,,
6149a2480ec7bd14c9fe92a5,2023-06-16_10h30.36.674,phx_ver10,2022.2.5,Win32,60.03121623,,,,,,,,,,,,23,testing_2,zh2x,ei,zh2x_ei,zh2x_1_eizhei.wav,zh2x_8_eixei.wav,,FALSE,FALSE,,,,,,,,,,,,,,j,0.1251,space,0.4345,,,,,,,,0,51,51,22,1,,
6149a2480ec7bd14c9fe92a5,2023-06-16_10h30.36.674,phx_ver10,2022.2.5,Win32,60.03121623,,,,,,,,,,,,91,testing_3,j2x,ei,j2x_ei,j2x_1_eijei.wav,j2x_8_eixei.wav,,FALSE,FALSE,,,,,,,,,,,,,,j,0.1528,space,0.5353,,,,,,,,0,52,52,90,1,,
6149a2480ec7bd14c9fe92a5,2023-06-16_10h30.36.674,phx_ver10,2022.2.5,Win32,60.03121623,,,,,,,,,,,,112,testing_3,sh2x,e,sh2x_e,sh2x_8_exe.wav,sh2x_1_eshe.wav,,FALSE,FALSE,,,,,,,,,,,,,,j,0.5508,space,0.9011,,,,,,,,0,53,53,111,1,,
6149a2480ec7bd14c9fe92a5,2023-06-16_10h30.36.674,phx_ver10,2022.2.5,Win32,60.03121623,,,,,,,,,,,,126,testing_3,sh2j,ai,sh2j_ai,sh2j_8_aijai.wav,sh2j_8_aijai.wav,,TRUE,FALSE,,,,,,,,,,,,,,f,0.0686,space,0.4007,,,,,,,,0,54,54,125,1,,
6149a2480ec7bd14c9fe92a5,2023-06-16_10h30.36.674,phx_ver10,2022.2.5,Win32,60.03121623,,,,,,,,,,,,93,testing_3,j2x,i,j2x_i,j2x_1_iji.wav,j2x_1_iji.wav,,TRUE,FALSE,,,,,,,,,,,,,,f,0.0591,space,0.3191,,,,,,,,0,55,55,92,1,,
6149a2480ec7bd14c9fe92a5,2023-06-16_10h30.36.674,phx_ver10,2022.2.5,Win32,60.03121623,,,,,,,,,,,,92,testing_3,j2x,ei,j2x_ei,j2x_8_eixei.wav,j2x_1_eijei.wav,,FALSE,FALSE,,,,,,,,,,,,,,j,0.5529,space,0.7486,,,,,,,,0,56,56,91,1,,
6149a2480ec7bd14c9fe92a5,2023-06-16_10h30.36.674,phx_ver10,2022.2.5,Win32,60.03121623,,,,,,,,,,,,86,testing_3,j2x,e,j2x_e,j2x_8_exe.wav,j2x_8_exe.wav,,TRUE,FALSE,,,,,,,,,,,,,,f,0.0008,space,0.3188,,,,,,,,0,57,57,85,1,,
6149a2480ec7bd14c9fe92a5,2023-06-16_10h30.36.674,phx_ver10,2022.2.5,Win32,60.03121623,,,,,,,,,,,,88,testing_3,j2x,e,j2x_e,j2x_8_exe.wav,j2x_1_eje.wav,,FALSE,FALSE,,,,,,,,,,,,,,j,0.0071,space,0.3,,,,,,,,0,58,58,87,1,,
6149a2480ec7bd14c9fe92a5,2023-06-16_10h30.36.674,phx_ver10,2022.2.5,Win32,60.03121623,,,,,,,,,,,,89,testing_3,j2x,ei,j2x_ei,j2x_1_eijei.wav,j2x_1_eijei.wav,,TRUE,FALSE,,,,,,,,,,,,,,f,0.0903,space,0.3499,,,,,,,,0,59,59,88,1,,
6149a2480ec7bd14c9fe92a5,2023-06-16_10h30.36.674,phx_ver10,2022.2.5,Win32,60.03121623,,,,,,,,,,,,31,testing_3,zh2sh,ai,zh2sh_ai,zh2sh_1_aizhai.wav,zh2sh_8_aishai.wav,,FALSE,FALSE,,,,,,,,,,,,,,j,0.8178,space,1.2963,,,,,,,,0,60,60,30,1,,
6149a2480ec7bd14c9fe92a5,2023-06-16_10h30.36.674,phx_ver10,2022.2.5,Win32,60.03121623,,,,,,,,,,,,94,testing_3,j2x,i,j2x_i,j2x_8_ixi.wav,j2x_8_ixi.wav,,TRUE,FALSE,,,,,,,,,,,,,,f,0.3996,space,0.7005,,,,,,,,0,61,61,93,1,,
6149a2480ec7bd14c9fe92a5,2023-06-16_10h30.36.674,phx_ver10,2022.2.5,Win32,60.03121623,,,,,,,,,,,,27,testing_3,zh2sh,a,zh2sh_a,zh2sh_1_azha.wav,zh2sh_8_asha.wav,,FALSE,FALSE,,,,,,,,,,,,,,j,0.2747,space,0.6583,,,,,,,,0,62,62,26,1,,
6149a2480ec7bd14c9fe92a5,2023-06-16_10h30.36.674,phx_ver10,2022.2.5,Win32,60.03121623,,,,,,,,,,,,109,testing_3,sh2x,e,sh2x_e,sh2x_1_eshe.wav,sh2x_1_eshe.wav,,TRUE,FALSE,,,,,,,,,,,,,,f,0.1848,space,0.5673,,,,,,,,0,63,63,108,1,,
6149a2480ec7bd14c9fe92a5,2023-06-16_10h30.36.674,phx_ver10,2022.2.5,Win32,60.03121623,,,,,,,,,,,,137,testing_3,sh2j,ei,sh2j_ei,sh2j_1_eishei.wav,sh2j_1_eishei.wav,,TRUE,FALSE,,,,,,,,,,,,,,f,0.2876,space,0.6189,,,,,,,,0,64,64,136,1,,
6149a2480ec7bd14c9fe92a5,2023-06-16_10h30.36.674,phx_ver10,2022.2.5,Win32,60.03121623,,,,,,,,,,,,131,testing_3,sh2j,au,sh2j_au,sh2j_1_aushau.wav,sh2j_8_aujau.wav,,FALSE,FALSE,,,,,,,,,,,,,,j,0.141,space,0.5203,,,,,,,,0,65,65,130,1,,
6149a2480ec7bd14c9fe92a5,2023-06-16_10h30.36.674,phx_ver10,2022.2.5,Win32,60.03121623,,,,,,,,,,,,85,testing_3,j2x,e,j2x_e,j2x_1_eje.wav,j2x_1_eje.wav,,TRUE,FALSE,,,,,,,,,,,,,,f,0.2524,space,0.5901,,,,,,,,0,66,66,84,1,,
6149a2480ec7bd14c9fe92a5,2023-06-16_10h30.36.674,phx_ver10,2022.2.5,Win32,60.03121623,,,,,,,,,,,,13,testing_2,zh2x,ai,zh2x_ai,zh2x_1_aizhai.wav,zh2x_1_aizhai.wav,,TRUE,FALSE,,,,,,,,,,,,,,f,0.1969,space,0.5357,,,,,,,,0,67,67,12,1,,
6149a2480ec7bd14c9fe92a5,2023-06-16_10h30.36.674,phx_ver10,2022.2.5,Win32,60.03121623,,,,,,,,,,,,59,testing_3,zh2j,au,zh2j_au,zh2j_1_auzhau.wav,zh2j_8_aujau.wav,,FALSE,FALSE,,,,,,,,,,,,,,f,0.0949,space,0.4448,,,,,,,,0,68,68,58,1,,
6149a2480ec7bd14c9fe92a5,2023-06-16_10h30.36.674,phx_ver10,2022.2.5,Win32,60.03121623,,,,,,,,,,,,34,testing_3,zh2sh,au,zh2sh_au,zh2sh_8_aushau.wav,zh2sh_8_aushau.wav,,TRUE,FALSE,,,,,,,,,,,,,,f,0.2069,space,0.6008,,,,,,,,0,69,69,33,1,,
6149a2480ec7bd14c9fe92a5,2023-06-16_10h30.36.674,phx_ver10,2022.2.5,Win32,60.03121623,,,,,,,,,,,,33,testing_3,zh2sh,au,zh2sh_au,zh2sh_1_auzhau.wav,zh2sh_1_auzhau.wav,,TRUE,FALSE,,,,,,,,,,,,,,f,0.3012,space,1.3883,,,,,,,,0,70,70,32,1,,
6149a2480ec7bd14c9fe92a5,2023-06-16_10h30.36.674,phx_ver10,2022.2.5,Win32,60.03121623,,,,,,,,,,,,124,testing_3,sh2j,a,sh2j_a,sh2j_8_aja.wav,sh2j_1_asha.wav,,FALSE,FALSE,,,,,,,,,,,,,,j,0.1967,space,1.0982,,,,,,,,0,71,71,123,1,,
6149a2480ec7bd14c9fe92a5,2023-06-16_10h30.36.674,phx_ver10,2022.2.5,Win32,60.03121623,,,,,,,,,,,,62,testing_3,zh2j,e,zh2j_e,zh2j_8_eje.wav,zh2j_8_eje.wav,,TRUE,FALSE,,,,,,,,,,,,,,f,4.6022,space,6.6336,,,,,,,,0,72,72,61,1,,
6149a2480ec7bd14c9fe92a5,2023-06-16_10h30.36.674,phx_ver10,2022.2.5,Win32,60.03121623,,,,,,,,,,,,135,testing_3,sh2j,e,sh2j_e,sh2j_1_eshe.wav,sh2j_8_eje.wav,,FALSE,FALSE,,,,,,,,,,,,,,j,0.0439,space,0.4691,,,,,,,,0,73,73,134,1,,
6149a2480ec7bd14c9fe92a5,2023-06-16_10h30.36.674,phx_ver10,2022.2.5,Win32,60.03121623,,,,,,,,,,,,116,testing_3,sh2x,ei,sh2x_ei,sh2x_8_eixei.wav,sh2x_1_eishei.wav,,FALSE,FALSE,,,,,,,,,,,,,,f,0.3533,space,0.8345,,,,,,,,0,74,74,115,1,,
6149a2480ec7bd14c9fe92a5,2023-06-16_10h30.36.674,phx_ver10,2022.2.5,Win32,60.03121623,,,,,,,,,,,,5,testing_1,zh2x,e,zh2x_e,zh2x_1_ezhe.wav,zh2x_1_ezhe_copy.wav,,TRUE,TRUE,,,,,,,,,,,,,,f,0.2197,space,0.6479,,,,,,,,0,75,75,4,1,,
6149a2480ec7bd14c9fe92a5,2023-06-16_10h30.36.674,phx_ver10,2022.2.5,Win32,60.03121623,,,,,,,,,,,,90,testing_3,j2x,ei,j2x_ei,j2x_8_eixei.wav,j2x_8_eixei.wav,,TRUE,FALSE,,,,,,,,,,,,,,f,0.2342,space,0.6203,,,,,,,,0,76,76,89,1,,
6149a2480ec7bd14c9fe92a5,2023-06-16_10h30.36.674,phx_ver10,2022.2.5,Win32,60.03121623,,,,,,,,,,,,139,testing_3,sh2j,ei,sh2j_ei,sh2j_1_eishei.wav,sh2j_8_eijei.wav,,FALSE,FALSE,,,,,,,,,,,,,,j,0.2976,space,0.6668,,,,,,,,0,77,77,138,1,,
6149a2480ec7bd14c9fe92a5,2023-06-16_10h30.36.674,phx_ver10,2022.2.5,Win32,60.03121623,,,,,,,,,,,,77,testing_3,j2x,ai,j2x_ai,j2x_1_aijai.wav,j2x_1_aijai.wav,,TRUE,FALSE,,,,,,,,,,,,,,f,0.0702,space,0.4863,,,,,,,,0,78,78,76,1,,
6149a2480ec7bd14c9fe92a5,2023-06-16_10h30.36.674,phx_ver10,2022.2.5,Win32,60.03121623,,,,,,,,,,,,66,testing_3,zh2j,ei,zh2j_ei,zh2j_8_eijei.wav,zh2j_8_eijei.wav,,TRUE,FALSE,,,,,,,,,,,,,,f,0.0842,space,0.5494,,,,,,,,0,79,79,65,1,,
6149a2480ec7bd14c9fe92a5,2023-06-16_10h30.36.674,phx_ver10,2022.2.5,Win32,60.03121623,,,,,,,,,,,,67,testing_3,zh2j,ei,zh2j_ei,zh2j_1_eizhei.wav,zh2j_8_eijei.wav,,FALSE,FALSE,,,,,,,,,,,,,,f,0.0583,space,0.6108,,,,,,,,0,80,80,66,1,,
6149a2480ec7bd14c9fe92a5,2023-06-16_10h30.36.674,phx_ver10,2022.2.5,Win32,60.03121623,,,,,,,,,,,,38,testing_3,zh2sh,e,zh2sh_e,zh2sh_8_eshe.wav,zh2sh_8_eshe.wav,,TRUE,FALSE,,,,,,,,,,,,,,f,0.2902,space,0.6995,,,,,,,,0,81,81,37,1,,
6149a2480ec7bd14c9fe92a5,2023-06-16_10h30.36.674,phx_ver10,2022.2.5,Win32,60.03121623,,,,,,,,,,,,115,testing_3,sh2x,ei,sh2x_ei,sh2x_1_eishei.wav,sh2x_8_eixei.wav,,FALSE,FALSE,,,,,,,,,,,,,,f,0.1548,space,0.491,,,,,,,,0,82,82,114,1,,
6149a2480ec7bd14c9fe92a5,2023-06-16_10h30.36.674,phx_ver10,2022.2.5,Win32,60.03121623,,,,,,,,,,,,76,testing_3,j2x,a,j2x_a,j2x_8_axa.wav,j2x_1_aja.wav,,FALSE,FALSE,,,,,,,,,,,,,,j,0.2843,space,0.6674,,,,,,,,0,83,83,75,1,,
6149a2480ec7bd14c9fe92a5,2023-06-16_10h30.36.674,phx_ver10,2022.2.5,Win32,60.03121623,,,,,,,,,,,,28,testing_3,zh2sh,a,zh2sh_a,zh2sh_8_asha.wav,zh2sh_1_azha.wav,,FALSE,FALSE,,,,,,,,,,,,,,j,0.3388,space,0.7889,,,,,,,,0,84,84,27,1,,
6149a2480ec7bd14c9fe92a5,2023-06-16_10h30.36.674,phx_ver10,2022.2.5,Win32,60.03121623,,,,,,,,,,,,45,testing_3,zh2sh,i,zh2sh_i,zh2sh_1_izhi.wav,zh2sh_1_izhi.wav,,TRUE,FALSE,,,,,,,,,,,,,,f,0.3176,space,0.909,,,,,,,,0,85,85,44,1,,
6149a2480ec7bd14c9fe92a5,2023-06-16_10h30.36.674,phx_ver10,2022.2.5,Win32,60.03121623,,,,,,,,,,,,95,testing_3,j2x,i,j2x_i,j2x_1_iji.wav,j2x_8_ixi.wav,,FALSE,FALSE,,,,,,,,,,,,,,j,0.3365,space,0.8367,,,,,,,,0,86,86,94,1,,
6149a2480ec7bd14c9fe92a5,2023-06-16_10h30.36.674,phx_ver10,2022.2.5,Win32,60.03121623,,,,,,,,,,,,72,testing_3,zh2j,i,zh2j_i,zh2j_8_iji.wav,zh2j_1_izhi.wav,,FALSE,FALSE,,,,,,,,,,,,,,f,0.3243,space,0.7089,,,,,,,,0,87,87,71,1,,
6149a2480ec7bd14c9fe92a5,2023-06-16_10h30.36.674,phx_ver10,2022.2.5,Win32,60.03121623,,,,,,,,,,,,127,testing_3,sh2j,ai,sh2j_ai,sh2j_1_aishai.wav,sh2j_8_aijai.wav,,FALSE,FALSE,,,,,,,,,,,,,,j,0.534,space,0.9067,,,,,,,,0,88,88,126,1,,
6149a2480ec7bd14c9fe92a5,2023-06-16_10h30.36.674,phx_ver10,2022.2.5,Win32,60.03121623,,,,,,,,,,,,74,testing_3,j2x,a,j2x_a,j2x_8_axa.wav,j2x_8_axa.wav,,TRUE,FALSE,,,,,,,,,,,,,,f,0.2173,space,0.5672,,,,,,,,0,89,89,73,1,,
6149a2480ec7bd14c9fe92a5,2023-06-16_10h30.36.674,phx_ver10,2022.2.5,Win32,60.03121623,,,,,,,,,,,,8,testing_1,zh2x,e,zh2x_e,zh2x_8_exe.wav,zh2x_1_ezhe.wav,,FALSE,TRUE,,,,,,,,,,,,,,j,0.1718,space,0.6682,,,,,,,,0,90,90,7,1,,
6149a2480ec7bd14c9fe92a5,2023-06-16_10h30.36.674,phx_ver10,2022.2.5,Win32,60.03121623,,,,,,,,,,,,129,testing_3,sh2j,au,sh2j_au,sh2j_1_aushau.wav,sh2j_1_aushau.wav,,TRUE,FALSE,,,,,,,,,,,,,,f,0.3837,space,0.7351,,,,,,,,0,91,91,128,1,,
6149a2480ec7bd14c9fe92a5,2023-06-16_10h30.36.674,phx_ver10,2022.2.5,Win32,60.03121623,,,,,,,,,,,,21,testing_2,zh2x,ei,zh2x_ei,zh2x_1_eizhei.wav,zh2x_1_eizhei.wav,,TRUE,FALSE,,,,,,,,,,,,,,f,0.2502,space,0.6344,,,,,,,,0,92,92,20,1,,
6149a2480ec7bd14c9fe92a5,2023-06-16_10h30.36.674,phx_ver10,2022.2.5,Win32,60.03121623,,,,,,,,,,,,114,testing_3,sh2x,ei,sh2x_ei,sh2x_8_eixei.wav,sh2x_8_eixei.wav,,TRUE,FALSE,,,,,,,,,,,,,,f,0.0705,space,0.4607,,,,,,,,0,93,93,113,1,,
6149a2480ec7bd14c9fe92a5,2023-06-16_10h30.36.674,phx_ver10,2022.2.5,Win32,60.03121623,,,,,,,,,,,,70,testing_3,zh2j,i,zh2j_i,zh2j_8_iji.wav,zh2j_8_iji.wav,,TRUE,FALSE,,,,,,,,,,,,,,f,0.2567,space,0.6082,,,,,,,,0,94,94,69,1,,
6149a2480ec7bd14c9fe92a5,2023-06-16_10h30.36.674,phx_ver10,2022.2.5,Win32,60.03121623,,,,,,,,,,,,82,testing_3,j2x,au,j2x_au,j2x_8_auxau.wav,j2x_8_auxau.wav,,TRUE,FALSE,,,,,,,,,,,,,,f,0.1981,space,0.6948,,,,,,,,0,95,95,81,1,,
6149a2480ec7bd14c9fe92a5,2023-06-16_10h30.36.674,phx_ver10,2022.2.5,Win32,60.03121623,,,,,,,,,,,,29,testing_3,zh2sh,ai,zh2sh_ai,zh2sh_1_aizhai.wav,zh2sh_1_aizhai.wav,,TRUE,FALSE,,,,,,,,,,,,,,f,0.3047,space,0.6258,,,,,,,,0,96,96,28,1,,
6149a2480ec7bd14c9fe92a5,2023-06-16_10h30.36.674,phx_ver10,2022.2.5,Win32,60.03121623,,,,,,,,,,,,80,testing_3,j2x,ai,j2x_ai,j2x_8_aixai.wav,j2x_1_aijai.wav,,FALSE,FALSE,,,,,,,,,,,,,,j,0.0504,space,0.4003,,,,,,,,0,97,97,79,1,,
6149a2480ec7bd14c9fe92a5,2023-06-16_10h30.36.674,phx_ver10,2022.2.5,Win32,60.03121623,,,,,,,,,,,,107,testing_3,sh2x,au,sh2x_au,sh2x_1_aushau.wav,sh2x_8_auxau.wav,,FALSE,FALSE,,,,,,,,,,,,,,j,0.2541,space,0.589,,,,,,,,0,98,98,106,1,,
6149a2480ec7bd14c9fe92a5,2023-06-16_10h30.36.674,phx_ver10,2022.2.5,Win32,60.03121623,,,,,,,,,,,,35,testing_3,zh2sh,au,zh2sh_au,zh2sh_1_auzhau.wav,zh2sh_8_aushau.wav,,FALSE,FALSE,,,,,,,,,,,,,,j,0.2178,space,0.6124,,,,,,,,0,99,99,34,1,,
6149a2480ec7bd14c9fe92a5,2023-06-16_10h30.36.674,phx_ver10,2022.2.5,Win32,60.03121623,,,,,,,,,,,,42,testing_3,zh2sh,ei,zh2sh_ei,zh2sh_8_eishei.wav,zh2sh_8_eishei.wav,,TRUE,FALSE,,,,,,,,,,,,,,f,8.8844,space,9.2444,,,,,,,,0,100,100,41,1,,
6149a2480ec7bd14c9fe92a5,2023-06-16_10h30.36.674,phx_ver10,2022.2.5,Win32,60.03121623,,,,,,,,,,,,44,testing_3,zh2sh,ei,zh2sh_ei,zh2sh_8_eishei.wav,zh2sh_1_eizhei.wav,,FALSE,FALSE,,,,,,,,,,,,,,j,0.3441,space,0.6957,,,,,,,,0,101,101,43,1,,
6149a2480ec7bd14c9fe92a5,2023-06-16_10h30.36.674,phx_ver10,2022.2.5,Win32,60.03121623,,,,,,,,,,,,101,testing_3,sh2x,ai,sh2x_ai,sh2x_1_aishai.wav,sh2x_1_aishai.wav,,TRUE,FALSE,,,,,,,,,,,,,,f,0.1862,space,0.5405,,,,,,,,0,102,102,100,1,,
6149a2480ec7bd14c9fe92a5,2023-06-16_10h30.36.674,phx_ver10,2022.2.5,Win32,60.03121623,,,,,,,,,,,,30,testing_3,zh2sh,ai,zh2sh_ai,zh2sh_8_aishai.wav,zh2sh_8_aishai.wav,,TRUE,FALSE,,,,,,,,,,,,,,f,0.1297,space,0.4447,,,,,,,,0,103,103,29,1,,
6149a2480ec7bd14c9fe92a5,2023-06-16_10h30.36.674,phx_ver10,2022.2.5,Win32,60.03121623,,,,,,,,,,,,25,testing_3,zh2sh,a,zh2sh_a,zh2sh_1_azha.wav,zh2sh_1_azha.wav,,TRUE,FALSE,,,,,,,,,,,,,,f,0.0561,space,0.3535,,,,,,,,0,104,104,24,1,,
6149a2480ec7bd14c9fe92a5,2023-06-16_10h30.36.674,phx_ver10,2022.2.5,Win32,60.03121623,,,,,,,,,,,,14,testing_2,zh2x,ai,zh2x_ai,zh2x_8_aixai.wav,zh2x_8_aixai.wav,,TRUE,FALSE,,,,,,,,,,,,,,f,0.0844,space,0.3839,,,,,,,,0,105,105,13,1,,
6149a2480ec7bd14c9fe92a5,2023-06-16_10h30.36.674,phx_ver10,2022.2.5,Win32,60.03121623,,,,,,,,,,,,71,testing_3,zh2j,i,zh2j_i,zh2j_1_izhi.wav,zh2j_8_iji.wav,,FALSE,FALSE,,,,,,,,,,,,,,f,0.2264,space,0.5333,,,,,,,,0,106,106,70,1,,
6149a2480ec7bd14c9fe92a5,2023-06-16_10h30.36.674,phx_ver10,2022.2.5,Win32,60.03121623,,,,,,,,,,,,118,testing_3,sh2x,i,sh2x_i,sh2x_8_ixi.wav,sh2x_8_ixi.wav,,TRUE,FALSE,,,,,,,,,,,,,,j,0.0238,space,0.3192,,,,,,,,0,107,107,117,1,,
6149a2480ec7bd14c9fe92a5,2023-06-16_10h30.36.674,phx_ver10,2022.2.5,Win32,60.03121623,,,,,,,,,,,,40,testing_3,zh2sh,e,zh2sh_e,zh2sh_8_eshe.wav,zh2sh_1_ezhe.wav,,FALSE,FALSE,,,,,,,,,,,,,,j,0.1331,space,0.4521,,,,,,,,0,108,108,39,1,,
6149a2480ec7bd14c9fe92a5,2023-06-16_10h30.36.674,phx_ver10,2022.2.5,Win32,60.03121623,,,,,,,,,,,,46,testing_3,zh2sh,i,zh2sh_i,zh2sh_8_ishi.wav,zh2sh_8_ishi.wav,,TRUE,FALSE,,,,,,,,,,,,,,f,0.2946,space,0.6175,,,,,,,,0,109,109,45,1,,
6149a2480ec7bd14c9fe92a5,2023-06-16_10h30.36.674,phx_ver10,2022.2.5,Win32,60.03121623,,,,,,,,,,,,128,testing_3,sh2j,ai,sh2j_ai,sh2j_8_aijai.wav,sh2j_1_aishai.wav,,FALSE,FALSE,,,,,,,,,,,,,,j,0.0244,space,0.4514,,,,,,,,0,110,110,127,1,,
6149a2480ec7bd14c9fe92a5,2023-06-16_10h30.36.674,phx_ver10,2022.2.5,Win32,60.03121623,,,,,,,,,,,,56,testing_3,zh2j,ai,zh2j_ai,zh2j_8_aijai.wav,zh2j_1_aizhai.wav,,FALSE,FALSE,,,,,,,,,,,,,,f,0.0009,space,0.3151,,,,,,,,0,111,111,55,1,,
6149a2480ec7bd14c9fe92a5,2023-06-16_10h30.36.674,phx_ver10,2022.2.5,Win32,60.03121623,,,,,,,,,,,,79,testing_3,j2x,ai,j2x_ai,j2x_1_aijai.wav,j2x_8_aixai.wav,,FALSE,FALSE,,,,,,,,,,,,,,j,0.0354,space,0.3665,,,,,,,,0,112,112,78,1,,
6149a2480ec7bd14c9fe92a5,2023-06-16_10h30.36.674,phx_ver10,2022.2.5,Win32,60.03121623,,,,,,,,,,,,57,testing_3,zh2j,au,zh2j_au,zh2j_1_auzhau.wav,zh2j_1_auzhau.wav,,TRUE,FALSE,,,,,,,,,,,,,,f,0.1085,space,0.4346,,,,,,,,0,113,113,56,1,,
6149a2480ec7bd14c9fe92a5,2023-06-16_10h30.36.674,phx_ver10,2022.2.5,Win32,60.03121623,,,,,,,,,,,,111,testing_3,sh2x,e,sh2x_e,sh2x_1_eshe.wav,sh2x_8_exe.wav,,FALSE,FALSE,,,,,,,,,,,,,,j,0.1402,space,0.468,,,,,,,,0,114,114,110,1,,
6149a2480ec7bd14c9fe92a5,2023-06-16_10h30.36.674,phx_ver10,2022.2.5,Win32,60.03121623,,,,,,,,,,,,120,testing_3,sh2x,i,sh2x_i,sh2x_8_ixi.wav,sh2x_1_ishi.wav,,FALSE,FALSE,,,,,,,,,,,,,,j,0.2925,space,0.5845,,,,,,,,0,115,115,119,1,,
6149a2480ec7bd14c9fe92a5,2023-06-16_10h30.36.674,phx_ver10,2022.2.5,Win32,60.03121623,,,,,,,,,,,,123,testing_3,sh2j,a,sh2j_a,sh2j_1_asha.wav,sh2j_8_aja.wav,,FALSE,FALSE,,,,,,,,,,,,,,j,0.3325,space,0.7798,,,,,,,,0,116,116,122,1,,
6149a2480ec7bd14c9fe92a5,2023-06-16_10h30.36.674,phx_ver10,2022.2.5,Win32,60.03121623,,,,,,,,,,,,125,testing_3,sh2j,ai,sh2j_ai,sh2j_1_aishai.wav,sh2j_1_aishai.wav,,TRUE,FALSE,,,,,,,,,,,,,,f,0.056,space,0.3845,,,,,,,,0,117,117,124,1,,
6149a2480ec7bd14c9fe92a5,2023-06-16_10h30.36.674,phx_ver10,2022.2.5,Win32,60.03121623,,,,,,,,,,,,55,testing_3,zh2j,ai,zh2j_ai,zh2j_1_aizhai.wav,zh2j_8_aijai.wav,,FALSE,FALSE,,,,,,,,,,,,,,f,0.1234,space,0.4033,,,,,,,,0,118,118,54,1,,
6149a2480ec7bd14c9fe92a5,2023-06-16_10h30.36.674,phx_ver10,2022.2.5,Win32,60.03121623,,,,,,,,,,,,58,testing_3,zh2j,au,zh2j_au,zh2j_8_aujau.wav,zh2j_8_aujau.wav,,TRUE,FALSE,,,,,,,,,,,,,,f,1.9515,space,8.1009,,,,,,,,0,119,119,57,1,,
6149a2480ec7bd14c9fe92a5,2023-06-16_10h30.36.674,phx_ver10,2022.2.5,Win32,60.03121623,,,,,,,,,,,,96,testing_3,j2x,i,j2x_i,j2x_8_ixi.wav,j2x_1_iji.wav,,FALSE,FALSE,,,,,,,,,,,,,,f,0.2027,space,0.5902,,,,,,,,0,120,120,95,1,,
6149a2480ec7bd14c9fe92a5,2023-06-16_10h30.36.674,phx_ver10,2022.2.5,Win32,60.03121623,,,,,,,,,,,,119,testing_3,sh2x,i,sh2x_i,sh2x_1_ishi.wav,sh2x_8_ixi.wav,,FALSE,FALSE,,,,,,,,,,,,,,f,0.005,space,0.336,,,,,,,,0,121,121,118,1,,
6149a2480ec7bd14c9fe92a5,2023-06-16_10h30.36.674,phx_ver10,2022.2.5,Win32,60.03121623,,,,,,,,,,,,60,testing_3,zh2j,au,zh2j_au,zh2j_8_aujau.wav,zh2j_1_auzhau.wav,,FALSE,FALSE,,,,,,,,,,,,,,f,0.5014,space,0.822,,,,,,,,0,122,122,59,1,,
6149a2480ec7bd14c9fe92a5,2023-06-16_10h30.36.674,phx_ver10,2022.2.5,Win32,60.03121623,,,,,,,,,,,,48,testing_3,zh2sh,i,zh2sh_i,zh2sh_8_ishi.wav,zh2sh_1_izhi.wav,,FALSE,FALSE,,,,,,,,,,,,,,j,0.3524,space,2.2386,,,,,,,,0,123,123,47,1,,
6149a2480ec7bd14c9fe92a5,2023-06-16_10h30.36.674,phx_ver10,2022.2.5,Win32,60.03121623,,,,,,,,,,,,117,testing_3,sh2x,i,sh2x_i,sh2x_1_ishi.wav,sh2x_1_ishi.wav,,TRUE,FALSE,,,,,,,,,,,,,,f,0.352,space,137.4841,,,,,,,,0,124,124,116,1,,
6149a2480ec7bd14c9fe92a5,2023-06-16_10h30.36.674,phx_ver10,2022.2.5,Win32,60.03121623,,,,,,,,,,,,22,testing_2,zh2x,ei,zh2x_ei,zh2x_8_eixei.wav,zh2x_8_eixei.wav,,TRUE,FALSE,,,,,,,,,,,,,,f,0.0223,space,0.4863,,,,,,,,0,125,125,21,1,,
6149a2480ec7bd14c9fe92a5,2023-06-16_10h30.36.674,phx_ver10,2022.2.5,Win32,60.03121623,,,,,,,,,,,,26,testing_3,zh2sh,a,zh2sh_a,zh2sh_8_asha.wav,zh2sh_8_asha.wav,,TRUE,FALSE,,,,,,,,,,,,,,f,0.0839,space,0.4997,,,,,,,,0,126,126,25,1,,
6149a2480ec7bd14c9fe92a5,2023-06-16_10h30.36.674,phx_ver10,2022.2.5,Win32,60.03121623,,,,,,,,,,,,133,testing_3,sh2j,e,sh2j_e,sh2j_1_eshe.wav,sh2j_1_eshe.wav,,TRUE,FALSE,,,,,,,,,,,,,,f,0.2505,space,0.7246,,,,,,,,0,127,127,132,1,,
6149a2480ec7bd14c9fe92a5,2023-06-16_10h30.36.674,phx_ver10,2022.2.5,Win32,60.03121623,,,,,,,,,,,,37,testing_3,zh2sh,e,zh2sh_e,zh2sh_1_ezhe.wav,zh2sh_1_ezhe.wav,,TRUE,FALSE,,,,,,,,,,,,,,f,0.1188,space,0.5227,,,,,,,,0,128,128,36,1,,
6149a2480ec7bd14c9fe92a5,2023-06-16_10h30.36.674,phx_ver10,2022.2.5,Win32,60.03121623,,,,,,,,,,,,39,testing_3,zh2sh,e,zh2sh_e,zh2sh_1_ezhe.wav,zh2sh_8_eshe.wav,,FALSE,FALSE,,,,,,,,,,,,,,j,0.1684,space,0.567,,,,,,,,0,129,129,38,1,,
6149a2480ec7bd14c9fe92a5,2023-06-16_10h30.36.674,phx_ver10,2022.2.5,Win32,60.03121623,,,,,,,,,,,,84,testing_3,j2x,au,j2x_au,j2x_8_auxau.wav,j2x_1_aujau.wav,,FALSE,FALSE,,,,,,,,,,,,,,j,0.3357,space,0.6372,,,,,,,,0,130,130,83,1,,
6149a2480ec7bd14c9fe92a5,2023-06-16_10h30.36.674,phx_ver10,2022.2.5,Win32,60.03121623,,,,,,,,,,,,98,testing_3,sh2x,a,sh2x_a,sh2x_8_axa.wav,sh2x_8_axa.wav,,TRUE,FALSE,,,,,,,,,,,,,,f,0.2511,space,0.5839,,,,,,,,0,131,131,97,1,,
6149a2480ec7bd14c9fe92a5,2023-06-16_10h30.36.674,phx_ver10,2022.2.5,Win32,60.03121623,,,,,,,,,,,,54,testing_3,zh2j,ai,zh2j_ai,zh2j_8_aijai.wav,zh2j_8_aijai.wav,,TRUE,FALSE,,,,,,,,,,,,,,f,0.1713,space,0.4509,,,,,,,,0,132,132,53,1,,
6149a2480ec7bd14c9fe92a5,2023-06-16_10h30.36.674,phx_ver10,2022.2.5,Win32,60.03121623,,,,,,,,,,,,143,testing_3,sh2j,i,sh2j_i,sh2j_1_ishi.wav,sh2j_8_iji.wav,,FALSE,FALSE,,,,,,,,,,,,,,j,0.1684,space,0.5683,,,,,,,,0,133,133,142,1,,
6149a2480ec7bd14c9fe92a5,2023-06-16_10h30.36.674,phx_ver10,2022.2.5,Win32,60.03121623,,,,,,,,,,,,12,testing_1,zh2x,i,zh2x_i,zh2x_8_ixi.wav,zh2x_1_izhi.wav,,FALSE,TRUE,,,,,,,,,,,,,,j,0.6343,space,0.901,,,,,,,,0,134,134,11,1,,
6149a2480ec7bd14c9fe92a5,2023-06-16_10h30.36.674,phx_ver10,2022.2.5,Win32,60.03121623,,,,,,,,,,,,19,testing_2,zh2x,au,zh2x_au,zh2x_1_auzhau.wav,zh2x_8_auxau.wav,,FALSE,FALSE,,,,,,,,,,,,,,j,0.292,space,0.668,,,,,,,,0,135,135,18,1,,
6149a2480ec7bd14c9fe92a5,2023-06-16_10h30.36.674,phx_ver10,2022.2.5,Win32,60.03121623,,,,,,,,,,,,110,testing_3,sh2x,e,sh2x_e,sh2x_8_exe.wav,sh2x_8_exe.wav,,TRUE,FALSE,,,,,,,,,,,,,,f,0.0533,space,0.4695,,,,,,,,0,136,136,109,1,,
6149a2480ec7bd14c9fe92a5,2023-06-16_10h30.36.674,phx_ver10,2022.2.5,Win32,60.03121623,,,,,,,,,,,,53,testing_3,zh2j,ai,zh2j_ai,zh2j_1_aizhai.wav,zh2j_1_aizhai.wav,,TRUE,FALSE,,,,,,,,,,,,,,f,0.1483,space,0.5063,,,,,,,,0,137,137,52,1,,
6149a2480ec7bd14c9fe92a5,2023-06-16_10h30.36.674,phx_ver10,2022.2.5,Win32,60.03121623,,,,,,,,,,,,51,testing_3,zh2j,a,zh2j_a,zh2j_1_azha.wav,zh2j_8_aja.wav,,FALSE,FALSE,,,,,,,,,,,,,,f,0.842,space,5.1379,,,,,,,,0,138,138,50,1,,
6149a2480ec7bd14c9fe92a5,2023-06-16_10h30.36.674,phx_ver10,2022.2.5,Win32,60.03121623,,,,,,,,,,,,20,testing_2,zh2x,au,zh2x_au,zh2x_8_auxau.wav,zh2x_1_auzhau.wav,,FALSE,FALSE,,,,,,,,,,,,,,j,0.3202,space,0.6842,,,,,,,,0,139,139,19,1,,
6149a2480ec7bd14c9fe92a5,2023-06-16_10h30.36.674,phx_ver10,2022.2.5,Win32,60.03121623,,,,,,,,,,,,15,testing_2,zh2x,ai,zh2x_ai,zh2x_1_aizhai.wav,zh2x_8_aixai.wav,,FALSE,FALSE,,,,,,,,,,,,,,j,0.2665,space,0.6173,,,,,,,,0,140,140,14,1,,
6149a2480ec7bd14c9fe92a5,2023-06-16_10h30.36.674,phx_ver10,2022.2.5,Win32,60.03121623,,,,,,,,,,,,134,testing_3,sh2j,e,sh2j_e,sh2j_8_eje.wav,sh2j_8_eje.wav,,TRUE,FALSE,,,,,,,,,,,,,,f,0.352,space,0.6554,,,,,,,,0,141,141,133,1,,
6149a2480ec7bd14c9fe92a5,2023-06-16_10h30.36.674,phx_ver10,2022.2.5,Win32,60.03121623,,,,,,,,,,,,36,testing_3,zh2sh,au,zh2sh_au,zh2sh_8_aushau.wav,zh2sh_1_auzhau.wav,,FALSE,FALSE,,,,,,,,,,,,,,j,0.1688,space,0.5357,,,,,,,,0,142,142,35,1,,
6149a2480ec7bd14c9fe92a5,2023-06-16_10h30.36.674,phx_ver10,2022.2.5,Win32,60.03121623,,,,,,,,,,,,104,testing_3,sh2x,ai,sh2x_ai,sh2x_8_aixai.wav,sh2x_1_aishai.wav,,FALSE,FALSE,,,,,,,,,,,,,,j,0.0342,space,0.3897,,,,,,,,0,143,143,103,1,,
6149a2480ec7bd14c9fe92a5,2023-06-16_10h30.36.674,phx_ver10,2022.2.5,Win32,60.03121623,,,,,,,,,,,,,,,,,,,,,,,,,,,,,,,,,,,,,,,,,,,,,,,,,,,space,3.467
