participant,date,expName,psychopyVersion,OS,frameRate,space_1.keys,space_1.rt,space_2.keys,space_2.rt,space_train.keys,space_train.rt,training.thisRepN,training.thisTrialN,training.thisN,training.thisIndex,training.ran,token_id,task,continuum,vowel,series,sound_1,sound_2,img,same,trained,FJ_attn.keys,FJ_attn.rt,space_attn.keys,space_attn.rt,if_attn_test.thisRepN,if_attn_test.thisTrialN,if_attn_test.thisN,if_attn_test.thisIndex,if_attn_test.ran,space_trans_1.keys,space_trans_1.rt,space_trans_11.keys,space_trans_11.rt,FJ_test.keys,FJ_test.rt,space_test.keys,space_test.rt,testing_pre.thisRepN,testing_pre.thisTrialN,testing_pre.thisN,testing_pre.thisIndex,testing_pre.ran,space_trans_2.keys,space_trans_2.rt,testing_all.thisRepN,testing_all.thisTrialN,testing_all.thisN,testing_all.thisIndex,testing_all.ran,space_ending.keys,space_ending.rt
61fa936e5719bc09cb834cbe,2023-06-16_14h12.39.674,phx_ver10,2022.2.5,MacIntel,60.0024001,,,,,,,,,,,,,,,,,,,,,,,,,,,,,,,,,,,,,,,,,,,,,,,,,,,,
61fa936e5719bc09cb834cbe,2023-06-16_14h12.39.674,phx_ver10,2022.2.5,MacIntel,60.0024001,space,0.3345,,,,,,,,,,,,,,,,,,,,,,,,,,,,,,,,,,,,,,,,,,,,,,,,,,
61fa936e5719bc09cb834cbe,2023-06-16_14h12.39.674,phx_ver10,2022.2.5,MacIntel,60.0024001,,,space,1.2115,,,,,,,,,,,,,,,,,,,,,,,,,,,,,,,,,,,,,,,,,,,,,,,,
61fa936e5719bc09cb834cbe,2023-06-16_14h12.39.674,phx_ver10,2022.2.5,MacIntel,60.0024001,,,,,space,2.7826,0,0,0,18,1,19,training,zh2x,e,zh2x_e,zh2x_2_ezhe.wav,,ezhe.jpg,,,,,,,,,,,,,,,,,,,,,,,,,,,,,,,,,
61fa936e5719bc09cb834cbe,2023-06-16_14h12.39.674,phx_ver10,2022.2.5,MacIntel,60.0024001,,,,,space,1.4519,0,1,1,17,1,18,training,zh2x,e,zh2x_e,zh2x_2_ezhe.wav,,ezhe.jpg,,,,,,,,,,,,,,,,,,,,,,,,,,,,,,,,,
61fa936e5719bc09cb834cbe,2023-06-16_14h12.39.674,phx_ver10,2022.2.5,MacIntel,60.0024001,,,,,space,1.4471,0,2,2,43,1,44,training,zh2x,i,zh2x_i,zh2x_7_ixi.wav,,ixi.jpg,,,,,,,,,,,,,,,,,,,,,,,,,,,,,,,,,
61fa936e5719bc09cb834cbe,2023-06-16_14h12.39.674,phx_ver10,2022.2.5,MacIntel,60.0024001,,,,,space,0.7327,0,3,3,28,1,29,training,zh2x,e,zh2x_e,zh2x_7_exe.wav,,exe.jpg,,,,,,,,,,,,,,,,,,,,,,,,,,,,,,,,,
61fa936e5719bc09cb834cbe,2023-06-16_14h12.39.674,phx_ver10,2022.2.5,MacIntel,60.0024001,,,,,space,0.9337,0,4,4,6,1,7,training,zh2x,a,zh2x_a,zh2x_3_azha.wav,,azha.jpg,,,,,,,,,,,,,,,,,,,,,,,,,,,,,,,,,
61fa936e5719bc09cb834cbe,2023-06-16_14h12.39.674,phx_ver10,2022.2.5,MacIntel,60.0024001,,,,,space,0.0476,0,5,5,0,1,1,training,zh2x,a,zh2x_a,zh2x_1_azha.wav,,azha.jpg,,,,,,,,,,,,,,,,,,,,,,,,,,,,,,,,,
61fa936e5719bc09cb834cbe,2023-06-16_14h12.39.674,phx_ver10,2022.2.5,MacIntel,60.0024001,,,,,,,,,,,,,attn_test,,,,zh2x_8_ixi.wav,zh2x_1_ezhe.wav,ezhe.jpg,RIGHT,,j,1.6841,space,2.9234,0,0,0,0,1,,,,,,,,,,,,,,,,,,,,,,
61fa936e5719bc09cb834cbe,2023-06-16_14h12.39.674,phx_ver10,2022.2.5,MacIntel,60.0024001,,,,,space,1.3599,0,6,6,19,1,20,training,zh2x,e,zh2x_e,zh2x_2_ezhe.wav,,ezhe.jpg,,,,,,,,,,,,,,,,,,,,,,,,,,,,,,,,,
61fa936e5719bc09cb834cbe,2023-06-16_14h12.39.674,phx_ver10,2022.2.5,MacIntel,60.0024001,,,,,space,1.54,0,7,7,13,1,14,training,zh2x,a,zh2x_a,zh2x_7_axa.wav,,axa.jpg,,,,,,,,,,,,,,,,,,,,,,,,,,,,,,,,,
61fa936e5719bc09cb834cbe,2023-06-16_14h12.39.674,phx_ver10,2022.2.5,MacIntel,60.0024001,,,,,space,1.1697,0,8,8,38,1,39,training,zh2x,i,zh2x_i,zh2x_3_izhi.wav,,izhi.jpg,,,,,,,,,,,,,,,,,,,,,,,,,,,,,,,,,
61fa936e5719bc09cb834cbe,2023-06-16_14h12.39.674,phx_ver10,2022.2.5,MacIntel,60.0024001,,,,,space,1.4028,0,9,9,4,1,5,training,zh2x,a,zh2x_a,zh2x_2_azha.wav,,azha.jpg,,,,,,,,,,,,,,,,,,,,,,,,,,,,,,,,,
61fa936e5719bc09cb834cbe,2023-06-16_14h12.39.674,phx_ver10,2022.2.5,MacIntel,60.0024001,,,,,space,1.7717,0,10,10,40,1,41,training,zh2x,i,zh2x_i,zh2x_5_ixi.wav,,ixi.jpg,,,,,,,,,,,,,,,,,,,,,,,,,,,,,,,,,
61fa936e5719bc09cb834cbe,2023-06-16_14h12.39.674,phx_ver10,2022.2.5,MacIntel,60.0024001,,,,,space,1.6648,0,11,11,3,1,4,training,zh2x,a,zh2x_a,zh2x_2_azha.wav,,azha.jpg,,,,,,,,,,,,,,,,,,,,,,,,,,,,,,,,,
61fa936e5719bc09cb834cbe,2023-06-16_14h12.39.674,phx_ver10,2022.2.5,MacIntel,60.0024001,,,,,,,,,,,,,attn_test,,,,zh2x_8_ixi.wav,zh2x_8_axa.wav,ixi.jpg,LEFT,,f,0.6312,space,1.3135,0,0,0,0,1,,,,,,,,,,,,,,,,,,,,,,
61fa936e5719bc09cb834cbe,2023-06-16_14h12.39.674,phx_ver10,2022.2.5,MacIntel,60.0024001,,,,,space,1.0155,0,12,12,42,1,43,training,zh2x,i,zh2x_i,zh2x_6_ixi.wav,,ixi.jpg,,,,,,,,,,,,,,,,,,,,,,,,,,,,,,,,,
61fa936e5719bc09cb834cbe,2023-06-16_14h12.39.674,phx_ver10,2022.2.5,MacIntel,60.0024001,,,,,space,0.852,0,13,13,23,1,24,training,zh2x,e,zh2x_e,zh2x_4_ezhe.wav,,ezhe.jpg,,,,,,,,,,,,,,,,,,,,,,,,,,,,,,,,,
61fa936e5719bc09cb834cbe,2023-06-16_14h12.39.674,phx_ver10,2022.2.5,MacIntel,60.0024001,,,,,space,0.5717,0,14,14,16,1,17,training,zh2x,e,zh2x_e,zh2x_1_ezhe.wav,,ezhe.jpg,,,,,,,,,,,,,,,,,,,,,,,,,,,,,,,,,
61fa936e5719bc09cb834cbe,2023-06-16_14h12.39.674,phx_ver10,2022.2.5,MacIntel,60.0024001,,,,,space,0.5877,0,15,15,12,1,13,training,zh2x,a,zh2x_a,zh2x_7_axa.wav,,axa.jpg,,,,,,,,,,,,,,,,,,,,,,,,,,,,,,,,,
61fa936e5719bc09cb834cbe,2023-06-16_14h12.39.674,phx_ver10,2022.2.5,MacIntel,60.0024001,,,,,space,0.552,0,16,16,26,1,27,training,zh2x,e,zh2x_e,zh2x_6_exe.wav,,exe.jpg,,,,,,,,,,,,,,,,,,,,,,,,,,,,,,,,,
61fa936e5719bc09cb834cbe,2023-06-16_14h12.39.674,phx_ver10,2022.2.5,MacIntel,60.0024001,,,,,space,0.4498,0,17,17,10,1,11,training,zh2x,a,zh2x_a,zh2x_6_axa.wav,,axa.jpg,,,,,,,,,,,,,,,,,,,,,,,,,,,,,,,,,
61fa936e5719bc09cb834cbe,2023-06-16_14h12.39.674,phx_ver10,2022.2.5,MacIntel,60.0024001,,,,,,,,,,,,,attn_test,,,,zh2x_8_exe.wav,zh2x_1_ezhe.wav,ezhe.jpg,RIGHT,,f,2.8822,space,3.4743,0,0,0,0,1,,,,,,,,,,,,,,,,,,,,,,
61fa936e5719bc09cb834cbe,2023-06-16_14h12.39.674,phx_ver10,2022.2.5,MacIntel,60.0024001,,,,,space,1.2066,0,18,18,11,1,12,training,zh2x,a,zh2x_a,zh2x_7_axa.wav,,axa.jpg,,,,,,,,,,,,,,,,,,,,,,,,,,,,,,,,,
61fa936e5719bc09cb834cbe,2023-06-16_14h12.39.674,phx_ver10,2022.2.5,MacIntel,60.0024001,,,,,space,0.5691,0,19,19,2,1,3,training,zh2x,a,zh2x_a,zh2x_2_azha.wav,,azha.jpg,,,,,,,,,,,,,,,,,,,,,,,,,,,,,,,,,
61fa936e5719bc09cb834cbe,2023-06-16_14h12.39.674,phx_ver10,2022.2.5,MacIntel,60.0024001,,,,,space,0.4052,0,20,20,35,1,36,training,zh2x,i,zh2x_i,zh2x_2_izhi.wav,,izhi.jpg,,,,,,,,,,,,,,,,,,,,,,,,,,,,,,,,,
61fa936e5719bc09cb834cbe,2023-06-16_14h12.39.674,phx_ver10,2022.2.5,MacIntel,60.0024001,,,,,space,0.2885,0,21,21,39,1,40,training,zh2x,i,zh2x_i,zh2x_4_izhi.wav,,izhi.jpg,,,,,,,,,,,,,,,,,,,,,,,,,,,,,,,,,
61fa936e5719bc09cb834cbe,2023-06-16_14h12.39.674,phx_ver10,2022.2.5,MacIntel,60.0024001,,,,,space,0.2998,0,22,22,36,1,37,training,zh2x,i,zh2x_i,zh2x_2_izhi.wav,,izhi.jpg,,,,,,,,,,,,,,,,,,,,,,,,,,,,,,,,,
61fa936e5719bc09cb834cbe,2023-06-16_14h12.39.674,phx_ver10,2022.2.5,MacIntel,60.0024001,,,,,space,0.3706,0,23,23,46,1,47,training,zh2x,i,zh2x_i,zh2x_7_ixi.wav,,ixi.jpg,,,,,,,,,,,,,,,,,,,,,,,,,,,,,,,,,
61fa936e5719bc09cb834cbe,2023-06-16_14h12.39.674,phx_ver10,2022.2.5,MacIntel,60.0024001,,,,,,,,,,,,,attn_test,,,,zh2x_1_ezhe.wav,zh2x_8_ixi.wav,ixi.jpg,RIGHT,,j,0.1885,space,0.8819,0,0,0,0,1,,,,,,,,,,,,,,,,,,,,,,
61fa936e5719bc09cb834cbe,2023-06-16_14h12.39.674,phx_ver10,2022.2.5,MacIntel,60.0024001,,,,,space,0.8214,0,24,24,29,1,30,training,zh2x,e,zh2x_e,zh2x_7_exe.wav,,exe.jpg,,,,,,,,,,,,,,,,,,,,,,,,,,,,,,,,,
61fa936e5719bc09cb834cbe,2023-06-16_14h12.39.674,phx_ver10,2022.2.5,MacIntel,60.0024001,,,,,space,0.5176,0,25,25,31,1,32,training,zh2x,e,zh2x_e,zh2x_8_exe.wav,,exe.jpg,,,,,,,,,,,,,,,,,,,,,,,,,,,,,,,,,
61fa936e5719bc09cb834cbe,2023-06-16_14h12.39.674,phx_ver10,2022.2.5,MacIntel,60.0024001,,,,,space,0.4832,0,26,26,22,1,23,training,zh2x,e,zh2x_e,zh2x_3_ezhe.wav,,ezhe.jpg,,,,,,,,,,,,,,,,,,,,,,,,,,,,,,,,,
61fa936e5719bc09cb834cbe,2023-06-16_14h12.39.674,phx_ver10,2022.2.5,MacIntel,60.0024001,,,,,space,0.6186,0,27,27,15,1,16,training,zh2x,a,zh2x_a,zh2x_8_axa.wav,,axa.jpg,,,,,,,,,,,,,,,,,,,,,,,,,,,,,,,,,
61fa936e5719bc09cb834cbe,2023-06-16_14h12.39.674,phx_ver10,2022.2.5,MacIntel,60.0024001,,,,,space,0.6045,0,28,28,32,1,33,training,zh2x,i,zh2x_i,zh2x_1_izhi.wav,,izhi.jpg,,,,,,,,,,,,,,,,,,,,,,,,,,,,,,,,,
61fa936e5719bc09cb834cbe,2023-06-16_14h12.39.674,phx_ver10,2022.2.5,MacIntel,60.0024001,,,,,space,0.3699,0,29,29,9,1,10,training,zh2x,a,zh2x_a,zh2x_6_axa.wav,,axa.jpg,,,,,,,,,,,,,,,,,,,,,,,,,,,,,,,,,
61fa936e5719bc09cb834cbe,2023-06-16_14h12.39.674,phx_ver10,2022.2.5,MacIntel,60.0024001,,,,,,,,,,,,,attn_test,,,,zh2x_8_axa.wav,zh2x_1_ezhe.wav,ezhe.jpg,RIGHT,,j,1.2135,space,1.7177,0,0,0,0,1,,,,,,,,,,,,,,,,,,,,,,
61fa936e5719bc09cb834cbe,2023-06-16_14h12.39.674,phx_ver10,2022.2.5,MacIntel,60.0024001,,,,,space,1.4527,0,30,30,5,1,6,training,zh2x,a,zh2x_a,zh2x_3_azha.wav,,azha.jpg,,,,,,,,,,,,,,,,,,,,,,,,,,,,,,,,,
61fa936e5719bc09cb834cbe,2023-06-16_14h12.39.674,phx_ver10,2022.2.5,MacIntel,60.0024001,,,,,space,1.817,0,31,31,20,1,21,training,zh2x,e,zh2x_e,zh2x_2_ezhe.wav,,ezhe.jpg,,,,,,,,,,,,,,,,,,,,,,,,,,,,,,,,,
61fa936e5719bc09cb834cbe,2023-06-16_14h12.39.674,phx_ver10,2022.2.5,MacIntel,60.0024001,,,,,space,0.6603,0,32,32,21,1,22,training,zh2x,e,zh2x_e,zh2x_3_ezhe.wav,,ezhe.jpg,,,,,,,,,,,,,,,,,,,,,,,,,,,,,,,,,
61fa936e5719bc09cb834cbe,2023-06-16_14h12.39.674,phx_ver10,2022.2.5,MacIntel,60.0024001,,,,,space,0.55,0,33,33,45,1,46,training,zh2x,i,zh2x_i,zh2x_7_ixi.wav,,ixi.jpg,,,,,,,,,,,,,,,,,,,,,,,,,,,,,,,,,
61fa936e5719bc09cb834cbe,2023-06-16_14h12.39.674,phx_ver10,2022.2.5,MacIntel,60.0024001,,,,,space,0.6568,0,34,34,24,1,25,training,zh2x,e,zh2x_e,zh2x_5_exe.wav,,exe.jpg,,,,,,,,,,,,,,,,,,,,,,,,,,,,,,,,,
61fa936e5719bc09cb834cbe,2023-06-16_14h12.39.674,phx_ver10,2022.2.5,MacIntel,60.0024001,,,,,space,0.4846,0,35,35,30,1,31,training,zh2x,e,zh2x_e,zh2x_7_exe.wav,,exe.jpg,,,,,,,,,,,,,,,,,,,,,,,,,,,,,,,,,
61fa936e5719bc09cb834cbe,2023-06-16_14h12.39.674,phx_ver10,2022.2.5,MacIntel,60.0024001,,,,,,,,,,,,,attn_test,,,,zh2x_1_izhi.wav,zh2x_8_exe.wav,exe.jpg,RIGHT,,j,0.2373,space,0.9318,0,0,0,0,1,,,,,,,,,,,,,,,,,,,,,,
61fa936e5719bc09cb834cbe,2023-06-16_14h12.39.674,phx_ver10,2022.2.5,MacIntel,60.0024001,,,,,space,0.6694,0,36,36,27,1,28,training,zh2x,e,zh2x_e,zh2x_7_exe.wav,,exe.jpg,,,,,,,,,,,,,,,,,,,,,,,,,,,,,,,,,
61fa936e5719bc09cb834cbe,2023-06-16_14h12.39.674,phx_ver10,2022.2.5,MacIntel,60.0024001,,,,,space,0.8332,0,37,37,14,1,15,training,zh2x,a,zh2x_a,zh2x_7_axa.wav,,axa.jpg,,,,,,,,,,,,,,,,,,,,,,,,,,,,,,,,,
61fa936e5719bc09cb834cbe,2023-06-16_14h12.39.674,phx_ver10,2022.2.5,MacIntel,60.0024001,,,,,space,1.1508,0,38,38,44,1,45,training,zh2x,i,zh2x_i,zh2x_7_ixi.wav,,ixi.jpg,,,,,,,,,,,,,,,,,,,,,,,,,,,,,,,,,
61fa936e5719bc09cb834cbe,2023-06-16_14h12.39.674,phx_ver10,2022.2.5,MacIntel,60.0024001,,,,,space,0.3534,0,39,39,1,1,2,training,zh2x,a,zh2x_a,zh2x_2_azha.wav,,azha.jpg,,,,,,,,,,,,,,,,,,,,,,,,,,,,,,,,,
61fa936e5719bc09cb834cbe,2023-06-16_14h12.39.674,phx_ver10,2022.2.5,MacIntel,60.0024001,,,,,space,0.4858,0,40,40,25,1,26,training,zh2x,e,zh2x_e,zh2x_6_exe.wav,,exe.jpg,,,,,,,,,,,,,,,,,,,,,,,,,,,,,,,,,
61fa936e5719bc09cb834cbe,2023-06-16_14h12.39.674,phx_ver10,2022.2.5,MacIntel,60.0024001,,,,,space,0.1879,0,41,41,33,1,34,training,zh2x,i,zh2x_i,zh2x_2_izhi.wav,,izhi.jpg,,,,,,,,,,,,,,,,,,,,,,,,,,,,,,,,,
61fa936e5719bc09cb834cbe,2023-06-16_14h12.39.674,phx_ver10,2022.2.5,MacIntel,60.0024001,,,,,,,,,,,,,attn_test,,,,zh2x_8_axa.wav,zh2x_1_izhi.wav,izhi.jpg,RIGHT,,j,0.0678,space,0.8067,0,0,0,0,1,,,,,,,,,,,,,,,,,,,,,,
61fa936e5719bc09cb834cbe,2023-06-16_14h12.39.674,phx_ver10,2022.2.5,MacIntel,60.0024001,,,,,space,0.4676,0,42,42,41,1,42,training,zh2x,i,zh2x_i,zh2x_6_ixi.wav,,ixi.jpg,,,,,,,,,,,,,,,,,,,,,,,,,,,,,,,,,
61fa936e5719bc09cb834cbe,2023-06-16_14h12.39.674,phx_ver10,2022.2.5,MacIntel,60.0024001,,,,,space,0.502,0,43,43,34,1,35,training,zh2x,i,zh2x_i,zh2x_2_izhi.wav,,izhi.jpg,,,,,,,,,,,,,,,,,,,,,,,,,,,,,,,,,
61fa936e5719bc09cb834cbe,2023-06-16_14h12.39.674,phx_ver10,2022.2.5,MacIntel,60.0024001,,,,,space,0.1834,0,44,44,47,1,48,training,zh2x,i,zh2x_i,zh2x_8_ixi.wav,,ixi.jpg,,,,,,,,,,,,,,,,,,,,,,,,,,,,,,,,,
61fa936e5719bc09cb834cbe,2023-06-16_14h12.39.674,phx_ver10,2022.2.5,MacIntel,60.0024001,,,,,space,0.048,0,45,45,37,1,38,training,zh2x,i,zh2x_i,zh2x_3_izhi.wav,,izhi.jpg,,,,,,,,,,,,,,,,,,,,,,,,,,,,,,,,,
61fa936e5719bc09cb834cbe,2023-06-16_14h12.39.674,phx_ver10,2022.2.5,MacIntel,60.0024001,,,,,space,0.4204,0,46,46,8,1,9,training,zh2x,a,zh2x_a,zh2x_5_axa.wav,,axa.jpg,,,,,,,,,,,,,,,,,,,,,,,,,,,,,,,,,
61fa936e5719bc09cb834cbe,2023-06-16_14h12.39.674,phx_ver10,2022.2.5,MacIntel,60.0024001,,,,,space,0.4842,0,47,47,7,1,8,training,zh2x,a,zh2x_a,zh2x_4_azha.wav,,azha.jpg,,,,,,,,,,,,,,,,,,,,,,,,,,,,,,,,,
61fa936e5719bc09cb834cbe,2023-06-16_14h12.39.674,phx_ver10,2022.2.5,MacIntel,60.0024001,,,,,,,,,,,,,attn_test,,,,zh2x_1_izhi.wav,zh2x_8_axa.wav,axa.jpg,RIGHT,,j,0.0159,space,0.6491,,,,,,,,,,,,,,,,,,,,,,,,,,,
61fa936e5719bc09cb834cbe,2023-06-16_14h12.39.674,phx_ver10,2022.2.5,MacIntel,60.0024001,,,,,,,,,,,,,,,,,,,,,,,,,,,,,,,space,1.1224,,,,,,,,,,,,,,,,,,,,
61fa936e5719bc09cb834cbe,2023-06-16_14h12.39.674,phx_ver10,2022.2.5,MacIntel,60.0024001,,,,,,,,,,,,,,,,,,,,,,,,,,,,,,,,,space,2.1504,,,,,,,,,,,,,,,,,,
61fa936e5719bc09cb834cbe,2023-06-16_14h12.39.674,phx_ver10,2022.2.5,MacIntel,60.0024001,,,,,,,,,,,,3,testing_pre,,,,afa.wav,aha.wav,,FALSE,,,,,,,,,,,,,,,j,1.5079,space,2.2237,0,0,0,2,1,,,,,,,,,
61fa936e5719bc09cb834cbe,2023-06-16_14h12.39.674,phx_ver10,2022.2.5,MacIntel,60.0024001,,,,,,,,,,,,4,testing_pre,,,,eihei.wav,eihei.wav,,TRUE,,,,,,,,,,,,,,,f,0.5889,space,1.1179,0,1,1,3,1,,,,,,,,,
61fa936e5719bc09cb834cbe,2023-06-16_14h12.39.674,phx_ver10,2022.2.5,MacIntel,60.0024001,,,,,,,,,,,,2,testing_pre,,,,auhau.wav,aufau.wav,,FALSE,,,,,,,,,,,,,,,j,0.5784,space,0.9774,0,2,2,1,1,,,,,,,,,
61fa936e5719bc09cb834cbe,2023-06-16_14h12.39.674,phx_ver10,2022.2.5,MacIntel,60.0024001,,,,,,,,,,,,1,testing_pre,,,,ifi.wav,ifi.wav,,TRUE,,,,,,,,,,,,,,,f,0.1359,space,0.6025,0,3,3,0,1,,,,,,,,,
61fa936e5719bc09cb834cbe,2023-06-16_14h12.39.674,phx_ver10,2022.2.5,MacIntel,60.0024001,,,,,,,,,,,,5,testing_pre,,,,ihi.wav,ifi.wav,,FALSE,,,,,,,,,,,,,,,f,2.3007,space,3.2392,0,4,4,4,1,,,,,,,,,
61fa936e5719bc09cb834cbe,2023-06-16_14h12.39.674,phx_ver10,2022.2.5,MacIntel,60.0024001,,,,,,,,,,,,,,,,,,,,,,,,,,,,,,,,,,,,,,,,,,,,space,0.6032,,,,,,,
61fa936e5719bc09cb834cbe,2023-06-16_14h12.39.674,phx_ver10,2022.2.5,MacIntel,60.0024001,,,,,,,,,,,,95,testing_3,j2x,i,j2x_i,j2x_1_iji.wav,j2x_8_ixi.wav,,FALSE,FALSE,,,,,,,,,,,,,,f,0.1194,space,0.5344,,,,,,,,0,0,0,94,1,,
61fa936e5719bc09cb834cbe,2023-06-16_14h12.39.674,phx_ver10,2022.2.5,MacIntel,60.0024001,,,,,,,,,,,,73,testing_3,j2x,a,j2x_a,j2x_1_aja.wav,j2x_1_aja.wav,,TRUE,FALSE,,,,,,,,,,,,,,f,0.4682,space,0.871,,,,,,,,0,1,1,72,1,,
61fa936e5719bc09cb834cbe,2023-06-16_14h12.39.674,phx_ver10,2022.2.5,MacIntel,60.0024001,,,,,,,,,,,,87,testing_3,j2x,e,j2x_e,j2x_1_eje.wav,j2x_8_exe.wav,,FALSE,FALSE,,,,,,,,,,,,,,j,0.2206,space,0.6449,,,,,,,,0,2,2,86,1,,
61fa936e5719bc09cb834cbe,2023-06-16_14h12.39.674,phx_ver10,2022.2.5,MacIntel,60.0024001,,,,,,,,,,,,98,testing_3,sh2x,a,sh2x_a,sh2x_8_axa.wav,sh2x_8_axa.wav,,TRUE,FALSE,,,,,,,,,,,,,,f,0.1725,space,0.5486,,,,,,,,0,3,3,97,1,,
61fa936e5719bc09cb834cbe,2023-06-16_14h12.39.674,phx_ver10,2022.2.5,MacIntel,60.0024001,,,,,,,,,,,,3,testing_1,zh2x,a,zh2x_a,zh2x_1_azha.wav,zh2x_8_axa.wav,,FALSE,TRUE,,,,,,,,,,,,,,j,0.4197,space,0.7698,,,,,,,,0,4,4,2,1,,
61fa936e5719bc09cb834cbe,2023-06-16_14h12.39.674,phx_ver10,2022.2.5,MacIntel,60.0024001,,,,,,,,,,,,129,testing_3,sh2j,au,sh2j_au,sh2j_1_aushau.wav,sh2j_1_aushau.wav,,TRUE,FALSE,,,,,,,,,,,,,,f,0.7208,space,1.2595,,,,,,,,0,5,5,128,1,,
61fa936e5719bc09cb834cbe,2023-06-16_14h12.39.674,phx_ver10,2022.2.5,MacIntel,60.0024001,,,,,,,,,,,,68,testing_3,zh2j,ei,zh2j_ei,zh2j_8_eijei.wav,zh2j_1_eizhei.wav,,FALSE,FALSE,,,,,,,,,,,,,,f,0.1343,space,0.6329,,,,,,,,0,6,6,67,1,,
61fa936e5719bc09cb834cbe,2023-06-16_14h12.39.674,phx_ver10,2022.2.5,MacIntel,60.0024001,,,,,,,,,,,,123,testing_3,sh2j,a,sh2j_a,sh2j_1_asha.wav,sh2j_8_aja.wav,,FALSE,FALSE,,,,,,,,,,,,,,j,0.4881,space,0.8567,,,,,,,,0,7,7,122,1,,
61fa936e5719bc09cb834cbe,2023-06-16_14h12.39.674,phx_ver10,2022.2.5,MacIntel,60.0024001,,,,,,,,,,,,18,testing_2,zh2x,au,zh2x_au,zh2x_8_auxau.wav,zh2x_8_auxau.wav,,TRUE,FALSE,,,,,,,,,,,,,,f,0.1375,space,0.5342,,,,,,,,0,8,8,17,1,,
61fa936e5719bc09cb834cbe,2023-06-16_14h12.39.674,phx_ver10,2022.2.5,MacIntel,60.0024001,,,,,,,,,,,,94,testing_3,j2x,i,j2x_i,j2x_8_ixi.wav,j2x_8_ixi.wav,,TRUE,FALSE,,,,,,,,,,,,,,f,0.0524,space,0.5851,,,,,,,,0,9,9,93,1,,
61fa936e5719bc09cb834cbe,2023-06-16_14h12.39.674,phx_ver10,2022.2.5,MacIntel,60.0024001,,,,,,,,,,,,19,testing_2,zh2x,au,zh2x_au,zh2x_1_auzhau.wav,zh2x_8_auxau.wav,,FALSE,FALSE,,,,,,,,,,,,,,j,0.201,space,0.6144,,,,,,,,0,10,10,18,1,,
61fa936e5719bc09cb834cbe,2023-06-16_14h12.39.674,phx_ver10,2022.2.5,MacIntel,60.0024001,,,,,,,,,,,,20,testing_2,zh2x,au,zh2x_au,zh2x_8_auxau.wav,zh2x_1_auzhau.wav,,FALSE,FALSE,,,,,,,,,,,,,,j,0.1246,space,0.5381,,,,,,,,0,11,11,19,1,,
61fa936e5719bc09cb834cbe,2023-06-16_14h12.39.674,phx_ver10,2022.2.5,MacIntel,60.0024001,,,,,,,,,,,,136,testing_3,sh2j,e,sh2j_e,sh2j_8_eje.wav,sh2j_1_eshe.wav,,FALSE,FALSE,,,,,,,,,,,,,,j,0.0869,space,0.4815,,,,,,,,0,12,12,135,1,,
61fa936e5719bc09cb834cbe,2023-06-16_14h12.39.674,phx_ver10,2022.2.5,MacIntel,60.0024001,,,,,,,,,,,,132,testing_3,sh2j,au,sh2j_au,sh2j_8_aujau.wav,sh2j_1_aushau.wav,,FALSE,FALSE,,,,,,,,,,,,,,j,0.351,space,0.6648,,,,,,,,0,13,13,131,1,,
61fa936e5719bc09cb834cbe,2023-06-16_14h12.39.674,phx_ver10,2022.2.5,MacIntel,60.0024001,,,,,,,,,,,,6,testing_1,zh2x,e,zh2x_e,zh2x_8_exe.wav,zh2x_8_exe_copy.wav,,TRUE,TRUE,,,,,,,,,,,,,,f,0.1029,space,0.5499,,,,,,,,0,14,14,5,1,,
61fa936e5719bc09cb834cbe,2023-06-16_14h12.39.674,phx_ver10,2022.2.5,MacIntel,60.0024001,,,,,,,,,,,,62,testing_3,zh2j,e,zh2j_e,zh2j_8_eje.wav,zh2j_8_eje.wav,,TRUE,FALSE,,,,,,,,,,,,,,f,0.0929,space,0.49,,,,,,,,0,15,15,61,1,,
61fa936e5719bc09cb834cbe,2023-06-16_14h12.39.674,phx_ver10,2022.2.5,MacIntel,60.0024001,,,,,,,,,,,,42,testing_3,zh2sh,ei,zh2sh_ei,zh2sh_8_eishei.wav,zh2sh_8_eishei.wav,,TRUE,FALSE,,,,,,,,,,,,,,f,0.3203,space,0.6853,,,,,,,,0,16,16,41,1,,
61fa936e5719bc09cb834cbe,2023-06-16_14h12.39.674,phx_ver10,2022.2.5,MacIntel,60.0024001,,,,,,,,,,,,10,testing_1,zh2x,i,zh2x_i,zh2x_8_ixi.wav,zh2x_8_ixi_copy.wav,,TRUE,TRUE,,,,,,,,,,,,,,f,0.0896,space,0.6802,,,,,,,,0,17,17,9,1,,
61fa936e5719bc09cb834cbe,2023-06-16_14h12.39.674,phx_ver10,2022.2.5,MacIntel,60.0024001,,,,,,,,,,,,41,testing_3,zh2sh,ei,zh2sh_ei,zh2sh_1_eizhei.wav,zh2sh_1_eizhei.wav,,TRUE,FALSE,,,,,,,,,,,,,,f,0.1695,space,0.5904,,,,,,,,0,18,18,40,1,,
61fa936e5719bc09cb834cbe,2023-06-16_14h12.39.674,phx_ver10,2022.2.5,MacIntel,60.0024001,,,,,,,,,,,,52,testing_3,zh2j,a,zh2j_a,zh2j_8_aja.wav,zh2j_1_azha.wav,,FALSE,FALSE,,,,,,,,,,,,,,f,0.0004,space,0.4987,,,,,,,,0,19,19,51,1,,
61fa936e5719bc09cb834cbe,2023-06-16_14h12.39.674,phx_ver10,2022.2.5,MacIntel,60.0024001,,,,,,,,,,,,44,testing_3,zh2sh,ei,zh2sh_ei,zh2sh_8_eishei.wav,zh2sh_1_eizhei.wav,,FALSE,FALSE,,,,,,,,,,,,,,j,0.623,space,1.0023,,,,,,,,0,20,20,43,1,,
61fa936e5719bc09cb834cbe,2023-06-16_14h12.39.674,phx_ver10,2022.2.5,MacIntel,60.0024001,,,,,,,,,,,,90,testing_3,j2x,ei,j2x_ei,j2x_8_eixei.wav,j2x_8_eixei.wav,,TRUE,FALSE,,,,,,,,,,,,,,f,0.5648,space,1.4888,,,,,,,,0,21,21,89,1,,
61fa936e5719bc09cb834cbe,2023-06-16_14h12.39.674,phx_ver10,2022.2.5,MacIntel,60.0024001,,,,,,,,,,,,78,testing_3,j2x,ai,j2x_ai,j2x_8_aixai.wav,j2x_8_aixai.wav,,TRUE,FALSE,,,,,,,,,,,,,,f,0.35,space,0.6646,,,,,,,,0,22,22,77,1,,
61fa936e5719bc09cb834cbe,2023-06-16_14h12.39.674,phx_ver10,2022.2.5,MacIntel,60.0024001,,,,,,,,,,,,111,testing_3,sh2x,e,sh2x_e,sh2x_1_eshe.wav,sh2x_8_exe.wav,,FALSE,FALSE,,,,,,,,,,,,,,f,0.0355,space,0.5848,,,,,,,,0,23,23,110,1,,
61fa936e5719bc09cb834cbe,2023-06-16_14h12.39.674,phx_ver10,2022.2.5,MacIntel,60.0024001,,,,,,,,,,,,27,testing_3,zh2sh,a,zh2sh_a,zh2sh_1_azha.wav,zh2sh_8_asha.wav,,FALSE,FALSE,,,,,,,,,,,,,,j,0.0093,space,0.3858,,,,,,,,0,24,24,26,1,,
61fa936e5719bc09cb834cbe,2023-06-16_14h12.39.674,phx_ver10,2022.2.5,MacIntel,60.0024001,,,,,,,,,,,,92,testing_3,j2x,ei,j2x_ei,j2x_8_eixei.wav,j2x_1_eijei.wav,,FALSE,FALSE,,,,,,,,,,,,,,j,0.2011,space,0.5609,,,,,,,,0,25,25,91,1,,
61fa936e5719bc09cb834cbe,2023-06-16_14h12.39.674,phx_ver10,2022.2.5,MacIntel,60.0024001,,,,,,,,,,,,17,testing_2,zh2x,au,zh2x_au,zh2x_1_auzhau.wav,zh2x_1_auzhau.wav,,TRUE,FALSE,,,,,,,,,,,,,,f,0.1843,space,0.5382,,,,,,,,0,26,26,16,1,,
61fa936e5719bc09cb834cbe,2023-06-16_14h12.39.674,phx_ver10,2022.2.5,MacIntel,60.0024001,,,,,,,,,,,,130,testing_3,sh2j,au,sh2j_au,sh2j_8_aujau.wav,sh2j_8_aujau.wav,,TRUE,FALSE,,,,,,,,,,,,,,f,0.0104,space,0.4893,,,,,,,,0,27,27,129,1,,
61fa936e5719bc09cb834cbe,2023-06-16_14h12.39.674,phx_ver10,2022.2.5,MacIntel,60.0024001,,,,,,,,,,,,133,testing_3,sh2j,e,sh2j_e,sh2j_1_eshe.wav,sh2j_1_eshe.wav,,TRUE,FALSE,,,,,,,,,,,,,,f,0.3683,space,0.6065,,,,,,,,0,28,28,132,1,,
61fa936e5719bc09cb834cbe,2023-06-16_14h12.39.674,phx_ver10,2022.2.5,MacIntel,60.0024001,,,,,,,,,,,,143,testing_3,sh2j,i,sh2j_i,sh2j_1_ishi.wav,sh2j_8_iji.wav,,FALSE,FALSE,,,,,,,,,,,,,,j,0.0116,space,0.467,,,,,,,,0,29,29,142,1,,
61fa936e5719bc09cb834cbe,2023-06-16_14h12.39.674,phx_ver10,2022.2.5,MacIntel,60.0024001,,,,,,,,,,,,7,testing_1,zh2x,e,zh2x_e,zh2x_1_ezhe.wav,zh2x_8_exe.wav,,FALSE,TRUE,,,,,,,,,,,,,,j,0.0651,space,0.4577,,,,,,,,0,30,30,6,1,,
61fa936e5719bc09cb834cbe,2023-06-16_14h12.39.674,phx_ver10,2022.2.5,MacIntel,60.0024001,,,,,,,,,,,,103,testing_3,sh2x,ai,sh2x_ai,sh2x_1_aishai.wav,sh2x_8_aixai.wav,,FALSE,FALSE,,,,,,,,,,,,,,f,0.0655,space,0.5114,,,,,,,,0,31,31,102,1,,
61fa936e5719bc09cb834cbe,2023-06-16_14h12.39.674,phx_ver10,2022.2.5,MacIntel,60.0024001,,,,,,,,,,,,110,testing_3,sh2x,e,sh2x_e,sh2x_8_exe.wav,sh2x_8_exe.wav,,TRUE,FALSE,,,,,,,,,,,,,,f,0.685,space,1.1052,,,,,,,,0,32,32,109,1,,
61fa936e5719bc09cb834cbe,2023-06-16_14h12.39.674,phx_ver10,2022.2.5,MacIntel,60.0024001,,,,,,,,,,,,126,testing_3,sh2j,ai,sh2j_ai,sh2j_8_aijai.wav,sh2j_8_aijai.wav,,TRUE,FALSE,,,,,,,,,,,,,,f,0.2478,space,0.6041,,,,,,,,0,33,33,125,1,,
61fa936e5719bc09cb834cbe,2023-06-16_14h12.39.674,phx_ver10,2022.2.5,MacIntel,60.0024001,,,,,,,,,,,,71,testing_3,zh2j,i,zh2j_i,zh2j_1_izhi.wav,zh2j_8_iji.wav,,FALSE,FALSE,,,,,,,,,,,,,,f,0.1524,space,0.6177,,,,,,,,0,34,34,70,1,,
61fa936e5719bc09cb834cbe,2023-06-16_14h12.39.674,phx_ver10,2022.2.5,MacIntel,60.0024001,,,,,,,,,,,,125,testing_3,sh2j,ai,sh2j_ai,sh2j_1_aishai.wav,sh2j_1_aishai.wav,,TRUE,FALSE,,,,,,,,,,,,,,f,0.0325,space,0.4535,,,,,,,,0,35,35,124,1,,
61fa936e5719bc09cb834cbe,2023-06-16_14h12.39.674,phx_ver10,2022.2.5,MacIntel,60.0024001,,,,,,,,,,,,100,testing_3,sh2x,a,sh2x_a,sh2x_8_axa.wav,sh2x_1_asha.wav,,FALSE,FALSE,,,,,,,,,,,,,,j,2.5904,space,2.8813,,,,,,,,0,36,36,99,1,,
61fa936e5719bc09cb834cbe,2023-06-16_14h12.39.674,phx_ver10,2022.2.5,MacIntel,60.0024001,,,,,,,,,,,,58,testing_3,zh2j,au,zh2j_au,zh2j_8_aujau.wav,zh2j_8_aujau.wav,,TRUE,FALSE,,,,,,,,,,,,,,f,0.0137,space,0.4379,,,,,,,,0,37,37,57,1,,
61fa936e5719bc09cb834cbe,2023-06-16_14h12.39.674,phx_ver10,2022.2.5,MacIntel,60.0024001,,,,,,,,,,,,141,testing_3,sh2j,i,sh2j_i,sh2j_1_ishi.wav,sh2j_1_ishi.wav,,TRUE,FALSE,,,,,,,,,,,,,,f,0.0104,space,0.5108,,,,,,,,0,38,38,140,1,,
61fa936e5719bc09cb834cbe,2023-06-16_14h12.39.674,phx_ver10,2022.2.5,MacIntel,60.0024001,,,,,,,,,,,,23,testing_2,zh2x,ei,zh2x_ei,zh2x_1_eizhei.wav,zh2x_8_eixei.wav,,FALSE,FALSE,,,,,,,,,,,,,,j,0.2684,space,0.6664,,,,,,,,0,39,39,22,1,,
61fa936e5719bc09cb834cbe,2023-06-16_14h12.39.674,phx_ver10,2022.2.5,MacIntel,60.0024001,,,,,,,,,,,,140,testing_3,sh2j,ei,sh2j_ei,sh2j_8_eijei.wav,sh2j_1_eishei.wav,,FALSE,FALSE,,,,,,,,,,,,,,j,0.7089,space,1.0439,,,,,,,,0,40,40,139,1,,
61fa936e5719bc09cb834cbe,2023-06-16_14h12.39.674,phx_ver10,2022.2.5,MacIntel,60.0024001,,,,,,,,,,,,107,testing_3,sh2x,au,sh2x_au,sh2x_1_aushau.wav,sh2x_8_auxau.wav,,FALSE,FALSE,,,,,,,,,,,,,,f,0.4005,space,0.7351,,,,,,,,0,41,41,106,1,,
61fa936e5719bc09cb834cbe,2023-06-16_14h12.39.674,phx_ver10,2022.2.5,MacIntel,60.0024001,,,,,,,,,,,,45,testing_3,zh2sh,i,zh2sh_i,zh2sh_1_izhi.wav,zh2sh_1_izhi.wav,,TRUE,FALSE,,,,,,,,,,,,,,f,0.1505,space,0.5015,,,,,,,,0,42,42,44,1,,
61fa936e5719bc09cb834cbe,2023-06-16_14h12.39.674,phx_ver10,2022.2.5,MacIntel,60.0024001,,,,,,,,,,,,8,testing_1,zh2x,e,zh2x_e,zh2x_8_exe.wav,zh2x_1_ezhe.wav,,FALSE,TRUE,,,,,,,,,,,,,,j,0.1054,space,0.4682,,,,,,,,0,43,43,7,1,,
61fa936e5719bc09cb834cbe,2023-06-16_14h12.39.674,phx_ver10,2022.2.5,MacIntel,60.0024001,,,,,,,,,,,,124,testing_3,sh2j,a,sh2j_a,sh2j_8_aja.wav,sh2j_1_asha.wav,,FALSE,FALSE,,,,,,,,,,,,,,j,0.1365,space,0.523,,,,,,,,0,44,44,123,1,,
61fa936e5719bc09cb834cbe,2023-06-16_14h12.39.674,phx_ver10,2022.2.5,MacIntel,60.0024001,,,,,,,,,,,,112,testing_3,sh2x,e,sh2x_e,sh2x_8_exe.wav,sh2x_1_eshe.wav,,FALSE,FALSE,,,,,,,,,,,,,,j,2.6036,space,2.8884,,,,,,,,0,45,45,111,1,,
61fa936e5719bc09cb834cbe,2023-06-16_14h12.39.674,phx_ver10,2022.2.5,MacIntel,60.0024001,,,,,,,,,,,,114,testing_3,sh2x,ei,sh2x_ei,sh2x_8_eixei.wav,sh2x_8_eixei.wav,,TRUE,FALSE,,,,,,,,,,,,,,f,0.4245,space,0.6985,,,,,,,,0,46,46,113,1,,
61fa936e5719bc09cb834cbe,2023-06-16_14h12.39.674,phx_ver10,2022.2.5,MacIntel,60.0024001,,,,,,,,,,,,25,testing_3,zh2sh,a,zh2sh_a,zh2sh_1_azha.wav,zh2sh_1_azha.wav,,TRUE,FALSE,,,,,,,,,,,,,,f,0.1391,space,0.4689,,,,,,,,0,47,47,24,1,,
61fa936e5719bc09cb834cbe,2023-06-16_14h12.39.674,phx_ver10,2022.2.5,MacIntel,60.0024001,,,,,,,,,,,,118,testing_3,sh2x,i,sh2x_i,sh2x_8_ixi.wav,sh2x_8_ixi.wav,,TRUE,FALSE,,,,,,,,,,,,,,f,0.2198,space,0.5941,,,,,,,,0,48,48,117,1,,
61fa936e5719bc09cb834cbe,2023-06-16_14h12.39.674,phx_ver10,2022.2.5,MacIntel,60.0024001,,,,,,,,,,,,34,testing_3,zh2sh,au,zh2sh_au,zh2sh_8_aushau.wav,zh2sh_8_aushau.wav,,TRUE,FALSE,,,,,,,,,,,,,,f,0.5365,space,0.868,,,,,,,,0,49,49,33,1,,
61fa936e5719bc09cb834cbe,2023-06-16_14h12.39.674,phx_ver10,2022.2.5,MacIntel,60.0024001,,,,,,,,,,,,99,testing_3,sh2x,a,sh2x_a,sh2x_1_asha.wav,sh2x_8_axa.wav,,FALSE,FALSE,,,,,,,,,,,,,,j,0.3399,space,0.7025,,,,,,,,0,50,50,98,1,,
61fa936e5719bc09cb834cbe,2023-06-16_14h12.39.674,phx_ver10,2022.2.5,MacIntel,60.0024001,,,,,,,,,,,,97,testing_3,sh2x,a,sh2x_a,sh2x_1_asha.wav,sh2x_1_asha.wav,,TRUE,FALSE,,,,,,,,,,,,,,f,0.2656,space,0.5805,,,,,,,,0,51,51,96,1,,
61fa936e5719bc09cb834cbe,2023-06-16_14h12.39.674,phx_ver10,2022.2.5,MacIntel,60.0024001,,,,,,,,,,,,29,testing_3,zh2sh,ai,zh2sh_ai,zh2sh_1_aizhai.wav,zh2sh_1_aizhai.wav,,TRUE,FALSE,,,,,,,,,,,,,,f,0.0935,space,0.5531,,,,,,,,0,52,52,28,1,,
61fa936e5719bc09cb834cbe,2023-06-16_14h12.39.674,phx_ver10,2022.2.5,MacIntel,60.0024001,,,,,,,,,,,,81,testing_3,j2x,au,j2x_au,j2x_1_aujau.wav,j2x_1_aujau.wav,,TRUE,FALSE,,,,,,,,,,,,,,f,0.1795,space,0.5489,,,,,,,,0,53,53,80,1,,
61fa936e5719bc09cb834cbe,2023-06-16_14h12.39.674,phx_ver10,2022.2.5,MacIntel,60.0024001,,,,,,,,,,,,64,testing_3,zh2j,e,zh2j_e,zh2j_8_eje.wav,zh2j_1_ezhe.wav,,FALSE,FALSE,,,,,,,,,,,,,,f,0.4068,space,0.8517,,,,,,,,0,54,54,63,1,,
61fa936e5719bc09cb834cbe,2023-06-16_14h12.39.674,phx_ver10,2022.2.5,MacIntel,60.0024001,,,,,,,,,,,,106,testing_3,sh2x,au,sh2x_au,sh2x_8_auxau.wav,sh2x_8_auxau.wav,,TRUE,FALSE,,,,,,,,,,,,,,f,0.0234,space,0.4368,,,,,,,,0,55,55,105,1,,
61fa936e5719bc09cb834cbe,2023-06-16_14h12.39.674,phx_ver10,2022.2.5,MacIntel,60.0024001,,,,,,,,,,,,13,testing_2,zh2x,ai,zh2x_ai,zh2x_1_aizhai.wav,zh2x_1_aizhai.wav,,TRUE,FALSE,,,,,,,,,,,,,,f,0.0758,space,0.4698,,,,,,,,0,56,56,12,1,,
61fa936e5719bc09cb834cbe,2023-06-16_14h12.39.674,phx_ver10,2022.2.5,MacIntel,60.0024001,,,,,,,,,,,,121,testing_3,sh2j,a,sh2j_a,sh2j_1_asha.wav,sh2j_1_asha.wav,,TRUE,FALSE,,,,,,,,,,,,,,f,0.004,space,0.4526,,,,,,,,0,57,57,120,1,,
61fa936e5719bc09cb834cbe,2023-06-16_14h12.39.674,phx_ver10,2022.2.5,MacIntel,60.0024001,,,,,,,,,,,,122,testing_3,sh2j,a,sh2j_a,sh2j_8_aja.wav,sh2j_8_aja.wav,,TRUE,FALSE,,,,,,,,,,,,,,f,0.1844,space,0.517,,,,,,,,0,58,58,121,1,,
61fa936e5719bc09cb834cbe,2023-06-16_14h12.39.674,phx_ver10,2022.2.5,MacIntel,60.0024001,,,,,,,,,,,,82,testing_3,j2x,au,j2x_au,j2x_8_auxau.wav,j2x_8_auxau.wav,,TRUE,FALSE,,,,,,,,,,,,,,f,0.0958,space,0.4569,,,,,,,,0,59,59,81,1,,
61fa936e5719bc09cb834cbe,2023-06-16_14h12.39.674,phx_ver10,2022.2.5,MacIntel,60.0024001,,,,,,,,,,,,61,testing_3,zh2j,e,zh2j_e,zh2j_1_ezhe.wav,zh2j_1_ezhe.wav,,TRUE,FALSE,,,,,,,,,,,,,,f,0.0005,space,0.4243,,,,,,,,0,60,60,60,1,,
61fa936e5719bc09cb834cbe,2023-06-16_14h12.39.674,phx_ver10,2022.2.5,MacIntel,60.0024001,,,,,,,,,,,,96,testing_3,j2x,i,j2x_i,j2x_8_ixi.wav,j2x_1_iji.wav,,FALSE,FALSE,,,,,,,,,,,,,,f,0.1073,space,0.4996,,,,,,,,0,61,61,95,1,,
61fa936e5719bc09cb834cbe,2023-06-16_14h12.39.674,phx_ver10,2022.2.5,MacIntel,60.0024001,,,,,,,,,,,,9,testing_1,zh2x,i,zh2x_i,zh2x_1_izhi.wav,zh2x_1_izhi_copy.wav,,TRUE,TRUE,,,,,,,,,,,,,,f,0.4173,space,0.7983,,,,,,,,0,62,62,8,1,,
61fa936e5719bc09cb834cbe,2023-06-16_14h12.39.674,phx_ver10,2022.2.5,MacIntel,60.0024001,,,,,,,,,,,,54,testing_3,zh2j,ai,zh2j_ai,zh2j_8_aijai.wav,zh2j_8_aijai.wav,,TRUE,FALSE,,,,,,,,,,,,,,f,0.3701,space,0.684,,,,,,,,0,63,63,53,1,,
61fa936e5719bc09cb834cbe,2023-06-16_14h12.39.674,phx_ver10,2022.2.5,MacIntel,60.0024001,,,,,,,,,,,,116,testing_3,sh2x,ei,sh2x_ei,sh2x_8_eixei.wav,sh2x_1_eishei.wav,,FALSE,FALSE,,,,,,,,,,,,,,f,0.0942,space,0.5632,,,,,,,,0,64,64,115,1,,
61fa936e5719bc09cb834cbe,2023-06-16_14h12.39.674,phx_ver10,2022.2.5,MacIntel,60.0024001,,,,,,,,,,,,57,testing_3,zh2j,au,zh2j_au,zh2j_1_auzhau.wav,zh2j_1_auzhau.wav,,TRUE,FALSE,,,,,,,,,,,,,,f,0.277,space,0.6692,,,,,,,,0,65,65,56,1,,
61fa936e5719bc09cb834cbe,2023-06-16_14h12.39.674,phx_ver10,2022.2.5,MacIntel,60.0024001,,,,,,,,,,,,105,testing_3,sh2x,au,sh2x_au,sh2x_1_aushau.wav,sh2x_1_aushau.wav,,TRUE,FALSE,,,,,,,,,,,,,,f,0.0777,space,0.571,,,,,,,,0,66,66,104,1,,
61fa936e5719bc09cb834cbe,2023-06-16_14h12.39.674,phx_ver10,2022.2.5,MacIntel,60.0024001,,,,,,,,,,,,128,testing_3,sh2j,ai,sh2j_ai,sh2j_8_aijai.wav,sh2j_1_aishai.wav,,FALSE,FALSE,,,,,,,,,,,,,,j,0.0227,space,0.4893,,,,,,,,0,67,67,127,1,,
61fa936e5719bc09cb834cbe,2023-06-16_14h12.39.674,phx_ver10,2022.2.5,MacIntel,60.0024001,,,,,,,,,,,,76,testing_3,j2x,a,j2x_a,j2x_8_axa.wav,j2x_1_aja.wav,,FALSE,FALSE,,,,,,,,,,,,,,j,0.2011,space,0.6086,,,,,,,,0,68,68,75,1,,
61fa936e5719bc09cb834cbe,2023-06-16_14h12.39.674,phx_ver10,2022.2.5,MacIntel,60.0024001,,,,,,,,,,,,28,testing_3,zh2sh,a,zh2sh_a,zh2sh_8_asha.wav,zh2sh_1_azha.wav,,FALSE,FALSE,,,,,,,,,,,,,,j,0.0673,space,0.4153,,,,,,,,0,69,69,27,1,,
61fa936e5719bc09cb834cbe,2023-06-16_14h12.39.674,phx_ver10,2022.2.5,MacIntel,60.0024001,,,,,,,,,,,,48,testing_3,zh2sh,i,zh2sh_i,zh2sh_8_ishi.wav,zh2sh_1_izhi.wav,,FALSE,FALSE,,,,,,,,,,,,,,j,0.3405,space,0.6536,,,,,,,,0,70,70,47,1,,
61fa936e5719bc09cb834cbe,2023-06-16_14h12.39.674,phx_ver10,2022.2.5,MacIntel,60.0024001,,,,,,,,,,,,77,testing_3,j2x,ai,j2x_ai,j2x_1_aijai.wav,j2x_1_aijai.wav,,TRUE,FALSE,,,,,,,,,,,,,,f,0.1326,space,0.5308,,,,,,,,0,71,71,76,1,,
61fa936e5719bc09cb834cbe,2023-06-16_14h12.39.674,phx_ver10,2022.2.5,MacIntel,60.0024001,,,,,,,,,,,,93,testing_3,j2x,i,j2x_i,j2x_1_iji.wav,j2x_1_iji.wav,,TRUE,FALSE,,,,,,,,,,,,,,f,0.3872,space,0.6167,,,,,,,,0,72,72,92,1,,
61fa936e5719bc09cb834cbe,2023-06-16_14h12.39.674,phx_ver10,2022.2.5,MacIntel,60.0024001,,,,,,,,,,,,119,testing_3,sh2x,i,sh2x_i,sh2x_1_ishi.wav,sh2x_8_ixi.wav,,FALSE,FALSE,,,,,,,,,,,,,,f,0.2499,space,0.621,,,,,,,,0,73,73,118,1,,
61fa936e5719bc09cb834cbe,2023-06-16_14h12.39.674,phx_ver10,2022.2.5,MacIntel,60.0024001,,,,,,,,,,,,84,testing_3,j2x,au,j2x_au,j2x_8_auxau.wav,j2x_1_aujau.wav,,FALSE,FALSE,,,,,,,,,,,,,,j,0.4663,space,0.8011,,,,,,,,0,74,74,83,1,,
61fa936e5719bc09cb834cbe,2023-06-16_14h12.39.674,phx_ver10,2022.2.5,MacIntel,60.0024001,,,,,,,,,,,,102,testing_3,sh2x,ai,sh2x_ai,sh2x_8_aixai.wav,sh2x_8_aixai.wav,,TRUE,FALSE,,,,,,,,,,,,,,f,0.2378,space,0.6903,,,,,,,,0,75,75,101,1,,
61fa936e5719bc09cb834cbe,2023-06-16_14h12.39.674,phx_ver10,2022.2.5,MacIntel,60.0024001,,,,,,,,,,,,127,testing_3,sh2j,ai,sh2j_ai,sh2j_1_aishai.wav,sh2j_8_aijai.wav,,FALSE,FALSE,,,,,,,,,,,,,,j,0.0582,space,0.4578,,,,,,,,0,76,76,126,1,,
61fa936e5719bc09cb834cbe,2023-06-16_14h12.39.674,phx_ver10,2022.2.5,MacIntel,60.0024001,,,,,,,,,,,,63,testing_3,zh2j,e,zh2j_e,zh2j_1_ezhe.wav,zh2j_8_eje.wav,,FALSE,FALSE,,,,,,,,,,,,,,f,0.4822,space,1.0182,,,,,,,,0,77,77,62,1,,
61fa936e5719bc09cb834cbe,2023-06-16_14h12.39.674,phx_ver10,2022.2.5,MacIntel,60.0024001,,,,,,,,,,,,11,testing_1,zh2x,i,zh2x_i,zh2x_1_izhi.wav,zh2x_8_ixi.wav,,FALSE,TRUE,,,,,,,,,,,,,,j,0.0283,space,0.4516,,,,,,,,0,78,78,10,1,,
61fa936e5719bc09cb834cbe,2023-06-16_14h12.39.674,phx_ver10,2022.2.5,MacIntel,60.0024001,,,,,,,,,,,,70,testing_3,zh2j,i,zh2j_i,zh2j_8_iji.wav,zh2j_8_iji.wav,,TRUE,FALSE,,,,,,,,,,,,,,f,0.1358,space,0.5172,,,,,,,,0,79,79,69,1,,
61fa936e5719bc09cb834cbe,2023-06-16_14h12.39.674,phx_ver10,2022.2.5,MacIntel,60.0024001,,,,,,,,,,,,5,testing_1,zh2x,e,zh2x_e,zh2x_1_ezhe.wav,zh2x_1_ezhe_copy.wav,,TRUE,TRUE,,,,,,,,,,,,,,f,0.4129,space,0.7334,,,,,,,,0,80,80,4,1,,
61fa936e5719bc09cb834cbe,2023-06-16_14h12.39.674,phx_ver10,2022.2.5,MacIntel,60.0024001,,,,,,,,,,,,55,testing_3,zh2j,ai,zh2j_ai,zh2j_1_aizhai.wav,zh2j_8_aijai.wav,,FALSE,FALSE,,,,,,,,,,,,,,f,0.2684,space,0.6844,,,,,,,,0,81,81,54,1,,
61fa936e5719bc09cb834cbe,2023-06-16_14h12.39.674,phx_ver10,2022.2.5,MacIntel,60.0024001,,,,,,,,,,,,115,testing_3,sh2x,ei,sh2x_ei,sh2x_1_eishei.wav,sh2x_8_eixei.wav,,FALSE,FALSE,,,,,,,,,,,,,,f,0.1809,space,0.5715,,,,,,,,0,82,82,114,1,,
61fa936e5719bc09cb834cbe,2023-06-16_14h12.39.674,phx_ver10,2022.2.5,MacIntel,60.0024001,,,,,,,,,,,,22,testing_2,zh2x,ei,zh2x_ei,zh2x_8_eixei.wav,zh2x_8_eixei.wav,,TRUE,FALSE,,,,,,,,,,,,,,f,0.1349,space,0.5308,,,,,,,,0,83,83,21,1,,
61fa936e5719bc09cb834cbe,2023-06-16_14h12.39.674,phx_ver10,2022.2.5,MacIntel,60.0024001,,,,,,,,,,,,83,testing_3,j2x,au,j2x_au,j2x_1_aujau.wav,j2x_8_auxau.wav,,FALSE,FALSE,,,,,,,,,,,,,,j,0.0506,space,0.4217,,,,,,,,0,84,84,82,1,,
61fa936e5719bc09cb834cbe,2023-06-16_14h12.39.674,phx_ver10,2022.2.5,MacIntel,60.0024001,,,,,,,,,,,,4,testing_1,zh2x,a,zh2x_a,zh2x_8_axa.wav,zh2x_1_azha.wav,,FALSE,TRUE,,,,,,,,,,,,,,j,0.0025,space,0.4383,,,,,,,,0,85,85,3,1,,
61fa936e5719bc09cb834cbe,2023-06-16_14h12.39.674,phx_ver10,2022.2.5,MacIntel,60.0024001,,,,,,,,,,,,12,testing_1,zh2x,i,zh2x_i,zh2x_8_ixi.wav,zh2x_1_izhi.wav,,FALSE,TRUE,,,,,,,,,,,,,,f,1.0695,space,1.4163,,,,,,,,0,86,86,11,1,,
61fa936e5719bc09cb834cbe,2023-06-16_14h12.39.674,phx_ver10,2022.2.5,MacIntel,60.0024001,,,,,,,,,,,,139,testing_3,sh2j,ei,sh2j_ei,sh2j_1_eishei.wav,sh2j_8_eijei.wav,,FALSE,FALSE,,,,,,,,,,,,,,j,1.422,space,8.1953,,,,,,,,0,87,87,138,1,,
61fa936e5719bc09cb834cbe,2023-06-16_14h12.39.674,phx_ver10,2022.2.5,MacIntel,60.0024001,,,,,,,,,,,,75,testing_3,j2x,a,j2x_a,j2x_1_aja.wav,j2x_8_axa.wav,,FALSE,FALSE,,,,,,,,,,,,,,j,0.9253,space,1.3207,,,,,,,,0,88,88,74,1,,
61fa936e5719bc09cb834cbe,2023-06-16_14h12.39.674,phx_ver10,2022.2.5,MacIntel,60.0024001,,,,,,,,,,,,89,testing_3,j2x,ei,j2x_ei,j2x_1_eijei.wav,j2x_1_eijei.wav,,TRUE,FALSE,,,,,,,,,,,,,,f,0.5323,space,1.0572,,,,,,,,0,89,89,88,1,,
61fa936e5719bc09cb834cbe,2023-06-16_14h12.39.674,phx_ver10,2022.2.5,MacIntel,60.0024001,,,,,,,,,,,,39,testing_3,zh2sh,e,zh2sh_e,zh2sh_1_ezhe.wav,zh2sh_8_eshe.wav,,FALSE,FALSE,,,,,,,,,,,,,,f,2.1427,space,3.5407,,,,,,,,0,90,90,38,1,,
61fa936e5719bc09cb834cbe,2023-06-16_14h12.39.674,phx_ver10,2022.2.5,MacIntel,60.0024001,,,,,,,,,,,,21,testing_2,zh2x,ei,zh2x_ei,zh2x_1_eizhei.wav,zh2x_1_eizhei.wav,,TRUE,FALSE,,,,,,,,,,,,,,f,1.8679,space,2.1101,,,,,,,,0,91,91,20,1,,
61fa936e5719bc09cb834cbe,2023-06-16_14h12.39.674,phx_ver10,2022.2.5,MacIntel,60.0024001,,,,,,,,,,,,108,testing_3,sh2x,au,sh2x_au,sh2x_8_auxau.wav,sh2x_1_aushau.wav,,FALSE,FALSE,,,,,,,,,,,,,,j,0.1478,space,0.3323,,,,,,,,0,92,92,107,1,,
61fa936e5719bc09cb834cbe,2023-06-16_14h12.39.674,phx_ver10,2022.2.5,MacIntel,60.0024001,,,,,,,,,,,,80,testing_3,j2x,ai,j2x_ai,j2x_8_aixai.wav,j2x_1_aijai.wav,,FALSE,FALSE,,,,,,,,,,,,,,j,0.3697,space,0.7217,,,,,,,,0,93,93,79,1,,
61fa936e5719bc09cb834cbe,2023-06-16_14h12.39.674,phx_ver10,2022.2.5,MacIntel,60.0024001,,,,,,,,,,,,36,testing_3,zh2sh,au,zh2sh_au,zh2sh_8_aushau.wav,zh2sh_1_auzhau.wav,,FALSE,FALSE,,,,,,,,,,,,,,j,0.1494,space,0.5162,,,,,,,,0,94,94,35,1,,
61fa936e5719bc09cb834cbe,2023-06-16_14h12.39.674,phx_ver10,2022.2.5,MacIntel,60.0024001,,,,,,,,,,,,142,testing_3,sh2j,i,sh2j_i,sh2j_8_iji.wav,sh2j_8_iji.wav,,TRUE,FALSE,,,,,,,,,,,,,,f,0.4346,space,0.7757,,,,,,,,0,95,95,141,1,,
61fa936e5719bc09cb834cbe,2023-06-16_14h12.39.674,phx_ver10,2022.2.5,MacIntel,60.0024001,,,,,,,,,,,,135,testing_3,sh2j,e,sh2j_e,sh2j_1_eshe.wav,sh2j_8_eje.wav,,FALSE,FALSE,,,,,,,,,,,,,,j,0.4183,space,0.7499,,,,,,,,0,96,96,134,1,,
61fa936e5719bc09cb834cbe,2023-06-16_14h12.39.674,phx_ver10,2022.2.5,MacIntel,60.0024001,,,,,,,,,,,,16,testing_2,zh2x,ai,zh2x_ai,zh2x_8_aixai.wav,zh2x_1_aizhai.wav,,FALSE,FALSE,,,,,,,,,,,,,,j,0.1474,space,0.5043,,,,,,,,0,97,97,15,1,,
61fa936e5719bc09cb834cbe,2023-06-16_14h12.39.674,phx_ver10,2022.2.5,MacIntel,60.0024001,,,,,,,,,,,,91,testing_3,j2x,ei,j2x_ei,j2x_1_eijei.wav,j2x_8_eixei.wav,,FALSE,FALSE,,,,,,,,,,,,,,j,0.374,space,0.5735,,,,,,,,0,98,98,90,1,,
61fa936e5719bc09cb834cbe,2023-06-16_14h12.39.674,phx_ver10,2022.2.5,MacIntel,60.0024001,,,,,,,,,,,,72,testing_3,zh2j,i,zh2j_i,zh2j_8_iji.wav,zh2j_1_izhi.wav,,FALSE,FALSE,,,,,,,,,,,,,,f,0.3162,space,0.7998,,,,,,,,0,99,99,71,1,,
61fa936e5719bc09cb834cbe,2023-06-16_14h12.39.674,phx_ver10,2022.2.5,MacIntel,60.0024001,,,,,,,,,,,,86,testing_3,j2x,e,j2x_e,j2x_8_exe.wav,j2x_8_exe.wav,,TRUE,FALSE,,,,,,,,,,,,,,f,0.1905,space,0.6389,,,,,,,,0,100,100,85,1,,
61fa936e5719bc09cb834cbe,2023-06-16_14h12.39.674,phx_ver10,2022.2.5,MacIntel,60.0024001,,,,,,,,,,,,138,testing_3,sh2j,ei,sh2j_ei,sh2j_8_eijei.wav,sh2j_8_eijei.wav,,TRUE,FALSE,,,,,,,,,,,,,,f,0.349,space,0.852,,,,,,,,0,101,101,137,1,,
61fa936e5719bc09cb834cbe,2023-06-16_14h12.39.674,phx_ver10,2022.2.5,MacIntel,60.0024001,,,,,,,,,,,,113,testing_3,sh2x,ei,sh2x_ei,sh2x_1_eishei.wav,sh2x_1_eishei.wav,,TRUE,FALSE,,,,,,,,,,,,,,f,0.1537,space,0.5994,,,,,,,,0,102,102,112,1,,
61fa936e5719bc09cb834cbe,2023-06-16_14h12.39.674,phx_ver10,2022.2.5,MacIntel,60.0024001,,,,,,,,,,,,14,testing_2,zh2x,ai,zh2x_ai,zh2x_8_aixai.wav,zh2x_8_aixai.wav,,TRUE,FALSE,,,,,,,,,,,,,,f,1.2134,space,1.4675,,,,,,,,0,103,103,13,1,,
61fa936e5719bc09cb834cbe,2023-06-16_14h12.39.674,phx_ver10,2022.2.5,MacIntel,60.0024001,,,,,,,,,,,,134,testing_3,sh2j,e,sh2j_e,sh2j_8_eje.wav,sh2j_8_eje.wav,,TRUE,FALSE,,,,,,,,,,,,,,f,0.1618,space,0.5476,,,,,,,,0,104,104,133,1,,
61fa936e5719bc09cb834cbe,2023-06-16_14h12.39.674,phx_ver10,2022.2.5,MacIntel,60.0024001,,,,,,,,,,,,137,testing_3,sh2j,ei,sh2j_ei,sh2j_1_eishei.wav,sh2j_1_eishei.wav,,TRUE,FALSE,,,,,,,,,,,,,,f,0.2675,space,0.6972,,,,,,,,0,105,105,136,1,,
61fa936e5719bc09cb834cbe,2023-06-16_14h12.39.674,phx_ver10,2022.2.5,MacIntel,60.0024001,,,,,,,,,,,,40,testing_3,zh2sh,e,zh2sh_e,zh2sh_8_eshe.wav,zh2sh_1_ezhe.wav,,FALSE,FALSE,,,,,,,,,,,,,,j,0.0684,space,0.4823,,,,,,,,0,106,106,39,1,,
61fa936e5719bc09cb834cbe,2023-06-16_14h12.39.674,phx_ver10,2022.2.5,MacIntel,60.0024001,,,,,,,,,,,,66,testing_3,zh2j,ei,zh2j_ei,zh2j_8_eijei.wav,zh2j_8_eijei.wav,,TRUE,FALSE,,,,,,,,,,,,,,f,0.0833,space,0.4699,,,,,,,,0,107,107,65,1,,
61fa936e5719bc09cb834cbe,2023-06-16_14h12.39.674,phx_ver10,2022.2.5,MacIntel,60.0024001,,,,,,,,,,,,2,testing_1,zh2x,a,zh2x_a,zh2x_8_axa.wav,zh2x_8_axa_copy.wav,,TRUE,TRUE,,,,,,,,,,,,,,f,0.1117,space,0.4839,,,,,,,,0,108,108,1,1,,
61fa936e5719bc09cb834cbe,2023-06-16_14h12.39.674,phx_ver10,2022.2.5,MacIntel,60.0024001,,,,,,,,,,,,53,testing_3,zh2j,ai,zh2j_ai,zh2j_1_aizhai.wav,zh2j_1_aizhai.wav,,TRUE,FALSE,,,,,,,,,,,,,,f,0.1133,space,0.4529,,,,,,,,0,109,109,52,1,,
61fa936e5719bc09cb834cbe,2023-06-16_14h12.39.674,phx_ver10,2022.2.5,MacIntel,60.0024001,,,,,,,,,,,,43,testing_3,zh2sh,ei,zh2sh_ei,zh2sh_1_eizhei.wav,zh2sh_8_eishei.wav,,FALSE,FALSE,,,,,,,,,,,,,,j,0.5169,space,0.99,,,,,,,,0,110,110,42,1,,
61fa936e5719bc09cb834cbe,2023-06-16_14h12.39.674,phx_ver10,2022.2.5,MacIntel,60.0024001,,,,,,,,,,,,37,testing_3,zh2sh,e,zh2sh_e,zh2sh_1_ezhe.wav,zh2sh_1_ezhe.wav,,TRUE,FALSE,,,,,,,,,,,,,,f,0.4994,space,0.7423,,,,,,,,0,111,111,36,1,,
61fa936e5719bc09cb834cbe,2023-06-16_14h12.39.674,phx_ver10,2022.2.5,MacIntel,60.0024001,,,,,,,,,,,,33,testing_3,zh2sh,au,zh2sh_au,zh2sh_1_auzhau.wav,zh2sh_1_auzhau.wav,,TRUE,FALSE,,,,,,,,,,,,,,f,0.0238,space,0.5304,,,,,,,,0,112,112,32,1,,
61fa936e5719bc09cb834cbe,2023-06-16_14h12.39.674,phx_ver10,2022.2.5,MacIntel,60.0024001,,,,,,,,,,,,79,testing_3,j2x,ai,j2x_ai,j2x_1_aijai.wav,j2x_8_aixai.wav,,FALSE,FALSE,,,,,,,,,,,,,,j,0.4904,space,0.9367,,,,,,,,0,113,113,78,1,,
61fa936e5719bc09cb834cbe,2023-06-16_14h12.39.674,phx_ver10,2022.2.5,MacIntel,60.0024001,,,,,,,,,,,,67,testing_3,zh2j,ei,zh2j_ei,zh2j_1_eizhei.wav,zh2j_8_eijei.wav,,FALSE,FALSE,,,,,,,,,,,,,,f,0.3969,space,0.847,,,,,,,,0,114,114,66,1,,
61fa936e5719bc09cb834cbe,2023-06-16_14h12.39.674,phx_ver10,2022.2.5,MacIntel,60.0024001,,,,,,,,,,,,26,testing_3,zh2sh,a,zh2sh_a,zh2sh_8_asha.wav,zh2sh_8_asha.wav,,TRUE,FALSE,,,,,,,,,,,,,,f,0.8674,space,1.4207,,,,,,,,0,115,115,25,1,,
61fa936e5719bc09cb834cbe,2023-06-16_14h12.39.674,phx_ver10,2022.2.5,MacIntel,60.0024001,,,,,,,,,,,,65,testing_3,zh2j,ei,zh2j_ei,zh2j_1_eizhei.wav,zh2j_1_eizhei.wav,,TRUE,FALSE,,,,,,,,,,,,,,f,0.0196,space,0.4757,,,,,,,,0,116,116,64,1,,
61fa936e5719bc09cb834cbe,2023-06-16_14h12.39.674,phx_ver10,2022.2.5,MacIntel,60.0024001,,,,,,,,,,,,101,testing_3,sh2x,ai,sh2x_ai,sh2x_1_aishai.wav,sh2x_1_aishai.wav,,TRUE,FALSE,,,,,,,,,,,,,,f,0.3916,space,0.6543,,,,,,,,0,117,117,100,1,,
61fa936e5719bc09cb834cbe,2023-06-16_14h12.39.674,phx_ver10,2022.2.5,MacIntel,60.0024001,,,,,,,,,,,,56,testing_3,zh2j,ai,zh2j_ai,zh2j_8_aijai.wav,zh2j_1_aizhai.wav,,FALSE,FALSE,,,,,,,,,,,,,,f,0.3878,space,0.7203,,,,,,,,0,118,118,55,1,,
61fa936e5719bc09cb834cbe,2023-06-16_14h12.39.674,phx_ver10,2022.2.5,MacIntel,60.0024001,,,,,,,,,,,,60,testing_3,zh2j,au,zh2j_au,zh2j_8_aujau.wav,zh2j_1_auzhau.wav,,FALSE,FALSE,,,,,,,,,,,,,,f,0.0349,space,0.6167,,,,,,,,0,119,119,59,1,,
61fa936e5719bc09cb834cbe,2023-06-16_14h12.39.674,phx_ver10,2022.2.5,MacIntel,60.0024001,,,,,,,,,,,,50,testing_3,zh2j,a,zh2j_a,zh2j_8_aja.wav,zh2j_8_aja.wav,,TRUE,FALSE,,,,,,,,,,,,,,f,0.248,space,1.0635,,,,,,,,0,120,120,49,1,,
61fa936e5719bc09cb834cbe,2023-06-16_14h12.39.674,phx_ver10,2022.2.5,MacIntel,60.0024001,,,,,,,,,,,,46,testing_3,zh2sh,i,zh2sh_i,zh2sh_8_ishi.wav,zh2sh_8_ishi.wav,,TRUE,FALSE,,,,,,,,,,,,,,f,1E-04,space,0.5235,,,,,,,,0,121,121,45,1,,
61fa936e5719bc09cb834cbe,2023-06-16_14h12.39.674,phx_ver10,2022.2.5,MacIntel,60.0024001,,,,,,,,,,,,88,testing_3,j2x,e,j2x_e,j2x_8_exe.wav,j2x_1_eje.wav,,FALSE,FALSE,,,,,,,,,,,,,,f,0.4106,space,0.8239,,,,,,,,0,122,122,87,1,,
61fa936e5719bc09cb834cbe,2023-06-16_14h12.39.674,phx_ver10,2022.2.5,MacIntel,60.0024001,,,,,,,,,,,,47,testing_3,zh2sh,i,zh2sh_i,zh2sh_1_izhi.wav,zh2sh_8_ishi.wav,,FALSE,FALSE,,,,,,,,,,,,,,j,0.1385,space,0.4872,,,,,,,,0,123,123,46,1,,
61fa936e5719bc09cb834cbe,2023-06-16_14h12.39.674,phx_ver10,2022.2.5,MacIntel,60.0024001,,,,,,,,,,,,38,testing_3,zh2sh,e,zh2sh_e,zh2sh_8_eshe.wav,zh2sh_8_eshe.wav,,TRUE,FALSE,,,,,,,,,,,,,,f,0.3594,space,0.7682,,,,,,,,0,124,124,37,1,,
61fa936e5719bc09cb834cbe,2023-06-16_14h12.39.674,phx_ver10,2022.2.5,MacIntel,60.0024001,,,,,,,,,,,,24,testing_2,zh2x,ei,zh2x_ei,zh2x_8_eixei.wav,zh2x_1_eizhei.wav,,FALSE,FALSE,,,,,,,,,,,,,,j,0.4182,space,0.7949,,,,,,,,0,125,125,23,1,,
61fa936e5719bc09cb834cbe,2023-06-16_14h12.39.674,phx_ver10,2022.2.5,MacIntel,60.0024001,,,,,,,,,,,,30,testing_3,zh2sh,ai,zh2sh_ai,zh2sh_8_aishai.wav,zh2sh_8_aishai.wav,,TRUE,FALSE,,,,,,,,,,,,,,f,0.0871,space,0.4585,,,,,,,,0,126,126,29,1,,
61fa936e5719bc09cb834cbe,2023-06-16_14h12.39.674,phx_ver10,2022.2.5,MacIntel,60.0024001,,,,,,,,,,,,1,testing_1,zh2x,a,zh2x_a,zh2x_1_azha.wav,zh2x_1_azha_copy.wav,,TRUE,TRUE,,,,,,,,,,,,,,f,0.0004,space,0.4479,,,,,,,,0,127,127,0,1,,
61fa936e5719bc09cb834cbe,2023-06-16_14h12.39.674,phx_ver10,2022.2.5,MacIntel,60.0024001,,,,,,,,,,,,69,testing_3,zh2j,i,zh2j_i,zh2j_1_izhi.wav,zh2j_1_izhi.wav,,TRUE,FALSE,,,,,,,,,,,,,,f,0.2185,space,0.5569,,,,,,,,0,128,128,68,1,,
61fa936e5719bc09cb834cbe,2023-06-16_14h12.39.674,phx_ver10,2022.2.5,MacIntel,60.0024001,,,,,,,,,,,,120,testing_3,sh2x,i,sh2x_i,sh2x_8_ixi.wav,sh2x_1_ishi.wav,,FALSE,FALSE,,,,,,,,,,,,,,f,0.1686,space,0.503,,,,,,,,0,129,129,119,1,,
61fa936e5719bc09cb834cbe,2023-06-16_14h12.39.674,phx_ver10,2022.2.5,MacIntel,60.0024001,,,,,,,,,,,,109,testing_3,sh2x,e,sh2x_e,sh2x_1_eshe.wav,sh2x_1_eshe.wav,,TRUE,FALSE,,,,,,,,,,,,,,f,0.399,space,0.7157,,,,,,,,0,130,130,108,1,,
61fa936e5719bc09cb834cbe,2023-06-16_14h12.39.674,phx_ver10,2022.2.5,MacIntel,60.0024001,,,,,,,,,,,,35,testing_3,zh2sh,au,zh2sh_au,zh2sh_1_auzhau.wav,zh2sh_8_aushau.wav,,FALSE,FALSE,,,,,,,,,,,,,,j,0.2389,space,0.5579,,,,,,,,0,131,131,34,1,,
61fa936e5719bc09cb834cbe,2023-06-16_14h12.39.674,phx_ver10,2022.2.5,MacIntel,60.0024001,,,,,,,,,,,,85,testing_3,j2x,e,j2x_e,j2x_1_eje.wav,j2x_1_eje.wav,,TRUE,FALSE,,,,,,,,,,,,,,f,0.3147,space,0.5987,,,,,,,,0,132,132,84,1,,
61fa936e5719bc09cb834cbe,2023-06-16_14h12.39.674,phx_ver10,2022.2.5,MacIntel,60.0024001,,,,,,,,,,,,51,testing_3,zh2j,a,zh2j_a,zh2j_1_azha.wav,zh2j_8_aja.wav,,FALSE,FALSE,,,,,,,,,,,,,,f,0.0652,space,0.5201,,,,,,,,0,133,133,50,1,,
61fa936e5719bc09cb834cbe,2023-06-16_14h12.39.674,phx_ver10,2022.2.5,MacIntel,60.0024001,,,,,,,,,,,,131,testing_3,sh2j,au,sh2j_au,sh2j_1_aushau.wav,sh2j_8_aujau.wav,,FALSE,FALSE,,,,,,,,,,,,,,j,0.2508,space,0.6014,,,,,,,,0,134,134,130,1,,
61fa936e5719bc09cb834cbe,2023-06-16_14h12.39.674,phx_ver10,2022.2.5,MacIntel,60.0024001,,,,,,,,,,,,74,testing_3,j2x,a,j2x_a,j2x_8_axa.wav,j2x_8_axa.wav,,TRUE,FALSE,,,,,,,,,,,,,,f,0.0837,space,0.5008,,,,,,,,0,135,135,73,1,,
61fa936e5719bc09cb834cbe,2023-06-16_14h12.39.674,phx_ver10,2022.2.5,MacIntel,60.0024001,,,,,,,,,,,,31,testing_3,zh2sh,ai,zh2sh_ai,zh2sh_1_aizhai.wav,zh2sh_8_aishai.wav,,FALSE,FALSE,,,,,,,,,,,,,,j,0.4841,space,0.9172,,,,,,,,0,136,136,30,1,,
61fa936e5719bc09cb834cbe,2023-06-16_14h12.39.674,phx_ver10,2022.2.5,MacIntel,60.0024001,,,,,,,,,,,,104,testing_3,sh2x,ai,sh2x_ai,sh2x_8_aixai.wav,sh2x_1_aishai.wav,,FALSE,FALSE,,,,,,,,,,,,,,f,0.1883,space,0.6177,,,,,,,,0,137,137,103,1,,
61fa936e5719bc09cb834cbe,2023-06-16_14h12.39.674,phx_ver10,2022.2.5,MacIntel,60.0024001,,,,,,,,,,,,15,testing_2,zh2x,ai,zh2x_ai,zh2x_1_aizhai.wav,zh2x_8_aixai.wav,,FALSE,FALSE,,,,,,,,,,,,,,f,0.0992,space,0.466,,,,,,,,0,138,138,14,1,,
61fa936e5719bc09cb834cbe,2023-06-16_14h12.39.674,phx_ver10,2022.2.5,MacIntel,60.0024001,,,,,,,,,,,,117,testing_3,sh2x,i,sh2x_i,sh2x_1_ishi.wav,sh2x_1_ishi.wav,,TRUE,FALSE,,,,,,,,,,,,,,f,0.0166,space,0.432,,,,,,,,0,139,139,116,1,,
61fa936e5719bc09cb834cbe,2023-06-16_14h12.39.674,phx_ver10,2022.2.5,MacIntel,60.0024001,,,,,,,,,,,,49,testing_3,zh2j,a,zh2j_a,zh2j_1_azha.wav,zh2j_1_azha.wav,,TRUE,FALSE,,,,,,,,,,,,,,f,0.1492,space,0.5007,,,,,,,,0,140,140,48,1,,
61fa936e5719bc09cb834cbe,2023-06-16_14h12.39.674,phx_ver10,2022.2.5,MacIntel,60.0024001,,,,,,,,,,,,144,testing_3,sh2j,i,sh2j_i,sh2j_8_iji.wav,sh2j_1_ishi.wav,,FALSE,FALSE,,,,,,,,,,,,,,j,0.1007,space,0.4404,,,,,,,,0,141,141,143,1,,
61fa936e5719bc09cb834cbe,2023-06-16_14h12.39.674,phx_ver10,2022.2.5,MacIntel,60.0024001,,,,,,,,,,,,32,testing_3,zh2sh,ai,zh2sh_ai,zh2sh_8_aishai.wav,zh2sh_1_aizhai.wav,,FALSE,FALSE,,,,,,,,,,,,,,j,0.1867,space,0.7474,,,,,,,,0,142,142,31,1,,
61fa936e5719bc09cb834cbe,2023-06-16_14h12.39.674,phx_ver10,2022.2.5,MacIntel,60.0024001,,,,,,,,,,,,59,testing_3,zh2j,au,zh2j_au,zh2j_1_auzhau.wav,zh2j_8_aujau.wav,,FALSE,FALSE,,,,,,,,,,,,,,f,0.206,space,0.6042,,,,,,,,0,143,143,58,1,,
61fa936e5719bc09cb834cbe,2023-06-16_14h12.39.674,phx_ver10,2022.2.5,MacIntel,60.0024001,,,,,,,,,,,,,,,,,,,,,,,,,,,,,,,,,,,,,,,,,,,,,,,,,,,space,1.7847
