participant,date,expName,psychopyVersion,OS,frameRate,space_1.keys,space_1.rt,space_2.keys,space_2.rt,space_train.keys,space_train.rt,training.thisRepN,training.thisTrialN,training.thisN,training.thisIndex,training.ran,token_id,task,continuum,vowel,series,sound_1,sound_2,img,same,trained,FJ_attn.keys,FJ_attn.rt,space_attn.keys,space_attn.rt,if_attn_test.thisRepN,if_attn_test.thisTrialN,if_attn_test.thisN,if_attn_test.thisIndex,if_attn_test.ran,space_trans_1.keys,space_trans_1.rt,space_trans_11.keys,space_trans_11.rt,FJ_test.keys,FJ_test.rt,space_test.keys,space_test.rt,testing_pre.thisRepN,testing_pre.thisTrialN,testing_pre.thisN,testing_pre.thisIndex,testing_pre.ran,space_trans_2.keys,space_trans_2.rt,testing_all.thisRepN,testing_all.thisTrialN,testing_all.thisN,testing_all.thisIndex,testing_all.ran,space_ending.keys,space_ending.rt
62b39c0ea0a9909088d4270f,2023-06-16_11h01.37.697,phx_ver10,2022.2.5,Win32,60.06727535,,,,,,,,,,,,,,,,,,,,,,,,,,,,,,,,,,,,,,,,,,,,,,,,,,,,
62b39c0ea0a9909088d4270f,2023-06-16_11h01.37.697,phx_ver10,2022.2.5,Win32,60.06727535,space,4.8144,,,,,,,,,,,,,,,,,,,,,,,,,,,,,,,,,,,,,,,,,,,,,,,,,,
62b39c0ea0a9909088d4270f,2023-06-16_11h01.37.697,phx_ver10,2022.2.5,Win32,60.06727535,,,space,3.3627,,,,,,,,,,,,,,,,,,,,,,,,,,,,,,,,,,,,,,,,,,,,,,,,
62b39c0ea0a9909088d4270f,2023-06-16_11h01.37.697,phx_ver10,2022.2.5,Win32,60.06727535,,,,,space,1.4179,0,0,0,44,1,45,training,zh2x,i,zh2x_i,zh2x_7_ixi.wav,,ixi.jpg,,,,,,,,,,,,,,,,,,,,,,,,,,,,,,,,,
62b39c0ea0a9909088d4270f,2023-06-16_11h01.37.697,phx_ver10,2022.2.5,Win32,60.06727535,,,,,space,4.3775,0,1,1,33,1,34,training,zh2x,i,zh2x_i,zh2x_2_izhi.wav,,izhi.jpg,,,,,,,,,,,,,,,,,,,,,,,,,,,,,,,,,
62b39c0ea0a9909088d4270f,2023-06-16_11h01.37.697,phx_ver10,2022.2.5,Win32,60.06727535,,,,,space,1.4552,0,2,2,18,1,19,training,zh2x,e,zh2x_e,zh2x_2_ezhe.wav,,ezhe.jpg,,,,,,,,,,,,,,,,,,,,,,,,,,,,,,,,,
62b39c0ea0a9909088d4270f,2023-06-16_11h01.37.697,phx_ver10,2022.2.5,Win32,60.06727535,,,,,space,0.6219,0,3,3,38,1,39,training,zh2x,i,zh2x_i,zh2x_3_izhi.wav,,izhi.jpg,,,,,,,,,,,,,,,,,,,,,,,,,,,,,,,,,
62b39c0ea0a9909088d4270f,2023-06-16_11h01.37.697,phx_ver10,2022.2.5,Win32,60.06727535,,,,,space,1.0672,0,4,4,15,1,16,training,zh2x,a,zh2x_a,zh2x_8_axa.wav,,axa.jpg,,,,,,,,,,,,,,,,,,,,,,,,,,,,,,,,,
62b39c0ea0a9909088d4270f,2023-06-16_11h01.37.697,phx_ver10,2022.2.5,Win32,60.06727535,,,,,space,0.6204,0,5,5,2,1,3,training,zh2x,a,zh2x_a,zh2x_2_azha.wav,,azha.jpg,,,,,,,,,,,,,,,,,,,,,,,,,,,,,,,,,
62b39c0ea0a9909088d4270f,2023-06-16_11h01.37.697,phx_ver10,2022.2.5,Win32,60.06727535,,,,,,,,,,,,,attn_test,,,,zh2x_1_izhi.wav,zh2x_8_axa.wav,axa.jpg,RIGHT,,j,5.9155,space,7.6313,0,0,0,0,1,,,,,,,,,,,,,,,,,,,,,,
62b39c0ea0a9909088d4270f,2023-06-16_11h01.37.697,phx_ver10,2022.2.5,Win32,60.06727535,,,,,space,1.2211,0,6,6,11,1,12,training,zh2x,a,zh2x_a,zh2x_7_axa.wav,,axa.jpg,,,,,,,,,,,,,,,,,,,,,,,,,,,,,,,,,
62b39c0ea0a9909088d4270f,2023-06-16_11h01.37.697,phx_ver10,2022.2.5,Win32,60.06727535,,,,,space,0.9913,0,7,7,5,1,6,training,zh2x,a,zh2x_a,zh2x_3_azha.wav,,azha.jpg,,,,,,,,,,,,,,,,,,,,,,,,,,,,,,,,,
62b39c0ea0a9909088d4270f,2023-06-16_11h01.37.697,phx_ver10,2022.2.5,Win32,60.06727535,,,,,space,0.671,0,8,8,9,1,10,training,zh2x,a,zh2x_a,zh2x_6_axa.wav,,axa.jpg,,,,,,,,,,,,,,,,,,,,,,,,,,,,,,,,,
62b39c0ea0a9909088d4270f,2023-06-16_11h01.37.697,phx_ver10,2022.2.5,Win32,60.06727535,,,,,space,0.2582,0,9,9,10,1,11,training,zh2x,a,zh2x_a,zh2x_6_axa.wav,,axa.jpg,,,,,,,,,,,,,,,,,,,,,,,,,,,,,,,,,
62b39c0ea0a9909088d4270f,2023-06-16_11h01.37.697,phx_ver10,2022.2.5,Win32,60.06727535,,,,,space,0.5845,0,10,10,19,1,20,training,zh2x,e,zh2x_e,zh2x_2_ezhe.wav,,ezhe.jpg,,,,,,,,,,,,,,,,,,,,,,,,,,,,,,,,,
62b39c0ea0a9909088d4270f,2023-06-16_11h01.37.697,phx_ver10,2022.2.5,Win32,60.06727535,,,,,space,0.2533,0,11,11,43,1,44,training,zh2x,i,zh2x_i,zh2x_7_ixi.wav,,ixi.jpg,,,,,,,,,,,,,,,,,,,,,,,,,,,,,,,,,
62b39c0ea0a9909088d4270f,2023-06-16_11h01.37.697,phx_ver10,2022.2.5,Win32,60.06727535,,,,,,,,,,,,,attn_test,,,,zh2x_8_ixi.wav,zh2x_8_axa.wav,axa.jpg,RIGHT,,j,0.291,space,1.0975,0,0,0,0,1,,,,,,,,,,,,,,,,,,,,,,
62b39c0ea0a9909088d4270f,2023-06-16_11h01.37.697,phx_ver10,2022.2.5,Win32,60.06727535,,,,,space,0.6841,0,12,12,41,1,42,training,zh2x,i,zh2x_i,zh2x_6_ixi.wav,,ixi.jpg,,,,,,,,,,,,,,,,,,,,,,,,,,,,,,,,,
62b39c0ea0a9909088d4270f,2023-06-16_11h01.37.697,phx_ver10,2022.2.5,Win32,60.06727535,,,,,space,0.3675,0,13,13,42,1,43,training,zh2x,i,zh2x_i,zh2x_6_ixi.wav,,ixi.jpg,,,,,,,,,,,,,,,,,,,,,,,,,,,,,,,,,
62b39c0ea0a9909088d4270f,2023-06-16_11h01.37.697,phx_ver10,2022.2.5,Win32,60.06727535,,,,,space,0.2142,0,14,14,39,1,40,training,zh2x,i,zh2x_i,zh2x_4_izhi.wav,,izhi.jpg,,,,,,,,,,,,,,,,,,,,,,,,,,,,,,,,,
62b39c0ea0a9909088d4270f,2023-06-16_11h01.37.697,phx_ver10,2022.2.5,Win32,60.06727535,,,,,space,0.1193,0,15,15,47,1,48,training,zh2x,i,zh2x_i,zh2x_8_ixi.wav,,ixi.jpg,,,,,,,,,,,,,,,,,,,,,,,,,,,,,,,,,
62b39c0ea0a9909088d4270f,2023-06-16_11h01.37.697,phx_ver10,2022.2.5,Win32,60.06727535,,,,,space,0.6168,0,16,16,25,1,26,training,zh2x,e,zh2x_e,zh2x_6_exe.wav,,exe.jpg,,,,,,,,,,,,,,,,,,,,,,,,,,,,,,,,,
62b39c0ea0a9909088d4270f,2023-06-16_11h01.37.697,phx_ver10,2022.2.5,Win32,60.06727535,,,,,space,0.5006,0,17,17,7,1,8,training,zh2x,a,zh2x_a,zh2x_4_azha.wav,,azha.jpg,,,,,,,,,,,,,,,,,,,,,,,,,,,,,,,,,
62b39c0ea0a9909088d4270f,2023-06-16_11h01.37.697,phx_ver10,2022.2.5,Win32,60.06727535,,,,,,,,,,,,,attn_test,,,,zh2x_1_azha.wav,zh2x_8_ixi.wav,azha.jpg,LEFT,,f,1.065,space,1.4186,0,0,0,0,1,,,,,,,,,,,,,,,,,,,,,,
62b39c0ea0a9909088d4270f,2023-06-16_11h01.37.697,phx_ver10,2022.2.5,Win32,60.06727535,,,,,space,0.4142,0,18,18,17,1,18,training,zh2x,e,zh2x_e,zh2x_2_ezhe.wav,,ezhe.jpg,,,,,,,,,,,,,,,,,,,,,,,,,,,,,,,,,
62b39c0ea0a9909088d4270f,2023-06-16_11h01.37.697,phx_ver10,2022.2.5,Win32,60.06727535,,,,,space,0.4503,0,19,19,20,1,21,training,zh2x,e,zh2x_e,zh2x_2_ezhe.wav,,ezhe.jpg,,,,,,,,,,,,,,,,,,,,,,,,,,,,,,,,,
62b39c0ea0a9909088d4270f,2023-06-16_11h01.37.697,phx_ver10,2022.2.5,Win32,60.06727535,,,,,space,0.521,0,20,20,14,1,15,training,zh2x,a,zh2x_a,zh2x_7_axa.wav,,axa.jpg,,,,,,,,,,,,,,,,,,,,,,,,,,,,,,,,,
62b39c0ea0a9909088d4270f,2023-06-16_11h01.37.697,phx_ver10,2022.2.5,Win32,60.06727535,,,,,space,0.5259,0,21,21,28,1,29,training,zh2x,e,zh2x_e,zh2x_7_exe.wav,,exe.jpg,,,,,,,,,,,,,,,,,,,,,,,,,,,,,,,,,
62b39c0ea0a9909088d4270f,2023-06-16_11h01.37.697,phx_ver10,2022.2.5,Win32,60.06727535,,,,,space,0.1219,0,22,22,31,1,32,training,zh2x,e,zh2x_e,zh2x_8_exe.wav,,exe.jpg,,,,,,,,,,,,,,,,,,,,,,,,,,,,,,,,,
62b39c0ea0a9909088d4270f,2023-06-16_11h01.37.697,phx_ver10,2022.2.5,Win32,60.06727535,,,,,space,0.257,0,23,23,45,1,46,training,zh2x,i,zh2x_i,zh2x_7_ixi.wav,,ixi.jpg,,,,,,,,,,,,,,,,,,,,,,,,,,,,,,,,,
62b39c0ea0a9909088d4270f,2023-06-16_11h01.37.697,phx_ver10,2022.2.5,Win32,60.06727535,,,,,,,,,,,,,attn_test,,,,zh2x_8_exe.wav,zh2x_1_izhi.wav,exe.jpg,LEFT,,f,1.5473,space,2.1029,0,0,0,0,1,,,,,,,,,,,,,,,,,,,,,,
62b39c0ea0a9909088d4270f,2023-06-16_11h01.37.697,phx_ver10,2022.2.5,Win32,60.06727535,,,,,space,0.6867,0,24,24,32,1,33,training,zh2x,i,zh2x_i,zh2x_1_izhi.wav,,izhi.jpg,,,,,,,,,,,,,,,,,,,,,,,,,,,,,,,,,
62b39c0ea0a9909088d4270f,2023-06-16_11h01.37.697,phx_ver10,2022.2.5,Win32,60.06727535,,,,,space,0.4573,0,25,25,27,1,28,training,zh2x,e,zh2x_e,zh2x_7_exe.wav,,exe.jpg,,,,,,,,,,,,,,,,,,,,,,,,,,,,,,,,,
62b39c0ea0a9909088d4270f,2023-06-16_11h01.37.697,phx_ver10,2022.2.5,Win32,60.06727535,,,,,space,0.1203,0,26,26,36,1,37,training,zh2x,i,zh2x_i,zh2x_2_izhi.wav,,izhi.jpg,,,,,,,,,,,,,,,,,,,,,,,,,,,,,,,,,
62b39c0ea0a9909088d4270f,2023-06-16_11h01.37.697,phx_ver10,2022.2.5,Win32,60.06727535,,,,,space,0.3841,0,27,27,1,1,2,training,zh2x,a,zh2x_a,zh2x_2_azha.wav,,azha.jpg,,,,,,,,,,,,,,,,,,,,,,,,,,,,,,,,,
62b39c0ea0a9909088d4270f,2023-06-16_11h01.37.697,phx_ver10,2022.2.5,Win32,60.06727535,,,,,space,0.167,0,28,28,37,1,38,training,zh2x,i,zh2x_i,zh2x_3_izhi.wav,,izhi.jpg,,,,,,,,,,,,,,,,,,,,,,,,,,,,,,,,,
62b39c0ea0a9909088d4270f,2023-06-16_11h01.37.697,phx_ver10,2022.2.5,Win32,60.06727535,,,,,space,0.2676,0,29,29,22,1,23,training,zh2x,e,zh2x_e,zh2x_3_ezhe.wav,,ezhe.jpg,,,,,,,,,,,,,,,,,,,,,,,,,,,,,,,,,
62b39c0ea0a9909088d4270f,2023-06-16_11h01.37.697,phx_ver10,2022.2.5,Win32,60.06727535,,,,,,,,,,,,,attn_test,,,,zh2x_1_izhi.wav,zh2x_8_ixi.wav,izhi.jpg,LEFT,,j,3.1206,space,3.4377,0,0,0,0,1,,,,,,,,,,,,,,,,,,,,,,
62b39c0ea0a9909088d4270f,2023-06-16_11h01.37.697,phx_ver10,2022.2.5,Win32,60.06727535,,,,,space,0.4544,0,30,30,3,1,4,training,zh2x,a,zh2x_a,zh2x_2_azha.wav,,azha.jpg,,,,,,,,,,,,,,,,,,,,,,,,,,,,,,,,,
62b39c0ea0a9909088d4270f,2023-06-16_11h01.37.697,phx_ver10,2022.2.5,Win32,60.06727535,,,,,space,0.1177,0,31,31,24,1,25,training,zh2x,e,zh2x_e,zh2x_5_exe.wav,,exe.jpg,,,,,,,,,,,,,,,,,,,,,,,,,,,,,,,,,
62b39c0ea0a9909088d4270f,2023-06-16_11h01.37.697,phx_ver10,2022.2.5,Win32,60.06727535,,,,,space,0.0474,0,32,32,16,1,17,training,zh2x,e,zh2x_e,zh2x_1_ezhe.wav,,ezhe.jpg,,,,,,,,,,,,,,,,,,,,,,,,,,,,,,,,,
62b39c0ea0a9909088d4270f,2023-06-16_11h01.37.697,phx_ver10,2022.2.5,Win32,60.06727535,,,,,space,0.2508,0,33,33,30,1,31,training,zh2x,e,zh2x_e,zh2x_7_exe.wav,,exe.jpg,,,,,,,,,,,,,,,,,,,,,,,,,,,,,,,,,
62b39c0ea0a9909088d4270f,2023-06-16_11h01.37.697,phx_ver10,2022.2.5,Win32,60.06727535,,,,,space,0.0839,0,34,34,34,1,35,training,zh2x,i,zh2x_i,zh2x_2_izhi.wav,,izhi.jpg,,,,,,,,,,,,,,,,,,,,,,,,,,,,,,,,,
62b39c0ea0a9909088d4270f,2023-06-16_11h01.37.697,phx_ver10,2022.2.5,Win32,60.06727535,,,,,space,0.2349,0,35,35,12,1,13,training,zh2x,a,zh2x_a,zh2x_7_axa.wav,,axa.jpg,,,,,,,,,,,,,,,,,,,,,,,,,,,,,,,,,
62b39c0ea0a9909088d4270f,2023-06-16_11h01.37.697,phx_ver10,2022.2.5,Win32,60.06727535,,,,,,,,,,,,,attn_test,,,,zh2x_8_ixi.wav,zh2x_1_izhi.wav,izhi.jpg,RIGHT,,j,0.6863,space,0.9253,0,0,0,0,1,,,,,,,,,,,,,,,,,,,,,,
62b39c0ea0a9909088d4270f,2023-06-16_11h01.37.697,phx_ver10,2022.2.5,Win32,60.06727535,,,,,space,1.3348,0,36,36,23,1,24,training,zh2x,e,zh2x_e,zh2x_4_ezhe.wav,,ezhe.jpg,,,,,,,,,,,,,,,,,,,,,,,,,,,,,,,,,
62b39c0ea0a9909088d4270f,2023-06-16_11h01.37.697,phx_ver10,2022.2.5,Win32,60.06727535,,,,,space,0.0999,0,37,37,46,1,47,training,zh2x,i,zh2x_i,zh2x_7_ixi.wav,,ixi.jpg,,,,,,,,,,,,,,,,,,,,,,,,,,,,,,,,,
62b39c0ea0a9909088d4270f,2023-06-16_11h01.37.697,phx_ver10,2022.2.5,Win32,60.06727535,,,,,space,0.4149,0,38,38,26,1,27,training,zh2x,e,zh2x_e,zh2x_6_exe.wav,,exe.jpg,,,,,,,,,,,,,,,,,,,,,,,,,,,,,,,,,
62b39c0ea0a9909088d4270f,2023-06-16_11h01.37.697,phx_ver10,2022.2.5,Win32,60.06727535,,,,,space,0.1175,0,39,39,8,1,9,training,zh2x,a,zh2x_a,zh2x_5_axa.wav,,axa.jpg,,,,,,,,,,,,,,,,,,,,,,,,,,,,,,,,,
62b39c0ea0a9909088d4270f,2023-06-16_11h01.37.697,phx_ver10,2022.2.5,Win32,60.06727535,,,,,space,0.8371,0,40,40,21,1,22,training,zh2x,e,zh2x_e,zh2x_3_ezhe.wav,,ezhe.jpg,,,,,,,,,,,,,,,,,,,,,,,,,,,,,,,,,
62b39c0ea0a9909088d4270f,2023-06-16_11h01.37.697,phx_ver10,2022.2.5,Win32,60.06727535,,,,,space,0.1335,0,41,41,40,1,41,training,zh2x,i,zh2x_i,zh2x_5_ixi.wav,,ixi.jpg,,,,,,,,,,,,,,,,,,,,,,,,,,,,,,,,,
62b39c0ea0a9909088d4270f,2023-06-16_11h01.37.697,phx_ver10,2022.2.5,Win32,60.06727535,,,,,,,,,,,,,attn_test,,,,zh2x_8_axa.wav,zh2x_8_exe.wav,exe.jpg,RIGHT,,f,1.6522,space,2.2476,0,0,0,0,1,,,,,,,,,,,,,,,,,,,,,,
62b39c0ea0a9909088d4270f,2023-06-16_11h01.37.697,phx_ver10,2022.2.5,Win32,60.06727535,,,,,space,0.6536,0,42,42,35,1,36,training,zh2x,i,zh2x_i,zh2x_2_izhi.wav,,izhi.jpg,,,,,,,,,,,,,,,,,,,,,,,,,,,,,,,,,
62b39c0ea0a9909088d4270f,2023-06-16_11h01.37.697,phx_ver10,2022.2.5,Win32,60.06727535,,,,,space,0.5716,0,43,43,0,1,1,training,zh2x,a,zh2x_a,zh2x_1_azha.wav,,azha.jpg,,,,,,,,,,,,,,,,,,,,,,,,,,,,,,,,,
62b39c0ea0a9909088d4270f,2023-06-16_11h01.37.697,phx_ver10,2022.2.5,Win32,60.06727535,,,,,space,0.5172,0,44,44,29,1,30,training,zh2x,e,zh2x_e,zh2x_7_exe.wav,,exe.jpg,,,,,,,,,,,,,,,,,,,,,,,,,,,,,,,,,
62b39c0ea0a9909088d4270f,2023-06-16_11h01.37.697,phx_ver10,2022.2.5,Win32,60.06727535,,,,,space,0.451,0,45,45,4,1,5,training,zh2x,a,zh2x_a,zh2x_2_azha.wav,,azha.jpg,,,,,,,,,,,,,,,,,,,,,,,,,,,,,,,,,
62b39c0ea0a9909088d4270f,2023-06-16_11h01.37.697,phx_ver10,2022.2.5,Win32,60.06727535,,,,,space,0.3533,0,46,46,6,1,7,training,zh2x,a,zh2x_a,zh2x_3_azha.wav,,azha.jpg,,,,,,,,,,,,,,,,,,,,,,,,,,,,,,,,,
62b39c0ea0a9909088d4270f,2023-06-16_11h01.37.697,phx_ver10,2022.2.5,Win32,60.06727535,,,,,space,0.3552,0,47,47,13,1,14,training,zh2x,a,zh2x_a,zh2x_7_axa.wav,,axa.jpg,,,,,,,,,,,,,,,,,,,,,,,,,,,,,,,,,
62b39c0ea0a9909088d4270f,2023-06-16_11h01.37.697,phx_ver10,2022.2.5,Win32,60.06727535,,,,,,,,,,,,,attn_test,,,,zh2x_8_exe.wav,zh2x_1_azha.wav,exe.jpg,LEFT,,f,0.0681,space,0.6864,,,,,,,,,,,,,,,,,,,,,,,,,,,
62b39c0ea0a9909088d4270f,2023-06-16_11h01.37.697,phx_ver10,2022.2.5,Win32,60.06727535,,,,,,,,,,,,,,,,,,,,,,,,,,,,,,,space,0.6198,,,,,,,,,,,,,,,,,,,,
62b39c0ea0a9909088d4270f,2023-06-16_11h01.37.697,phx_ver10,2022.2.5,Win32,60.06727535,,,,,,,,,,,,,,,,,,,,,,,,,,,,,,,,,space,3.5141,,,,,,,,,,,,,,,,,,
62b39c0ea0a9909088d4270f,2023-06-16_11h01.37.697,phx_ver10,2022.2.5,Win32,60.06727535,,,,,,,,,,,,5,testing_pre,,,,ihi.wav,ifi.wav,,FALSE,,,,,,,,,,,,,,,f,1.5999,space,2.3487,0,0,0,4,1,,,,,,,,,
62b39c0ea0a9909088d4270f,2023-06-16_11h01.37.697,phx_ver10,2022.2.5,Win32,60.06727535,,,,,,,,,,,,2,testing_pre,,,,auhau.wav,aufau.wav,,FALSE,,,,,,,,,,,,,,,j,0.7673,space,1.131,0,1,1,1,1,,,,,,,,,
62b39c0ea0a9909088d4270f,2023-06-16_11h01.37.697,phx_ver10,2022.2.5,Win32,60.06727535,,,,,,,,,,,,1,testing_pre,,,,ifi.wav,ifi.wav,,TRUE,,,,,,,,,,,,,,,f,0.5183,space,0.8343,0,2,2,0,1,,,,,,,,,
62b39c0ea0a9909088d4270f,2023-06-16_11h01.37.697,phx_ver10,2022.2.5,Win32,60.06727535,,,,,,,,,,,,3,testing_pre,,,,afa.wav,aha.wav,,FALSE,,,,,,,,,,,,,,,j,0.5347,space,0.8177,0,3,3,2,1,,,,,,,,,
62b39c0ea0a9909088d4270f,2023-06-16_11h01.37.697,phx_ver10,2022.2.5,Win32,60.06727535,,,,,,,,,,,,4,testing_pre,,,,eihei.wav,eihei.wav,,TRUE,,,,,,,,,,,,,,,f,0.1751,space,0.5005,0,4,4,3,1,,,,,,,,,
62b39c0ea0a9909088d4270f,2023-06-16_11h01.37.697,phx_ver10,2022.2.5,Win32,60.06727535,,,,,,,,,,,,,,,,,,,,,,,,,,,,,,,,,,,,,,,,,,,,space,0.8192,,,,,,,
62b39c0ea0a9909088d4270f,2023-06-16_11h01.37.697,phx_ver10,2022.2.5,Win32,60.06727535,,,,,,,,,,,,56,testing_3,zh2j,ai,zh2j_ai,zh2j_8_aijai.wav,zh2j_1_aizhai.wav,,FALSE,FALSE,,,,,,,,,,,,,,f,0.2516,space,0.5978,,,,,,,,0,0,0,55,1,,
62b39c0ea0a9909088d4270f,2023-06-16_11h01.37.697,phx_ver10,2022.2.5,Win32,60.06727535,,,,,,,,,,,,72,testing_3,zh2j,i,zh2j_i,zh2j_8_iji.wav,zh2j_1_izhi.wav,,FALSE,FALSE,,,,,,,,,,,,,,f,0.1167,space,0.4334,,,,,,,,0,1,1,71,1,,
62b39c0ea0a9909088d4270f,2023-06-16_11h01.37.697,phx_ver10,2022.2.5,Win32,60.06727535,,,,,,,,,,,,23,testing_2,zh2x,ei,zh2x_ei,zh2x_1_eizhei.wav,zh2x_8_eixei.wav,,FALSE,FALSE,,,,,,,,,,,,,,j,0.0894,space,0.3203,,,,,,,,0,2,2,22,1,,
62b39c0ea0a9909088d4270f,2023-06-16_11h01.37.697,phx_ver10,2022.2.5,Win32,60.06727535,,,,,,,,,,,,113,testing_3,sh2x,ei,sh2x_ei,sh2x_1_eishei.wav,sh2x_1_eishei.wav,,TRUE,FALSE,,,,,,,,,,,,,,f,0.1866,space,0.4362,,,,,,,,0,3,3,112,1,,
62b39c0ea0a9909088d4270f,2023-06-16_11h01.37.697,phx_ver10,2022.2.5,Win32,60.06727535,,,,,,,,,,,,87,testing_3,j2x,e,j2x_e,j2x_1_eje.wav,j2x_8_exe.wav,,FALSE,FALSE,,,,,,,,,,,,,,j,0.1069,space,0.384,,,,,,,,0,4,4,86,1,,
62b39c0ea0a9909088d4270f,2023-06-16_11h01.37.697,phx_ver10,2022.2.5,Win32,60.06727535,,,,,,,,,,,,19,testing_2,zh2x,au,zh2x_au,zh2x_1_auzhau.wav,zh2x_8_auxau.wav,,FALSE,FALSE,,,,,,,,,,,,,,j,0.1515,space,0.4304,,,,,,,,0,5,5,18,1,,
62b39c0ea0a9909088d4270f,2023-06-16_11h01.37.697,phx_ver10,2022.2.5,Win32,60.06727535,,,,,,,,,,,,24,testing_2,zh2x,ei,zh2x_ei,zh2x_8_eixei.wav,zh2x_1_eizhei.wav,,FALSE,FALSE,,,,,,,,,,,,,,j,0.0507,space,0.301,,,,,,,,0,6,6,23,1,,
62b39c0ea0a9909088d4270f,2023-06-16_11h01.37.697,phx_ver10,2022.2.5,Win32,60.06727535,,,,,,,,,,,,68,testing_3,zh2j,ei,zh2j_ei,zh2j_8_eijei.wav,zh2j_1_eizhei.wav,,FALSE,FALSE,,,,,,,,,,,,,,f,0.0509,space,0.32,,,,,,,,0,7,7,67,1,,
62b39c0ea0a9909088d4270f,2023-06-16_11h01.37.697,phx_ver10,2022.2.5,Win32,60.06727535,,,,,,,,,,,,79,testing_3,j2x,ai,j2x_ai,j2x_1_aijai.wav,j2x_8_aixai.wav,,FALSE,FALSE,,,,,,,,,,,,,,j,0.0046,space,0.2527,,,,,,,,0,8,8,78,1,,
62b39c0ea0a9909088d4270f,2023-06-16_11h01.37.697,phx_ver10,2022.2.5,Win32,60.06727535,,,,,,,,,,,,59,testing_3,zh2j,au,zh2j_au,zh2j_1_auzhau.wav,zh2j_8_aujau.wav,,FALSE,FALSE,,,,,,,,,,,,,,f,0.1036,space,0.3556,,,,,,,,0,9,9,58,1,,
62b39c0ea0a9909088d4270f,2023-06-16_11h01.37.697,phx_ver10,2022.2.5,Win32,60.06727535,,,,,,,,,,,,107,testing_3,sh2x,au,sh2x_au,sh2x_1_aushau.wav,sh2x_8_auxau.wav,,FALSE,FALSE,,,,,,,,,,,,,,j,0.563,space,0.83,,,,,,,,0,10,10,106,1,,
62b39c0ea0a9909088d4270f,2023-06-16_11h01.37.697,phx_ver10,2022.2.5,Win32,60.06727535,,,,,,,,,,,,143,testing_3,sh2j,i,sh2j_i,sh2j_1_ishi.wav,sh2j_8_iji.wav,,FALSE,FALSE,,,,,,,,,,,,,,j,0.0006,space,0.2364,,,,,,,,0,11,11,142,1,,
62b39c0ea0a9909088d4270f,2023-06-16_11h01.37.697,phx_ver10,2022.2.5,Win32,60.06727535,,,,,,,,,,,,83,testing_3,j2x,au,j2x_au,j2x_1_aujau.wav,j2x_8_auxau.wav,,FALSE,FALSE,,,,,,,,,,,,,,j,0.7866,space,1.1343,,,,,,,,0,12,12,82,1,,
62b39c0ea0a9909088d4270f,2023-06-16_11h01.37.697,phx_ver10,2022.2.5,Win32,60.06727535,,,,,,,,,,,,142,testing_3,sh2j,i,sh2j_i,sh2j_8_iji.wav,sh2j_8_iji.wav,,TRUE,FALSE,,,,,,,,,,,,,,f,0.332,space,0.6011,,,,,,,,0,13,13,141,1,,
62b39c0ea0a9909088d4270f,2023-06-16_11h01.37.697,phx_ver10,2022.2.5,Win32,60.06727535,,,,,,,,,,,,80,testing_3,j2x,ai,j2x_ai,j2x_8_aixai.wav,j2x_1_aijai.wav,,FALSE,FALSE,,,,,,,,,,,,,,j,0.6362,space,0.9197,,,,,,,,0,14,14,79,1,,
62b39c0ea0a9909088d4270f,2023-06-16_11h01.37.697,phx_ver10,2022.2.5,Win32,60.06727535,,,,,,,,,,,,45,testing_3,zh2sh,i,zh2sh_i,zh2sh_1_izhi.wav,zh2sh_1_izhi.wav,,TRUE,FALSE,,,,,,,,,,,,,,f,0.1535,space,0.5344,,,,,,,,0,15,15,44,1,,
62b39c0ea0a9909088d4270f,2023-06-16_11h01.37.697,phx_ver10,2022.2.5,Win32,60.06727535,,,,,,,,,,,,126,testing_3,sh2j,ai,sh2j_ai,sh2j_8_aijai.wav,sh2j_8_aijai.wav,,TRUE,FALSE,,,,,,,,,,,,,,f,0.098,space,0.4138,,,,,,,,0,16,16,125,1,,
62b39c0ea0a9909088d4270f,2023-06-16_11h01.37.697,phx_ver10,2022.2.5,Win32,60.06727535,,,,,,,,,,,,52,testing_3,zh2j,a,zh2j_a,zh2j_8_aja.wav,zh2j_1_azha.wav,,FALSE,FALSE,,,,,,,,,,,,,,f,1.124,space,1.5552,,,,,,,,0,17,17,51,1,,
62b39c0ea0a9909088d4270f,2023-06-16_11h01.37.697,phx_ver10,2022.2.5,Win32,60.06727535,,,,,,,,,,,,95,testing_3,j2x,i,j2x_i,j2x_1_iji.wav,j2x_8_ixi.wav,,FALSE,FALSE,,,,,,,,,,,,,,j,0.5501,space,0.8974,,,,,,,,0,18,18,94,1,,
62b39c0ea0a9909088d4270f,2023-06-16_11h01.37.697,phx_ver10,2022.2.5,Win32,60.06727535,,,,,,,,,,,,66,testing_3,zh2j,ei,zh2j_ei,zh2j_8_eijei.wav,zh2j_8_eijei.wav,,TRUE,FALSE,,,,,,,,,,,,,,f,0.2549,space,0.5647,,,,,,,,0,19,19,65,1,,
62b39c0ea0a9909088d4270f,2023-06-16_11h01.37.697,phx_ver10,2022.2.5,Win32,60.06727535,,,,,,,,,,,,110,testing_3,sh2x,e,sh2x_e,sh2x_8_exe.wav,sh2x_8_exe.wav,,TRUE,FALSE,,,,,,,,,,,,,,f,0.1174,space,0.4345,,,,,,,,0,20,20,109,1,,
62b39c0ea0a9909088d4270f,2023-06-16_11h01.37.697,phx_ver10,2022.2.5,Win32,60.06727535,,,,,,,,,,,,104,testing_3,sh2x,ai,sh2x_ai,sh2x_8_aixai.wav,sh2x_1_aishai.wav,,FALSE,FALSE,,,,,,,,,,,,,,j,0.6982,space,1.1052,,,,,,,,0,21,21,103,1,,
62b39c0ea0a9909088d4270f,2023-06-16_11h01.37.697,phx_ver10,2022.2.5,Win32,60.06727535,,,,,,,,,,,,7,testing_1,zh2x,e,zh2x_e,zh2x_1_ezhe.wav,zh2x_8_exe.wav,,FALSE,TRUE,,,,,,,,,,,,,,j,0.3706,space,0.6546,,,,,,,,0,22,22,6,1,,
62b39c0ea0a9909088d4270f,2023-06-16_11h01.37.697,phx_ver10,2022.2.5,Win32,60.06727535,,,,,,,,,,,,10,testing_1,zh2x,i,zh2x_i,zh2x_8_ixi.wav,zh2x_8_ixi_copy.wav,,TRUE,TRUE,,,,,,,,,,,,,,f,0.0672,space,0.4011,,,,,,,,0,23,23,9,1,,
62b39c0ea0a9909088d4270f,2023-06-16_11h01.37.697,phx_ver10,2022.2.5,Win32,60.06727535,,,,,,,,,,,,1,testing_1,zh2x,a,zh2x_a,zh2x_1_azha.wav,zh2x_1_azha_copy.wav,,TRUE,TRUE,,,,,,,,,,,,,,f,0.1341,space,0.5221,,,,,,,,0,24,24,0,1,,
62b39c0ea0a9909088d4270f,2023-06-16_11h01.37.697,phx_ver10,2022.2.5,Win32,60.06727535,,,,,,,,,,,,9,testing_1,zh2x,i,zh2x_i,zh2x_1_izhi.wav,zh2x_1_izhi_copy.wav,,TRUE,TRUE,,,,,,,,,,,,,,f,0.1811,space,0.5144,,,,,,,,0,25,25,8,1,,
62b39c0ea0a9909088d4270f,2023-06-16_11h01.37.697,phx_ver10,2022.2.5,Win32,60.06727535,,,,,,,,,,,,32,testing_3,zh2sh,ai,zh2sh_ai,zh2sh_8_aishai.wav,zh2sh_1_aizhai.wav,,FALSE,FALSE,,,,,,,,,,,,,,j,0.7418,space,1.0701,,,,,,,,0,26,26,31,1,,
62b39c0ea0a9909088d4270f,2023-06-16_11h01.37.697,phx_ver10,2022.2.5,Win32,60.06727535,,,,,,,,,,,,133,testing_3,sh2j,e,sh2j_e,sh2j_1_eshe.wav,sh2j_1_eshe.wav,,TRUE,FALSE,,,,,,,,,,,,,,f,0.5388,space,0.815,,,,,,,,0,27,27,132,1,,
62b39c0ea0a9909088d4270f,2023-06-16_11h01.37.697,phx_ver10,2022.2.5,Win32,60.06727535,,,,,,,,,,,,53,testing_3,zh2j,ai,zh2j_ai,zh2j_1_aizhai.wav,zh2j_1_aizhai.wav,,TRUE,FALSE,,,,,,,,,,,,,,f,0.0316,space,0.3532,,,,,,,,0,28,28,52,1,,
62b39c0ea0a9909088d4270f,2023-06-16_11h01.37.697,phx_ver10,2022.2.5,Win32,60.06727535,,,,,,,,,,,,78,testing_3,j2x,ai,j2x_ai,j2x_8_aixai.wav,j2x_8_aixai.wav,,TRUE,FALSE,,,,,,,,,,,,,,f,0.0643,space,0.384,,,,,,,,0,29,29,77,1,,
62b39c0ea0a9909088d4270f,2023-06-16_11h01.37.697,phx_ver10,2022.2.5,Win32,60.06727535,,,,,,,,,,,,50,testing_3,zh2j,a,zh2j_a,zh2j_8_aja.wav,zh2j_8_aja.wav,,TRUE,FALSE,,,,,,,,,,,,,,f,0.0884,space,0.3836,,,,,,,,0,30,30,49,1,,
62b39c0ea0a9909088d4270f,2023-06-16_11h01.37.697,phx_ver10,2022.2.5,Win32,60.06727535,,,,,,,,,,,,93,testing_3,j2x,i,j2x_i,j2x_1_iji.wav,j2x_1_iji.wav,,TRUE,FALSE,,,,,,,,,,,,,,f,0.6207,space,0.9652,,,,,,,,0,31,31,92,1,,
62b39c0ea0a9909088d4270f,2023-06-16_11h01.37.697,phx_ver10,2022.2.5,Win32,60.06727535,,,,,,,,,,,,57,testing_3,zh2j,au,zh2j_au,zh2j_1_auzhau.wav,zh2j_1_auzhau.wav,,TRUE,FALSE,,,,,,,,,,,,,,f,0.3871,space,0.731,,,,,,,,0,32,32,56,1,,
62b39c0ea0a9909088d4270f,2023-06-16_11h01.37.697,phx_ver10,2022.2.5,Win32,60.06727535,,,,,,,,,,,,15,testing_2,zh2x,ai,zh2x_ai,zh2x_1_aizhai.wav,zh2x_8_aixai.wav,,FALSE,FALSE,,,,,,,,,,,,,,j,0.243,space,0.5694,,,,,,,,0,33,33,14,1,,
62b39c0ea0a9909088d4270f,2023-06-16_11h01.37.697,phx_ver10,2022.2.5,Win32,60.06727535,,,,,,,,,,,,135,testing_3,sh2j,e,sh2j_e,sh2j_1_eshe.wav,sh2j_8_eje.wav,,FALSE,FALSE,,,,,,,,,,,,,,j,0.7485,space,1.0488,,,,,,,,0,34,34,134,1,,
62b39c0ea0a9909088d4270f,2023-06-16_11h01.37.697,phx_ver10,2022.2.5,Win32,60.06727535,,,,,,,,,,,,58,testing_3,zh2j,au,zh2j_au,zh2j_8_aujau.wav,zh2j_8_aujau.wav,,TRUE,FALSE,,,,,,,,,,,,,,f,0.1702,space,0.498,,,,,,,,0,35,35,57,1,,
62b39c0ea0a9909088d4270f,2023-06-16_11h01.37.697,phx_ver10,2022.2.5,Win32,60.06727535,,,,,,,,,,,,26,testing_3,zh2sh,a,zh2sh_a,zh2sh_8_asha.wav,zh2sh_8_asha.wav,,TRUE,FALSE,,,,,,,,,,,,,,f,1.4679,space,1.6565,,,,,,,,0,36,36,25,1,,
62b39c0ea0a9909088d4270f,2023-06-16_11h01.37.697,phx_ver10,2022.2.5,Win32,60.06727535,,,,,,,,,,,,73,testing_3,j2x,a,j2x_a,j2x_1_aja.wav,j2x_1_aja.wav,,TRUE,FALSE,,,,,,,,,,,,,,f,0.3575,space,0.668,,,,,,,,0,37,37,72,1,,
62b39c0ea0a9909088d4270f,2023-06-16_11h01.37.697,phx_ver10,2022.2.5,Win32,60.06727535,,,,,,,,,,,,35,testing_3,zh2sh,au,zh2sh_au,zh2sh_1_auzhau.wav,zh2sh_8_aushau.wav,,FALSE,FALSE,,,,,,,,,,,,,,j,0.5238,space,0.8205,,,,,,,,0,38,38,34,1,,
62b39c0ea0a9909088d4270f,2023-06-16_11h01.37.697,phx_ver10,2022.2.5,Win32,60.06727535,,,,,,,,,,,,17,testing_2,zh2x,au,zh2x_au,zh2x_1_auzhau.wav,zh2x_1_auzhau.wav,,TRUE,FALSE,,,,,,,,,,,,,,f,0.0336,space,0.3499,,,,,,,,0,39,39,16,1,,
62b39c0ea0a9909088d4270f,2023-06-16_11h01.37.697,phx_ver10,2022.2.5,Win32,60.06727535,,,,,,,,,,,,96,testing_3,j2x,i,j2x_i,j2x_8_ixi.wav,j2x_1_iji.wav,,FALSE,FALSE,,,,,,,,,,,,,,j,0.1867,space,0.484,,,,,,,,0,40,40,95,1,,
62b39c0ea0a9909088d4270f,2023-06-16_11h01.37.697,phx_ver10,2022.2.5,Win32,60.06727535,,,,,,,,,,,,3,testing_1,zh2x,a,zh2x_a,zh2x_1_azha.wav,zh2x_8_axa.wav,,FALSE,TRUE,,,,,,,,,,,,,,j,0.2172,space,0.4706,,,,,,,,0,41,41,2,1,,
62b39c0ea0a9909088d4270f,2023-06-16_11h01.37.697,phx_ver10,2022.2.5,Win32,60.06727535,,,,,,,,,,,,70,testing_3,zh2j,i,zh2j_i,zh2j_8_iji.wav,zh2j_8_iji.wav,,TRUE,FALSE,,,,,,,,,,,,,,f,0.1688,space,0.4571,,,,,,,,0,42,42,69,1,,
62b39c0ea0a9909088d4270f,2023-06-16_11h01.37.697,phx_ver10,2022.2.5,Win32,60.06727535,,,,,,,,,,,,25,testing_3,zh2sh,a,zh2sh_a,zh2sh_1_azha.wav,zh2sh_1_azha.wav,,TRUE,FALSE,,,,,,,,,,,,,,f,0.334,space,0.5592,,,,,,,,0,43,43,24,1,,
62b39c0ea0a9909088d4270f,2023-06-16_11h01.37.697,phx_ver10,2022.2.5,Win32,60.06727535,,,,,,,,,,,,103,testing_3,sh2x,ai,sh2x_ai,sh2x_1_aishai.wav,sh2x_8_aixai.wav,,FALSE,FALSE,,,,,,,,,,,,,,j,0.3338,space,0.5494,,,,,,,,0,44,44,102,1,,
62b39c0ea0a9909088d4270f,2023-06-16_11h01.37.697,phx_ver10,2022.2.5,Win32,60.06727535,,,,,,,,,,,,120,testing_3,sh2x,i,sh2x_i,sh2x_8_ixi.wav,sh2x_1_ishi.wav,,FALSE,FALSE,,,,,,,,,,,,,,j,0.2185,space,0.4738,,,,,,,,0,45,45,119,1,,
62b39c0ea0a9909088d4270f,2023-06-16_11h01.37.697,phx_ver10,2022.2.5,Win32,60.06727535,,,,,,,,,,,,28,testing_3,zh2sh,a,zh2sh_a,zh2sh_8_asha.wav,zh2sh_1_azha.wav,,FALSE,FALSE,,,,,,,,,,,,,,j,1.0003,space,1.2506,,,,,,,,0,46,46,27,1,,
62b39c0ea0a9909088d4270f,2023-06-16_11h01.37.697,phx_ver10,2022.2.5,Win32,60.06727535,,,,,,,,,,,,106,testing_3,sh2x,au,sh2x_au,sh2x_8_auxau.wav,sh2x_8_auxau.wav,,TRUE,FALSE,,,,,,,,,,,,,,f,0.52,space,0.8382,,,,,,,,0,47,47,105,1,,
62b39c0ea0a9909088d4270f,2023-06-16_11h01.37.697,phx_ver10,2022.2.5,Win32,60.06727535,,,,,,,,,,,,40,testing_3,zh2sh,e,zh2sh_e,zh2sh_8_eshe.wav,zh2sh_1_ezhe.wav,,FALSE,FALSE,,,,,,,,,,,,,,j,0.1201,space,0.4342,,,,,,,,0,48,48,39,1,,
62b39c0ea0a9909088d4270f,2023-06-16_11h01.37.697,phx_ver10,2022.2.5,Win32,60.06727535,,,,,,,,,,,,12,testing_1,zh2x,i,zh2x_i,zh2x_8_ixi.wav,zh2x_1_izhi.wav,,FALSE,TRUE,,,,,,,,,,,,,,j,0.0339,space,0.3201,,,,,,,,0,49,49,11,1,,
62b39c0ea0a9909088d4270f,2023-06-16_11h01.37.697,phx_ver10,2022.2.5,Win32,60.06727535,,,,,,,,,,,,118,testing_3,sh2x,i,sh2x_i,sh2x_8_ixi.wav,sh2x_8_ixi.wav,,TRUE,FALSE,,,,,,,,,,,,,,f,0.2971,space,0.5977,,,,,,,,0,50,50,117,1,,
62b39c0ea0a9909088d4270f,2023-06-16_11h01.37.697,phx_ver10,2022.2.5,Win32,60.06727535,,,,,,,,,,,,129,testing_3,sh2j,au,sh2j_au,sh2j_1_aushau.wav,sh2j_1_aushau.wav,,TRUE,FALSE,,,,,,,,,,,,,,f,0.0477,space,0.3537,,,,,,,,0,51,51,128,1,,
62b39c0ea0a9909088d4270f,2023-06-16_11h01.37.697,phx_ver10,2022.2.5,Win32,60.06727535,,,,,,,,,,,,29,testing_3,zh2sh,ai,zh2sh_ai,zh2sh_1_aizhai.wav,zh2sh_1_aizhai.wav,,TRUE,FALSE,,,,,,,,,,,,,,f,0.1712,space,0.4814,,,,,,,,0,52,52,28,1,,
62b39c0ea0a9909088d4270f,2023-06-16_11h01.37.697,phx_ver10,2022.2.5,Win32,60.06727535,,,,,,,,,,,,130,testing_3,sh2j,au,sh2j_au,sh2j_8_aujau.wav,sh2j_8_aujau.wav,,TRUE,FALSE,,,,,,,,,,,,,,f,0.4364,space,0.7731,,,,,,,,0,53,53,129,1,,
62b39c0ea0a9909088d4270f,2023-06-16_11h01.37.697,phx_ver10,2022.2.5,Win32,60.06727535,,,,,,,,,,,,18,testing_2,zh2x,au,zh2x_au,zh2x_8_auxau.wav,zh2x_8_auxau.wav,,TRUE,FALSE,,,,,,,,,,,,,,f,0.3181,space,0.9022,,,,,,,,0,54,54,17,1,,
62b39c0ea0a9909088d4270f,2023-06-16_11h01.37.697,phx_ver10,2022.2.5,Win32,60.06727535,,,,,,,,,,,,141,testing_3,sh2j,i,sh2j_i,sh2j_1_ishi.wav,sh2j_1_ishi.wav,,TRUE,FALSE,,,,,,,,,,,,,,f,0.4703,space,0.7765,,,,,,,,0,55,55,140,1,,
62b39c0ea0a9909088d4270f,2023-06-16_11h01.37.697,phx_ver10,2022.2.5,Win32,60.06727535,,,,,,,,,,,,43,testing_3,zh2sh,ei,zh2sh_ei,zh2sh_1_eizhei.wav,zh2sh_8_eishei.wav,,FALSE,FALSE,,,,,,,,,,,,,,j,0.017,space,0.3876,,,,,,,,0,56,56,42,1,,
62b39c0ea0a9909088d4270f,2023-06-16_11h01.37.697,phx_ver10,2022.2.5,Win32,60.06727535,,,,,,,,,,,,108,testing_3,sh2x,au,sh2x_au,sh2x_8_auxau.wav,sh2x_1_aushau.wav,,FALSE,FALSE,,,,,,,,,,,,,,j,0.6168,space,0.8669,,,,,,,,0,57,57,107,1,,
62b39c0ea0a9909088d4270f,2023-06-16_11h01.37.697,phx_ver10,2022.2.5,Win32,60.06727535,,,,,,,,,,,,39,testing_3,zh2sh,e,zh2sh_e,zh2sh_1_ezhe.wav,zh2sh_8_eshe.wav,,FALSE,FALSE,,,,,,,,,,,,,,j,0.1527,space,0.4341,,,,,,,,0,58,58,38,1,,
62b39c0ea0a9909088d4270f,2023-06-16_11h01.37.697,phx_ver10,2022.2.5,Win32,60.06727535,,,,,,,,,,,,99,testing_3,sh2x,a,sh2x_a,sh2x_1_asha.wav,sh2x_8_axa.wav,,FALSE,FALSE,,,,,,,,,,,,,,j,0.0856,space,0.4067,,,,,,,,0,59,59,98,1,,
62b39c0ea0a9909088d4270f,2023-06-16_11h01.37.697,phx_ver10,2022.2.5,Win32,60.06727535,,,,,,,,,,,,33,testing_3,zh2sh,au,zh2sh_au,zh2sh_1_auzhau.wav,zh2sh_1_auzhau.wav,,TRUE,FALSE,,,,,,,,,,,,,,f,0.0176,space,0.3508,,,,,,,,0,60,60,32,1,,
62b39c0ea0a9909088d4270f,2023-06-16_11h01.37.697,phx_ver10,2022.2.5,Win32,60.06727535,,,,,,,,,,,,112,testing_3,sh2x,e,sh2x_e,sh2x_8_exe.wav,sh2x_1_eshe.wav,,FALSE,FALSE,,,,,,,,,,,,,,j,0.0004,space,0.3051,,,,,,,,0,61,61,111,1,,
62b39c0ea0a9909088d4270f,2023-06-16_11h01.37.697,phx_ver10,2022.2.5,Win32,60.06727535,,,,,,,,,,,,91,testing_3,j2x,ei,j2x_ei,j2x_1_eijei.wav,j2x_8_eixei.wav,,FALSE,FALSE,,,,,,,,,,,,,,j,0.2005,space,0.4673,,,,,,,,0,62,62,90,1,,
62b39c0ea0a9909088d4270f,2023-06-16_11h01.37.697,phx_ver10,2022.2.5,Win32,60.06727535,,,,,,,,,,,,65,testing_3,zh2j,ei,zh2j_ei,zh2j_1_eizhei.wav,zh2j_1_eizhei.wav,,TRUE,FALSE,,,,,,,,,,,,,,f,0.2074,space,0.5237,,,,,,,,0,63,63,64,1,,
62b39c0ea0a9909088d4270f,2023-06-16_11h01.37.697,phx_ver10,2022.2.5,Win32,60.06727535,,,,,,,,,,,,101,testing_3,sh2x,ai,sh2x_ai,sh2x_1_aishai.wav,sh2x_1_aishai.wav,,TRUE,FALSE,,,,,,,,,,,,,,f,0.2848,space,0.835,,,,,,,,0,64,64,100,1,,
62b39c0ea0a9909088d4270f,2023-06-16_11h01.37.697,phx_ver10,2022.2.5,Win32,60.06727535,,,,,,,,,,,,85,testing_3,j2x,e,j2x_e,j2x_1_eje.wav,j2x_1_eje.wav,,TRUE,FALSE,,,,,,,,,,,,,,f,0.0722,space,0.6506,,,,,,,,0,65,65,84,1,,
62b39c0ea0a9909088d4270f,2023-06-16_11h01.37.697,phx_ver10,2022.2.5,Win32,60.06727535,,,,,,,,,,,,74,testing_3,j2x,a,j2x_a,j2x_8_axa.wav,j2x_8_axa.wav,,TRUE,FALSE,,,,,,,,,,,,,,f,0.0667,space,0.4166,,,,,,,,0,66,66,73,1,,
62b39c0ea0a9909088d4270f,2023-06-16_11h01.37.697,phx_ver10,2022.2.5,Win32,60.06727535,,,,,,,,,,,,47,testing_3,zh2sh,i,zh2sh_i,zh2sh_1_izhi.wav,zh2sh_8_ishi.wav,,FALSE,FALSE,,,,,,,,,,,,,,j,0.1485,space,0.4209,,,,,,,,0,67,67,46,1,,
62b39c0ea0a9909088d4270f,2023-06-16_11h01.37.697,phx_ver10,2022.2.5,Win32,60.06727535,,,,,,,,,,,,92,testing_3,j2x,ei,j2x_ei,j2x_8_eixei.wav,j2x_1_eijei.wav,,FALSE,FALSE,,,,,,,,,,,,,,j,0.64,space,0.8658,,,,,,,,0,68,68,91,1,,
62b39c0ea0a9909088d4270f,2023-06-16_11h01.37.697,phx_ver10,2022.2.5,Win32,60.06727535,,,,,,,,,,,,100,testing_3,sh2x,a,sh2x_a,sh2x_8_axa.wav,sh2x_1_asha.wav,,FALSE,FALSE,,,,,,,,,,,,,,j,0.7006,space,0.9364,,,,,,,,0,69,69,99,1,,
62b39c0ea0a9909088d4270f,2023-06-16_11h01.37.697,phx_ver10,2022.2.5,Win32,60.06727535,,,,,,,,,,,,82,testing_3,j2x,au,j2x_au,j2x_8_auxau.wav,j2x_8_auxau.wav,,TRUE,FALSE,,,,,,,,,,,,,,f,0.0837,space,0.4174,,,,,,,,0,70,70,81,1,,
62b39c0ea0a9909088d4270f,2023-06-16_11h01.37.697,phx_ver10,2022.2.5,Win32,60.06727535,,,,,,,,,,,,71,testing_3,zh2j,i,zh2j_i,zh2j_1_izhi.wav,zh2j_8_iji.wav,,FALSE,FALSE,,,,,,,,,,,,,,f,0.1167,space,0.423,,,,,,,,0,71,71,70,1,,
62b39c0ea0a9909088d4270f,2023-06-16_11h01.37.697,phx_ver10,2022.2.5,Win32,60.06727535,,,,,,,,,,,,64,testing_3,zh2j,e,zh2j_e,zh2j_8_eje.wav,zh2j_1_ezhe.wav,,FALSE,FALSE,,,,,,,,,,,,,,f,0.6012,space,0.884,,,,,,,,0,72,72,63,1,,
62b39c0ea0a9909088d4270f,2023-06-16_11h01.37.697,phx_ver10,2022.2.5,Win32,60.06727535,,,,,,,,,,,,31,testing_3,zh2sh,ai,zh2sh_ai,zh2sh_1_aizhai.wav,zh2sh_8_aishai.wav,,FALSE,FALSE,,,,,,,,,,,,,,j,0.7183,space,0.9669,,,,,,,,0,73,73,30,1,,
62b39c0ea0a9909088d4270f,2023-06-16_11h01.37.697,phx_ver10,2022.2.5,Win32,60.06727535,,,,,,,,,,,,69,testing_3,zh2j,i,zh2j_i,zh2j_1_izhi.wav,zh2j_1_izhi.wav,,TRUE,FALSE,,,,,,,,,,,,,,f,0.1394,space,0.4725,,,,,,,,0,74,74,68,1,,
62b39c0ea0a9909088d4270f,2023-06-16_11h01.37.697,phx_ver10,2022.2.5,Win32,60.06727535,,,,,,,,,,,,41,testing_3,zh2sh,ei,zh2sh_ei,zh2sh_1_eizhei.wav,zh2sh_1_eizhei.wav,,TRUE,FALSE,,,,,,,,,,,,,,f,0.3563,space,0.6522,,,,,,,,0,75,75,40,1,,
62b39c0ea0a9909088d4270f,2023-06-16_11h01.37.697,phx_ver10,2022.2.5,Win32,60.06727535,,,,,,,,,,,,5,testing_1,zh2x,e,zh2x_e,zh2x_1_ezhe.wav,zh2x_1_ezhe_copy.wav,,TRUE,TRUE,,,,,,,,,,,,,,f,0.4842,space,0.832,,,,,,,,0,76,76,4,1,,
62b39c0ea0a9909088d4270f,2023-06-16_11h01.37.697,phx_ver10,2022.2.5,Win32,60.06727535,,,,,,,,,,,,81,testing_3,j2x,au,j2x_au,j2x_1_aujau.wav,j2x_1_aujau.wav,,TRUE,FALSE,,,,,,,,,,,,,,f,0.5019,space,0.8493,,,,,,,,0,77,77,80,1,,
62b39c0ea0a9909088d4270f,2023-06-16_11h01.37.697,phx_ver10,2022.2.5,Win32,60.06727535,,,,,,,,,,,,109,testing_3,sh2x,e,sh2x_e,sh2x_1_eshe.wav,sh2x_1_eshe.wav,,TRUE,FALSE,,,,,,,,,,,,,,f,0.4387,space,0.7503,,,,,,,,0,78,78,108,1,,
62b39c0ea0a9909088d4270f,2023-06-16_11h01.37.697,phx_ver10,2022.2.5,Win32,60.06727535,,,,,,,,,,,,127,testing_3,sh2j,ai,sh2j_ai,sh2j_1_aishai.wav,sh2j_8_aijai.wav,,FALSE,FALSE,,,,,,,,,,,,,,j,0.6174,space,0.9153,,,,,,,,0,79,79,126,1,,
62b39c0ea0a9909088d4270f,2023-06-16_11h01.37.697,phx_ver10,2022.2.5,Win32,60.06727535,,,,,,,,,,,,124,testing_3,sh2j,a,sh2j_a,sh2j_8_aja.wav,sh2j_1_asha.wav,,FALSE,FALSE,,,,,,,,,,,,,,j,0.3373,space,0.603,,,,,,,,0,80,80,123,1,,
62b39c0ea0a9909088d4270f,2023-06-16_11h01.37.697,phx_ver10,2022.2.5,Win32,60.06727535,,,,,,,,,,,,13,testing_2,zh2x,ai,zh2x_ai,zh2x_1_aizhai.wav,zh2x_1_aizhai.wav,,TRUE,FALSE,,,,,,,,,,,,,,f,0.1893,space,0.5335,,,,,,,,0,81,81,12,1,,
62b39c0ea0a9909088d4270f,2023-06-16_11h01.37.697,phx_ver10,2022.2.5,Win32,60.06727535,,,,,,,,,,,,61,testing_3,zh2j,e,zh2j_e,zh2j_1_ezhe.wav,zh2j_1_ezhe.wav,,TRUE,FALSE,,,,,,,,,,,,,,f,0.0898,space,0.4653,,,,,,,,0,82,82,60,1,,
62b39c0ea0a9909088d4270f,2023-06-16_11h01.37.697,phx_ver10,2022.2.5,Win32,60.06727535,,,,,,,,,,,,138,testing_3,sh2j,ei,sh2j_ei,sh2j_8_eijei.wav,sh2j_8_eijei.wav,,TRUE,FALSE,,,,,,,,,,,,,,f,0.1998,space,0.5339,,,,,,,,0,83,83,137,1,,
62b39c0ea0a9909088d4270f,2023-06-16_11h01.37.697,phx_ver10,2022.2.5,Win32,60.06727535,,,,,,,,,,,,67,testing_3,zh2j,ei,zh2j_ei,zh2j_1_eizhei.wav,zh2j_8_eijei.wav,,FALSE,FALSE,,,,,,,,,,,,,,f,0.0148,space,0.3723,,,,,,,,0,84,84,66,1,,
62b39c0ea0a9909088d4270f,2023-06-16_11h01.37.697,phx_ver10,2022.2.5,Win32,60.06727535,,,,,,,,,,,,102,testing_3,sh2x,ai,sh2x_ai,sh2x_8_aixai.wav,sh2x_8_aixai.wav,,TRUE,FALSE,,,,,,,,,,,,,,f,0.0511,space,0.3842,,,,,,,,0,85,85,101,1,,
62b39c0ea0a9909088d4270f,2023-06-16_11h01.37.697,phx_ver10,2022.2.5,Win32,60.06727535,,,,,,,,,,,,11,testing_1,zh2x,i,zh2x_i,zh2x_1_izhi.wav,zh2x_8_ixi.wav,,FALSE,TRUE,,,,,,,,,,,,,,j,0.5673,space,0.8023,,,,,,,,0,86,86,10,1,,
62b39c0ea0a9909088d4270f,2023-06-16_11h01.37.697,phx_ver10,2022.2.5,Win32,60.06727535,,,,,,,,,,,,44,testing_3,zh2sh,ei,zh2sh_ei,zh2sh_8_eishei.wav,zh2sh_1_eizhei.wav,,FALSE,FALSE,,,,,,,,,,,,,,j,0.4205,space,0.6166,,,,,,,,0,87,87,43,1,,
62b39c0ea0a9909088d4270f,2023-06-16_11h01.37.697,phx_ver10,2022.2.5,Win32,60.06727535,,,,,,,,,,,,105,testing_3,sh2x,au,sh2x_au,sh2x_1_aushau.wav,sh2x_1_aushau.wav,,TRUE,FALSE,,,,,,,,,,,,,,f,0.5351,space,0.79,,,,,,,,0,88,88,104,1,,
62b39c0ea0a9909088d4270f,2023-06-16_11h01.37.697,phx_ver10,2022.2.5,Win32,60.06727535,,,,,,,,,,,,60,testing_3,zh2j,au,zh2j_au,zh2j_8_aujau.wav,zh2j_1_auzhau.wav,,FALSE,FALSE,,,,,,,,,,,,,,f,0.3678,space,0.5843,,,,,,,,0,89,89,59,1,,
62b39c0ea0a9909088d4270f,2023-06-16_11h01.37.697,phx_ver10,2022.2.5,Win32,60.06727535,,,,,,,,,,,,117,testing_3,sh2x,i,sh2x_i,sh2x_1_ishi.wav,sh2x_1_ishi.wav,,TRUE,FALSE,,,,,,,,,,,,,,f,0.1943,space,0.4938,,,,,,,,0,90,90,116,1,,
62b39c0ea0a9909088d4270f,2023-06-16_11h01.37.697,phx_ver10,2022.2.5,Win32,60.06727535,,,,,,,,,,,,121,testing_3,sh2j,a,sh2j_a,sh2j_1_asha.wav,sh2j_1_asha.wav,,TRUE,FALSE,,,,,,,,,,,,,,f,0.0671,space,0.3502,,,,,,,,0,91,91,120,1,,
62b39c0ea0a9909088d4270f,2023-06-16_11h01.37.697,phx_ver10,2022.2.5,Win32,60.06727535,,,,,,,,,,,,88,testing_3,j2x,e,j2x_e,j2x_8_exe.wav,j2x_1_eje.wav,,FALSE,FALSE,,,,,,,,,,,,,,j,0.0508,space,0.3006,,,,,,,,0,92,92,87,1,,
62b39c0ea0a9909088d4270f,2023-06-16_11h01.37.697,phx_ver10,2022.2.5,Win32,60.06727535,,,,,,,,,,,,6,testing_1,zh2x,e,zh2x_e,zh2x_8_exe.wav,zh2x_8_exe_copy.wav,,TRUE,TRUE,,,,,,,,,,,,,,f,0.7339,space,0.9502,,,,,,,,0,93,93,5,1,,
62b39c0ea0a9909088d4270f,2023-06-16_11h01.37.697,phx_ver10,2022.2.5,Win32,60.06727535,,,,,,,,,,,,49,testing_3,zh2j,a,zh2j_a,zh2j_1_azha.wav,zh2j_1_azha.wav,,TRUE,FALSE,,,,,,,,,,,,,,f,0.0674,space,0.3808,,,,,,,,0,94,94,48,1,,
62b39c0ea0a9909088d4270f,2023-06-16_11h01.37.697,phx_ver10,2022.2.5,Win32,60.06727535,,,,,,,,,,,,77,testing_3,j2x,ai,j2x_ai,j2x_1_aijai.wav,j2x_1_aijai.wav,,TRUE,FALSE,,,,,,,,,,,,,,f,0.1063,space,0.4676,,,,,,,,0,95,95,76,1,,
62b39c0ea0a9909088d4270f,2023-06-16_11h01.37.697,phx_ver10,2022.2.5,Win32,60.06727535,,,,,,,,,,,,37,testing_3,zh2sh,e,zh2sh_e,zh2sh_1_ezhe.wav,zh2sh_1_ezhe.wav,,TRUE,FALSE,,,,,,,,,,,,,,f,0.1748,space,0.4834,,,,,,,,0,96,96,36,1,,
62b39c0ea0a9909088d4270f,2023-06-16_11h01.37.697,phx_ver10,2022.2.5,Win32,60.06727535,,,,,,,,,,,,27,testing_3,zh2sh,a,zh2sh_a,zh2sh_1_azha.wav,zh2sh_8_asha.wav,,FALSE,FALSE,,,,,,,,,,,,,,j,0.1196,space,0.4192,,,,,,,,0,97,97,26,1,,
62b39c0ea0a9909088d4270f,2023-06-16_11h01.37.697,phx_ver10,2022.2.5,Win32,60.06727535,,,,,,,,,,,,42,testing_3,zh2sh,ei,zh2sh_ei,zh2sh_8_eishei.wav,zh2sh_8_eishei.wav,,TRUE,FALSE,,,,,,,,,,,,,,f,0.0669,space,0.4171,,,,,,,,0,98,98,41,1,,
62b39c0ea0a9909088d4270f,2023-06-16_11h01.37.697,phx_ver10,2022.2.5,Win32,60.06727535,,,,,,,,,,,,97,testing_3,sh2x,a,sh2x_a,sh2x_1_asha.wav,sh2x_1_asha.wav,,TRUE,FALSE,,,,,,,,,,,,,,f,0.0055,space,0.3324,,,,,,,,0,99,99,96,1,,
62b39c0ea0a9909088d4270f,2023-06-16_11h01.37.697,phx_ver10,2022.2.5,Win32,60.06727535,,,,,,,,,,,,114,testing_3,sh2x,ei,sh2x_ei,sh2x_8_eixei.wav,sh2x_8_eixei.wav,,TRUE,FALSE,,,,,,,,,,,,,,f,0.0573,space,0.3887,,,,,,,,0,100,100,113,1,,
62b39c0ea0a9909088d4270f,2023-06-16_11h01.37.697,phx_ver10,2022.2.5,Win32,60.06727535,,,,,,,,,,,,8,testing_1,zh2x,e,zh2x_e,zh2x_8_exe.wav,zh2x_1_ezhe.wav,,FALSE,TRUE,,,,,,,,,,,,,,j,0.0006,space,0.2685,,,,,,,,0,101,101,7,1,,
62b39c0ea0a9909088d4270f,2023-06-16_11h01.37.697,phx_ver10,2022.2.5,Win32,60.06727535,,,,,,,,,,,,144,testing_3,sh2j,i,sh2j_i,sh2j_8_iji.wav,sh2j_1_ishi.wav,,FALSE,FALSE,,,,,,,,,,,,,,j,0.1245,space,0.3798,,,,,,,,0,102,102,143,1,,
62b39c0ea0a9909088d4270f,2023-06-16_11h01.37.697,phx_ver10,2022.2.5,Win32,60.06727535,,,,,,,,,,,,140,testing_3,sh2j,ei,sh2j_ei,sh2j_8_eijei.wav,sh2j_1_eishei.wav,,FALSE,FALSE,,,,,,,,,,,,,,j,0.6671,space,0.9157,,,,,,,,0,103,103,139,1,,
62b39c0ea0a9909088d4270f,2023-06-16_11h01.37.697,phx_ver10,2022.2.5,Win32,60.06727535,,,,,,,,,,,,136,testing_3,sh2j,e,sh2j_e,sh2j_8_eje.wav,sh2j_1_eshe.wav,,FALSE,FALSE,,,,,,,,,,,,,,j,0.0671,space,0.365,,,,,,,,0,104,104,135,1,,
62b39c0ea0a9909088d4270f,2023-06-16_11h01.37.697,phx_ver10,2022.2.5,Win32,60.06727535,,,,,,,,,,,,122,testing_3,sh2j,a,sh2j_a,sh2j_8_aja.wav,sh2j_8_aja.wav,,TRUE,FALSE,,,,,,,,,,,,,,f,0.5157,space,0.8335,,,,,,,,0,105,105,121,1,,
62b39c0ea0a9909088d4270f,2023-06-16_11h01.37.697,phx_ver10,2022.2.5,Win32,60.06727535,,,,,,,,,,,,36,testing_3,zh2sh,au,zh2sh_au,zh2sh_8_aushau.wav,zh2sh_1_auzhau.wav,,FALSE,FALSE,,,,,,,,,,,,,,j,0.1199,space,0.4174,,,,,,,,0,106,106,35,1,,
62b39c0ea0a9909088d4270f,2023-06-16_11h01.37.697,phx_ver10,2022.2.5,Win32,60.06727535,,,,,,,,,,,,116,testing_3,sh2x,ei,sh2x_ei,sh2x_8_eixei.wav,sh2x_1_eishei.wav,,FALSE,FALSE,,,,,,,,,,,,,,j,0.2496,space,0.5501,,,,,,,,0,107,107,115,1,,
62b39c0ea0a9909088d4270f,2023-06-16_11h01.37.697,phx_ver10,2022.2.5,Win32,60.06727535,,,,,,,,,,,,51,testing_3,zh2j,a,zh2j_a,zh2j_1_azha.wav,zh2j_8_aja.wav,,FALSE,FALSE,,,,,,,,,,,,,,f,0.0174,space,0.4348,,,,,,,,0,108,108,50,1,,
62b39c0ea0a9909088d4270f,2023-06-16_11h01.37.697,phx_ver10,2022.2.5,Win32,60.06727535,,,,,,,,,,,,55,testing_3,zh2j,ai,zh2j_ai,zh2j_1_aizhai.wav,zh2j_8_aijai.wav,,FALSE,FALSE,,,,,,,,,,,,,,f,0.3677,space,0.6507,,,,,,,,0,109,109,54,1,,
62b39c0ea0a9909088d4270f,2023-06-16_11h01.37.697,phx_ver10,2022.2.5,Win32,60.06727535,,,,,,,,,,,,84,testing_3,j2x,au,j2x_au,j2x_8_auxau.wav,j2x_1_aujau.wav,,FALSE,FALSE,,,,,,,,,,,,,,j,0.3502,space,0.6743,,,,,,,,0,110,110,83,1,,
62b39c0ea0a9909088d4270f,2023-06-16_11h01.37.697,phx_ver10,2022.2.5,Win32,60.06727535,,,,,,,,,,,,4,testing_1,zh2x,a,zh2x_a,zh2x_8_axa.wav,zh2x_1_azha.wav,,FALSE,TRUE,,,,,,,,,,,,,,j,0.0822,space,0.3666,,,,,,,,0,111,111,3,1,,
62b39c0ea0a9909088d4270f,2023-06-16_11h01.37.697,phx_ver10,2022.2.5,Win32,60.06727535,,,,,,,,,,,,63,testing_3,zh2j,e,zh2j_e,zh2j_1_ezhe.wav,zh2j_8_eje.wav,,FALSE,FALSE,,,,,,,,,,,,,,f,0.0512,space,0.4171,,,,,,,,0,112,112,62,1,,
62b39c0ea0a9909088d4270f,2023-06-16_11h01.37.697,phx_ver10,2022.2.5,Win32,60.06727535,,,,,,,,,,,,128,testing_3,sh2j,ai,sh2j_ai,sh2j_8_aijai.wav,sh2j_1_aishai.wav,,FALSE,FALSE,,,,,,,,,,,,,,j,0.1565,space,0.4458,,,,,,,,0,113,113,127,1,,
62b39c0ea0a9909088d4270f,2023-06-16_11h01.37.697,phx_ver10,2022.2.5,Win32,60.06727535,,,,,,,,,,,,22,testing_2,zh2x,ei,zh2x_ei,zh2x_8_eixei.wav,zh2x_8_eixei.wav,,TRUE,FALSE,,,,,,,,,,,,,,f,0.0328,space,0.3841,,,,,,,,0,114,114,21,1,,
62b39c0ea0a9909088d4270f,2023-06-16_11h01.37.697,phx_ver10,2022.2.5,Win32,60.06727535,,,,,,,,,,,,21,testing_2,zh2x,ei,zh2x_ei,zh2x_1_eizhei.wav,zh2x_1_eizhei.wav,,TRUE,FALSE,,,,,,,,,,,,,,f,0.1167,space,0.4391,,,,,,,,0,115,115,20,1,,
62b39c0ea0a9909088d4270f,2023-06-16_11h01.37.697,phx_ver10,2022.2.5,Win32,60.06727535,,,,,,,,,,,,111,testing_3,sh2x,e,sh2x_e,sh2x_1_eshe.wav,sh2x_8_exe.wav,,FALSE,FALSE,,,,,,,,,,,,,,j,0.2836,space,0.5721,,,,,,,,0,116,116,110,1,,
62b39c0ea0a9909088d4270f,2023-06-16_11h01.37.697,phx_ver10,2022.2.5,Win32,60.06727535,,,,,,,,,,,,30,testing_3,zh2sh,ai,zh2sh_ai,zh2sh_8_aishai.wav,zh2sh_8_aishai.wav,,TRUE,FALSE,,,,,,,,,,,,,,f,0.2838,space,0.6332,,,,,,,,0,117,117,29,1,,
62b39c0ea0a9909088d4270f,2023-06-16_11h01.37.697,phx_ver10,2022.2.5,Win32,60.06727535,,,,,,,,,,,,119,testing_3,sh2x,i,sh2x_i,sh2x_1_ishi.wav,sh2x_8_ixi.wav,,FALSE,FALSE,,,,,,,,,,,,,,j,0.1564,space,0.4338,,,,,,,,0,118,118,118,1,,
62b39c0ea0a9909088d4270f,2023-06-16_11h01.37.697,phx_ver10,2022.2.5,Win32,60.06727535,,,,,,,,,,,,54,testing_3,zh2j,ai,zh2j_ai,zh2j_8_aijai.wav,zh2j_8_aijai.wav,,TRUE,FALSE,,,,,,,,,,,,,,f,0.0171,space,0.3551,,,,,,,,0,119,119,53,1,,
62b39c0ea0a9909088d4270f,2023-06-16_11h01.37.697,phx_ver10,2022.2.5,Win32,60.06727535,,,,,,,,,,,,14,testing_2,zh2x,ai,zh2x_ai,zh2x_8_aixai.wav,zh2x_8_aixai.wav,,TRUE,FALSE,,,,,,,,,,,,,,f,0.3391,space,0.8503,,,,,,,,0,120,120,13,1,,
62b39c0ea0a9909088d4270f,2023-06-16_11h01.37.697,phx_ver10,2022.2.5,Win32,60.06727535,,,,,,,,,,,,2,testing_1,zh2x,a,zh2x_a,zh2x_8_axa.wav,zh2x_8_axa_copy.wav,,TRUE,TRUE,,,,,,,,,,,,,,f,0.0838,space,0.4169,,,,,,,,0,121,121,1,1,,
62b39c0ea0a9909088d4270f,2023-06-16_11h01.37.697,phx_ver10,2022.2.5,Win32,60.06727535,,,,,,,,,,,,132,testing_3,sh2j,au,sh2j_au,sh2j_8_aujau.wav,sh2j_1_aushau.wav,,FALSE,FALSE,,,,,,,,,,,,,,j,0.1153,space,0.3672,,,,,,,,0,122,122,131,1,,
62b39c0ea0a9909088d4270f,2023-06-16_11h01.37.697,phx_ver10,2022.2.5,Win32,60.06727535,,,,,,,,,,,,76,testing_3,j2x,a,j2x_a,j2x_8_axa.wav,j2x_1_aja.wav,,FALSE,FALSE,,,,,,,,,,,,,,j,0.4738,space,0.762,,,,,,,,0,123,123,75,1,,
62b39c0ea0a9909088d4270f,2023-06-16_11h01.37.697,phx_ver10,2022.2.5,Win32,60.06727535,,,,,,,,,,,,48,testing_3,zh2sh,i,zh2sh_i,zh2sh_8_ishi.wav,zh2sh_1_izhi.wav,,FALSE,FALSE,,,,,,,,,,,,,,j,0.4905,space,0.7332,,,,,,,,0,124,124,47,1,,
62b39c0ea0a9909088d4270f,2023-06-16_11h01.37.697,phx_ver10,2022.2.5,Win32,60.06727535,,,,,,,,,,,,125,testing_3,sh2j,ai,sh2j_ai,sh2j_1_aishai.wav,sh2j_1_aishai.wav,,TRUE,FALSE,,,,,,,,,,,,,,f,0.0223,space,0.3155,,,,,,,,0,125,125,124,1,,
62b39c0ea0a9909088d4270f,2023-06-16_11h01.37.697,phx_ver10,2022.2.5,Win32,60.06727535,,,,,,,,,,,,131,testing_3,sh2j,au,sh2j_au,sh2j_1_aushau.wav,sh2j_8_aujau.wav,,FALSE,FALSE,,,,,,,,,,,,,,j,0.1229,space,0.3224,,,,,,,,0,126,126,130,1,,
62b39c0ea0a9909088d4270f,2023-06-16_11h01.37.697,phx_ver10,2022.2.5,Win32,60.06727535,,,,,,,,,,,,86,testing_3,j2x,e,j2x_e,j2x_8_exe.wav,j2x_8_exe.wav,,TRUE,FALSE,,,,,,,,,,,,,,f,0.5147,space,0.7669,,,,,,,,0,127,127,85,1,,
62b39c0ea0a9909088d4270f,2023-06-16_11h01.37.697,phx_ver10,2022.2.5,Win32,60.06727535,,,,,,,,,,,,46,testing_3,zh2sh,i,zh2sh_i,zh2sh_8_ishi.wav,zh2sh_8_ishi.wav,,TRUE,FALSE,,,,,,,,,,,,,,f,0.2532,space,0.5336,,,,,,,,0,128,128,45,1,,
62b39c0ea0a9909088d4270f,2023-06-16_11h01.37.697,phx_ver10,2022.2.5,Win32,60.06727535,,,,,,,,,,,,94,testing_3,j2x,i,j2x_i,j2x_8_ixi.wav,j2x_8_ixi.wav,,TRUE,FALSE,,,,,,,,,,,,,,f,0.0005,space,0.3214,,,,,,,,0,129,129,93,1,,
62b39c0ea0a9909088d4270f,2023-06-16_11h01.37.697,phx_ver10,2022.2.5,Win32,60.06727535,,,,,,,,,,,,34,testing_3,zh2sh,au,zh2sh_au,zh2sh_8_aushau.wav,zh2sh_8_aushau.wav,,TRUE,FALSE,,,,,,,,,,,,,,f,0.351,space,0.6335,,,,,,,,0,130,130,33,1,,
62b39c0ea0a9909088d4270f,2023-06-16_11h01.37.697,phx_ver10,2022.2.5,Win32,60.06727535,,,,,,,,,,,,90,testing_3,j2x,ei,j2x_ei,j2x_8_eixei.wav,j2x_8_eixei.wav,,TRUE,FALSE,,,,,,,,,,,,,,f,0.3338,space,0.6511,,,,,,,,0,131,131,89,1,,
62b39c0ea0a9909088d4270f,2023-06-16_11h01.37.697,phx_ver10,2022.2.5,Win32,60.06727535,,,,,,,,,,,,134,testing_3,sh2j,e,sh2j_e,sh2j_8_eje.wav,sh2j_8_eje.wav,,TRUE,FALSE,,,,,,,,,,,,,,f,0.3165,space,0.6182,,,,,,,,0,132,132,133,1,,
62b39c0ea0a9909088d4270f,2023-06-16_11h01.37.697,phx_ver10,2022.2.5,Win32,60.06727535,,,,,,,,,,,,89,testing_3,j2x,ei,j2x_ei,j2x_1_eijei.wav,j2x_1_eijei.wav,,TRUE,FALSE,,,,,,,,,,,,,,f,0.2329,space,0.5167,,,,,,,,0,133,133,88,1,,
62b39c0ea0a9909088d4270f,2023-06-16_11h01.37.697,phx_ver10,2022.2.5,Win32,60.06727535,,,,,,,,,,,,123,testing_3,sh2j,a,sh2j_a,sh2j_1_asha.wav,sh2j_8_aja.wav,,FALSE,FALSE,,,,,,,,,,,,,,j,0.112,space,0.3785,,,,,,,,0,134,134,122,1,,
62b39c0ea0a9909088d4270f,2023-06-16_11h01.37.697,phx_ver10,2022.2.5,Win32,60.06727535,,,,,,,,,,,,75,testing_3,j2x,a,j2x_a,j2x_1_aja.wav,j2x_8_axa.wav,,FALSE,FALSE,,,,,,,,,,,,,,j,0.4683,space,0.7015,,,,,,,,0,135,135,74,1,,
62b39c0ea0a9909088d4270f,2023-06-16_11h01.37.697,phx_ver10,2022.2.5,Win32,60.06727535,,,,,,,,,,,,62,testing_3,zh2j,e,zh2j_e,zh2j_8_eje.wav,zh2j_8_eje.wav,,TRUE,FALSE,,,,,,,,,,,,,,f,0.4026,space,0.7015,,,,,,,,0,136,136,61,1,,
62b39c0ea0a9909088d4270f,2023-06-16_11h01.37.697,phx_ver10,2022.2.5,Win32,60.06727535,,,,,,,,,,,,115,testing_3,sh2x,ei,sh2x_ei,sh2x_1_eishei.wav,sh2x_8_eixei.wav,,FALSE,FALSE,,,,,,,,,,,,,,j,0.4171,space,0.7164,,,,,,,,0,137,137,114,1,,
62b39c0ea0a9909088d4270f,2023-06-16_11h01.37.697,phx_ver10,2022.2.5,Win32,60.06727535,,,,,,,,,,,,139,testing_3,sh2j,ei,sh2j_ei,sh2j_1_eishei.wav,sh2j_8_eijei.wav,,FALSE,FALSE,,,,,,,,,,,,,,j,0.3766,space,0.6888,,,,,,,,0,138,138,138,1,,
62b39c0ea0a9909088d4270f,2023-06-16_11h01.37.697,phx_ver10,2022.2.5,Win32,60.06727535,,,,,,,,,,,,20,testing_2,zh2x,au,zh2x_au,zh2x_8_auxau.wav,zh2x_1_auzhau.wav,,FALSE,FALSE,,,,,,,,,,,,,,j,0.3687,space,0.6334,,,,,,,,0,139,139,19,1,,
62b39c0ea0a9909088d4270f,2023-06-16_11h01.37.697,phx_ver10,2022.2.5,Win32,60.06727535,,,,,,,,,,,,137,testing_3,sh2j,ei,sh2j_ei,sh2j_1_eishei.wav,sh2j_1_eishei.wav,,TRUE,FALSE,,,,,,,,,,,,,,f,0.0835,space,0.4504,,,,,,,,0,140,140,136,1,,
62b39c0ea0a9909088d4270f,2023-06-16_11h01.37.697,phx_ver10,2022.2.5,Win32,60.06727535,,,,,,,,,,,,16,testing_2,zh2x,ai,zh2x_ai,zh2x_8_aixai.wav,zh2x_1_aizhai.wav,,FALSE,FALSE,,,,,,,,,,,,,,j,0.323,space,0.6637,,,,,,,,0,141,141,15,1,,
62b39c0ea0a9909088d4270f,2023-06-16_11h01.37.697,phx_ver10,2022.2.5,Win32,60.06727535,,,,,,,,,,,,98,testing_3,sh2x,a,sh2x_a,sh2x_8_axa.wav,sh2x_8_axa.wav,,TRUE,FALSE,,,,,,,,,,,,,,j,0.4332,space,0.7001,,,,,,,,0,142,142,97,1,,
62b39c0ea0a9909088d4270f,2023-06-16_11h01.37.697,phx_ver10,2022.2.5,Win32,60.06727535,,,,,,,,,,,,38,testing_3,zh2sh,e,zh2sh_e,zh2sh_8_eshe.wav,zh2sh_8_eshe.wav,,TRUE,FALSE,,,,,,,,,,,,,,f,0.2991,space,0.6568,,,,,,,,0,143,143,37,1,,
62b39c0ea0a9909088d4270f,2023-06-16_11h01.37.697,phx_ver10,2022.2.5,Win32,60.06727535,,,,,,,,,,,,,,,,,,,,,,,,,,,,,,,,,,,,,,,,,,,,,,,,,,,space,2.2676
