participant,date,expName,psychopyVersion,OS,frameRate,space_1.keys,space_1.rt,space_2.keys,space_2.rt,space_train.keys,space_train.rt,training.thisRepN,training.thisTrialN,training.thisN,training.thisIndex,training.ran,token_id,task,continuum,vowel,series,sound_1,sound_2,img,same,trained,FJ_attn.keys,FJ_attn.rt,space_attn.keys,space_attn.rt,if_attn_test.thisRepN,if_attn_test.thisTrialN,if_attn_test.thisN,if_attn_test.thisIndex,if_attn_test.ran,space_trans_1.keys,space_trans_1.rt,space_trans_11.keys,space_trans_11.rt,FJ_test.keys,FJ_test.rt,space_test.keys,space_test.rt,testing_pre.thisRepN,testing_pre.thisTrialN,testing_pre.thisN,testing_pre.thisIndex,testing_pre.ran,space_trans_2.keys,space_trans_2.rt,testing_all.thisRepN,testing_all.thisTrialN,testing_all.thisN,testing_all.thisIndex,testing_all.ran,space_ending.keys,space_ending.rt
62d136262c6a9f949e50eb59,2023-06-16_10h26.22.871,phx_ver10,2022.2.5,Win32,59.97361161,,,,,,,,,,,,,,,,,,,,,,,,,,,,,,,,,,,,,,,,,,,,,,,,,,,,
62d136262c6a9f949e50eb59,2023-06-16_10h26.22.871,phx_ver10,2022.2.5,Win32,59.97361161,space,8.494,,,,,,,,,,,,,,,,,,,,,,,,,,,,,,,,,,,,,,,,,,,,,,,,,,
62d136262c6a9f949e50eb59,2023-06-16_10h26.22.871,phx_ver10,2022.2.5,Win32,59.97361161,,,space,0.7005,,,,,,,,,,,,,,,,,,,,,,,,,,,,,,,,,,,,,,,,,,,,,,,,
62d136262c6a9f949e50eb59,2023-06-16_10h26.22.871,phx_ver10,2022.2.5,Win32,59.97361161,,,,,space,2.5182,0,0,0,18,1,19,training,zh2x,e,zh2x_e,zh2x_2_ezhe.wav,,ezhe.jpg,,,,,,,,,,,,,,,,,,,,,,,,,,,,,,,,,
62d136262c6a9f949e50eb59,2023-06-16_10h26.22.871,phx_ver10,2022.2.5,Win32,59.97361161,,,,,space,1.3231,0,1,1,43,1,44,training,zh2x,i,zh2x_i,zh2x_7_ixi.wav,,ixi.jpg,,,,,,,,,,,,,,,,,,,,,,,,,,,,,,,,,
62d136262c6a9f949e50eb59,2023-06-16_10h26.22.871,phx_ver10,2022.2.5,Win32,59.97361161,,,,,space,0.6176,0,2,2,9,1,10,training,zh2x,a,zh2x_a,zh2x_6_axa.wav,,axa.jpg,,,,,,,,,,,,,,,,,,,,,,,,,,,,,,,,,
62d136262c6a9f949e50eb59,2023-06-16_10h26.22.871,phx_ver10,2022.2.5,Win32,59.97361161,,,,,space,0.3658,0,3,3,23,1,24,training,zh2x,e,zh2x_e,zh2x_4_ezhe.wav,,ezhe.jpg,,,,,,,,,,,,,,,,,,,,,,,,,,,,,,,,,
62d136262c6a9f949e50eb59,2023-06-16_10h26.22.871,phx_ver10,2022.2.5,Win32,59.97361161,,,,,space,0.3682,0,4,4,39,1,40,training,zh2x,i,zh2x_i,zh2x_4_izhi.wav,,izhi.jpg,,,,,,,,,,,,,,,,,,,,,,,,,,,,,,,,,
62d136262c6a9f949e50eb59,2023-06-16_10h26.22.871,phx_ver10,2022.2.5,Win32,59.97361161,,,,,space,0.323,0,5,5,4,1,5,training,zh2x,a,zh2x_a,zh2x_2_azha.wav,,azha.jpg,,,,,,,,,,,,,,,,,,,,,,,,,,,,,,,,,
62d136262c6a9f949e50eb59,2023-06-16_10h26.22.871,phx_ver10,2022.2.5,Win32,59.97361161,,,,,,,,,,,,,attn_test,,,,zh2x_1_ezhe.wav,zh2x_1_izhi.wav,izhi.jpg,RIGHT,,f,2.8181,space,4.288,0,0,0,0,1,,,,,,,,,,,,,,,,,,,,,,
62d136262c6a9f949e50eb59,2023-06-16_10h26.22.871,phx_ver10,2022.2.5,Win32,59.97361161,,,,,space,0.9327,0,6,6,29,1,30,training,zh2x,e,zh2x_e,zh2x_7_exe.wav,,exe.jpg,,,,,,,,,,,,,,,,,,,,,,,,,,,,,,,,,
62d136262c6a9f949e50eb59,2023-06-16_10h26.22.871,phx_ver10,2022.2.5,Win32,59.97361161,,,,,space,0.5578,0,7,7,5,1,6,training,zh2x,a,zh2x_a,zh2x_3_azha.wav,,azha.jpg,,,,,,,,,,,,,,,,,,,,,,,,,,,,,,,,,
62d136262c6a9f949e50eb59,2023-06-16_10h26.22.871,phx_ver10,2022.2.5,Win32,59.97361161,,,,,space,0.4552,0,8,8,34,1,35,training,zh2x,i,zh2x_i,zh2x_2_izhi.wav,,izhi.jpg,,,,,,,,,,,,,,,,,,,,,,,,,,,,,,,,,
62d136262c6a9f949e50eb59,2023-06-16_10h26.22.871,phx_ver10,2022.2.5,Win32,59.97361161,,,,,space,0.3158,0,9,9,19,1,20,training,zh2x,e,zh2x_e,zh2x_2_ezhe.wav,,ezhe.jpg,,,,,,,,,,,,,,,,,,,,,,,,,,,,,,,,,
62d136262c6a9f949e50eb59,2023-06-16_10h26.22.871,phx_ver10,2022.2.5,Win32,59.97361161,,,,,space,0.6855,0,10,10,14,1,15,training,zh2x,a,zh2x_a,zh2x_7_axa.wav,,axa.jpg,,,,,,,,,,,,,,,,,,,,,,,,,,,,,,,,,
62d136262c6a9f949e50eb59,2023-06-16_10h26.22.871,phx_ver10,2022.2.5,Win32,59.97361161,,,,,space,0.2734,0,11,11,0,1,1,training,zh2x,a,zh2x_a,zh2x_1_azha.wav,,azha.jpg,,,,,,,,,,,,,,,,,,,,,,,,,,,,,,,,,
62d136262c6a9f949e50eb59,2023-06-16_10h26.22.871,phx_ver10,2022.2.5,Win32,59.97361161,,,,,,,,,,,,,attn_test,,,,zh2x_1_azha.wav,zh2x_1_izhi.wav,izhi.jpg,RIGHT,,j,0.3364,space,1.0394,0,0,0,0,1,,,,,,,,,,,,,,,,,,,,,,
62d136262c6a9f949e50eb59,2023-06-16_10h26.22.871,phx_ver10,2022.2.5,Win32,59.97361161,,,,,space,1.1204,0,12,12,45,1,46,training,zh2x,i,zh2x_i,zh2x_7_ixi.wav,,ixi.jpg,,,,,,,,,,,,,,,,,,,,,,,,,,,,,,,,,
62d136262c6a9f949e50eb59,2023-06-16_10h26.22.871,phx_ver10,2022.2.5,Win32,59.97361161,,,,,space,0.0852,0,13,13,10,1,11,training,zh2x,a,zh2x_a,zh2x_6_axa.wav,,axa.jpg,,,,,,,,,,,,,,,,,,,,,,,,,,,,,,,,,
62d136262c6a9f949e50eb59,2023-06-16_10h26.22.871,phx_ver10,2022.2.5,Win32,59.97361161,,,,,space,0.217,0,14,14,33,1,34,training,zh2x,i,zh2x_i,zh2x_2_izhi.wav,,izhi.jpg,,,,,,,,,,,,,,,,,,,,,,,,,,,,,,,,,
62d136262c6a9f949e50eb59,2023-06-16_10h26.22.871,phx_ver10,2022.2.5,Win32,59.97361161,,,,,space,0.3732,0,15,15,36,1,37,training,zh2x,i,zh2x_i,zh2x_2_izhi.wav,,izhi.jpg,,,,,,,,,,,,,,,,,,,,,,,,,,,,,,,,,
62d136262c6a9f949e50eb59,2023-06-16_10h26.22.871,phx_ver10,2022.2.5,Win32,59.97361161,,,,,space,0.5805,0,16,16,31,1,32,training,zh2x,e,zh2x_e,zh2x_8_exe.wav,,exe.jpg,,,,,,,,,,,,,,,,,,,,,,,,,,,,,,,,,
62d136262c6a9f949e50eb59,2023-06-16_10h26.22.871,phx_ver10,2022.2.5,Win32,59.97361161,,,,,space,0.2228,0,17,17,7,1,8,training,zh2x,a,zh2x_a,zh2x_4_azha.wav,,azha.jpg,,,,,,,,,,,,,,,,,,,,,,,,,,,,,,,,,
62d136262c6a9f949e50eb59,2023-06-16_10h26.22.871,phx_ver10,2022.2.5,Win32,59.97361161,,,,,,,,,,,,,attn_test,,,,zh2x_1_ezhe.wav,zh2x_8_ixi.wav,ixi.jpg,RIGHT,,j,0.1174,space,0.6098,0,0,0,0,1,,,,,,,,,,,,,,,,,,,,,,
62d136262c6a9f949e50eb59,2023-06-16_10h26.22.871,phx_ver10,2022.2.5,Win32,59.97361161,,,,,space,3.5797,0,18,18,17,1,18,training,zh2x,e,zh2x_e,zh2x_2_ezhe.wav,,ezhe.jpg,,,,,,,,,,,,,,,,,,,,,,,,,,,,,,,,,
62d136262c6a9f949e50eb59,2023-06-16_10h26.22.871,phx_ver10,2022.2.5,Win32,59.97361161,,,,,space,0.2481,0,19,19,42,1,43,training,zh2x,i,zh2x_i,zh2x_6_ixi.wav,,ixi.jpg,,,,,,,,,,,,,,,,,,,,,,,,,,,,,,,,,
62d136262c6a9f949e50eb59,2023-06-16_10h26.22.871,phx_ver10,2022.2.5,Win32,59.97361161,,,,,space,0.1773,0,20,20,28,1,29,training,zh2x,e,zh2x_e,zh2x_7_exe.wav,,exe.jpg,,,,,,,,,,,,,,,,,,,,,,,,,,,,,,,,,
62d136262c6a9f949e50eb59,2023-06-16_10h26.22.871,phx_ver10,2022.2.5,Win32,59.97361161,,,,,space,0.351,0,21,21,16,1,17,training,zh2x,e,zh2x_e,zh2x_1_ezhe.wav,,ezhe.jpg,,,,,,,,,,,,,,,,,,,,,,,,,,,,,,,,,
62d136262c6a9f949e50eb59,2023-06-16_10h26.22.871,phx_ver10,2022.2.5,Win32,59.97361161,,,,,space,0.5886,0,22,22,30,1,31,training,zh2x,e,zh2x_e,zh2x_7_exe.wav,,exe.jpg,,,,,,,,,,,,,,,,,,,,,,,,,,,,,,,,,
62d136262c6a9f949e50eb59,2023-06-16_10h26.22.871,phx_ver10,2022.2.5,Win32,59.97361161,,,,,space,0.2839,0,23,23,44,1,45,training,zh2x,i,zh2x_i,zh2x_7_ixi.wav,,ixi.jpg,,,,,,,,,,,,,,,,,,,,,,,,,,,,,,,,,
62d136262c6a9f949e50eb59,2023-06-16_10h26.22.871,phx_ver10,2022.2.5,Win32,59.97361161,,,,,,,,,,,,,attn_test,,,,zh2x_8_ixi.wav,zh2x_8_axa.wav,ixi.jpg,LEFT,,f,0.2352,space,0.5181,0,0,0,0,1,,,,,,,,,,,,,,,,,,,,,,
62d136262c6a9f949e50eb59,2023-06-16_10h26.22.871,phx_ver10,2022.2.5,Win32,59.97361161,,,,,space,0.5643,0,24,24,32,1,33,training,zh2x,i,zh2x_i,zh2x_1_izhi.wav,,izhi.jpg,,,,,,,,,,,,,,,,,,,,,,,,,,,,,,,,,
62d136262c6a9f949e50eb59,2023-06-16_10h26.22.871,phx_ver10,2022.2.5,Win32,59.97361161,,,,,space,0.3,0,25,25,24,1,25,training,zh2x,e,zh2x_e,zh2x_5_exe.wav,,exe.jpg,,,,,,,,,,,,,,,,,,,,,,,,,,,,,,,,,
62d136262c6a9f949e50eb59,2023-06-16_10h26.22.871,phx_ver10,2022.2.5,Win32,59.97361161,,,,,space,0.288,0,26,26,13,1,14,training,zh2x,a,zh2x_a,zh2x_7_axa.wav,,axa.jpg,,,,,,,,,,,,,,,,,,,,,,,,,,,,,,,,,
62d136262c6a9f949e50eb59,2023-06-16_10h26.22.871,phx_ver10,2022.2.5,Win32,59.97361161,,,,,space,0.1532,0,27,27,8,1,9,training,zh2x,a,zh2x_a,zh2x_5_axa.wav,,axa.jpg,,,,,,,,,,,,,,,,,,,,,,,,,,,,,,,,,
62d136262c6a9f949e50eb59,2023-06-16_10h26.22.871,phx_ver10,2022.2.5,Win32,59.97361161,,,,,space,0.0365,0,28,28,40,1,41,training,zh2x,i,zh2x_i,zh2x_5_ixi.wav,,ixi.jpg,,,,,,,,,,,,,,,,,,,,,,,,,,,,,,,,,
62d136262c6a9f949e50eb59,2023-06-16_10h26.22.871,phx_ver10,2022.2.5,Win32,59.97361161,,,,,space,0.3089,0,29,29,22,1,23,training,zh2x,e,zh2x_e,zh2x_3_ezhe.wav,,ezhe.jpg,,,,,,,,,,,,,,,,,,,,,,,,,,,,,,,,,
62d136262c6a9f949e50eb59,2023-06-16_10h26.22.871,phx_ver10,2022.2.5,Win32,59.97361161,,,,,,,,,,,,,attn_test,,,,zh2x_8_axa.wav,zh2x_1_izhi.wav,izhi.jpg,RIGHT,,f,0.4694,space,0.9541,0,0,0,0,1,,,,,,,,,,,,,,,,,,,,,,
62d136262c6a9f949e50eb59,2023-06-16_10h26.22.871,phx_ver10,2022.2.5,Win32,59.97361161,,,,,space,0.2706,0,30,30,26,1,27,training,zh2x,e,zh2x_e,zh2x_6_exe.wav,,exe.jpg,,,,,,,,,,,,,,,,,,,,,,,,,,,,,,,,,
62d136262c6a9f949e50eb59,2023-06-16_10h26.22.871,phx_ver10,2022.2.5,Win32,59.97361161,,,,,space,0.1639,0,31,31,6,1,7,training,zh2x,a,zh2x_a,zh2x_3_azha.wav,,azha.jpg,,,,,,,,,,,,,,,,,,,,,,,,,,,,,,,,,
62d136262c6a9f949e50eb59,2023-06-16_10h26.22.871,phx_ver10,2022.2.5,Win32,59.97361161,,,,,space,0.287,0,32,32,41,1,42,training,zh2x,i,zh2x_i,zh2x_6_ixi.wav,,ixi.jpg,,,,,,,,,,,,,,,,,,,,,,,,,,,,,,,,,
62d136262c6a9f949e50eb59,2023-06-16_10h26.22.871,phx_ver10,2022.2.5,Win32,59.97361161,,,,,space,0.2908,0,33,33,21,1,22,training,zh2x,e,zh2x_e,zh2x_3_ezhe.wav,,ezhe.jpg,,,,,,,,,,,,,,,,,,,,,,,,,,,,,,,,,
62d136262c6a9f949e50eb59,2023-06-16_10h26.22.871,phx_ver10,2022.2.5,Win32,59.97361161,,,,,space,0.3305,0,34,34,11,1,12,training,zh2x,a,zh2x_a,zh2x_7_axa.wav,,axa.jpg,,,,,,,,,,,,,,,,,,,,,,,,,,,,,,,,,
62d136262c6a9f949e50eb59,2023-06-16_10h26.22.871,phx_ver10,2022.2.5,Win32,59.97361161,,,,,space,0.1506,0,35,35,20,1,21,training,zh2x,e,zh2x_e,zh2x_2_ezhe.wav,,ezhe.jpg,,,,,,,,,,,,,,,,,,,,,,,,,,,,,,,,,
62d136262c6a9f949e50eb59,2023-06-16_10h26.22.871,phx_ver10,2022.2.5,Win32,59.97361161,,,,,,,,,,,,,attn_test,,,,zh2x_1_ezhe.wav,zh2x_8_ixi.wav,ezhe.jpg,LEFT,,f,0.4208,space,0.7225,0,0,0,0,1,,,,,,,,,,,,,,,,,,,,,,
62d136262c6a9f949e50eb59,2023-06-16_10h26.22.871,phx_ver10,2022.2.5,Win32,59.97361161,,,,,space,0.168,0,36,36,3,1,4,training,zh2x,a,zh2x_a,zh2x_2_azha.wav,,azha.jpg,,,,,,,,,,,,,,,,,,,,,,,,,,,,,,,,,
62d136262c6a9f949e50eb59,2023-06-16_10h26.22.871,phx_ver10,2022.2.5,Win32,59.97361161,,,,,space,0.0201,0,37,37,1,1,2,training,zh2x,a,zh2x_a,zh2x_2_azha.wav,,azha.jpg,,,,,,,,,,,,,,,,,,,,,,,,,,,,,,,,,
62d136262c6a9f949e50eb59,2023-06-16_10h26.22.871,phx_ver10,2022.2.5,Win32,59.97361161,,,,,space,0.0478,0,38,38,27,1,28,training,zh2x,e,zh2x_e,zh2x_7_exe.wav,,exe.jpg,,,,,,,,,,,,,,,,,,,,,,,,,,,,,,,,,
62d136262c6a9f949e50eb59,2023-06-16_10h26.22.871,phx_ver10,2022.2.5,Win32,59.97361161,,,,,space,0.084,0,39,39,46,1,47,training,zh2x,i,zh2x_i,zh2x_7_ixi.wav,,ixi.jpg,,,,,,,,,,,,,,,,,,,,,,,,,,,,,,,,,
62d136262c6a9f949e50eb59,2023-06-16_10h26.22.871,phx_ver10,2022.2.5,Win32,59.97361161,,,,,space,0.1337,0,40,40,35,1,36,training,zh2x,i,zh2x_i,zh2x_2_izhi.wav,,izhi.jpg,,,,,,,,,,,,,,,,,,,,,,,,,,,,,,,,,
62d136262c6a9f949e50eb59,2023-06-16_10h26.22.871,phx_ver10,2022.2.5,Win32,59.97361161,,,,,space,0.251,0,41,41,47,1,48,training,zh2x,i,zh2x_i,zh2x_8_ixi.wav,,ixi.jpg,,,,,,,,,,,,,,,,,,,,,,,,,,,,,,,,,
62d136262c6a9f949e50eb59,2023-06-16_10h26.22.871,phx_ver10,2022.2.5,Win32,59.97361161,,,,,,,,,,,,,attn_test,,,,zh2x_8_ixi.wav,zh2x_1_ezhe.wav,ixi.jpg,LEFT,,f,0.1186,space,0.5678,0,0,0,0,1,,,,,,,,,,,,,,,,,,,,,,
62d136262c6a9f949e50eb59,2023-06-16_10h26.22.871,phx_ver10,2022.2.5,Win32,59.97361161,,,,,space,0.2806,0,42,42,37,1,38,training,zh2x,i,zh2x_i,zh2x_3_izhi.wav,,izhi.jpg,,,,,,,,,,,,,,,,,,,,,,,,,,,,,,,,,
62d136262c6a9f949e50eb59,2023-06-16_10h26.22.871,phx_ver10,2022.2.5,Win32,59.97361161,,,,,space,0.4339,0,43,43,25,1,26,training,zh2x,e,zh2x_e,zh2x_6_exe.wav,,exe.jpg,,,,,,,,,,,,,,,,,,,,,,,,,,,,,,,,,
62d136262c6a9f949e50eb59,2023-06-16_10h26.22.871,phx_ver10,2022.2.5,Win32,59.97361161,,,,,space,0.172,0,44,44,2,1,3,training,zh2x,a,zh2x_a,zh2x_2_azha.wav,,azha.jpg,,,,,,,,,,,,,,,,,,,,,,,,,,,,,,,,,
62d136262c6a9f949e50eb59,2023-06-16_10h26.22.871,phx_ver10,2022.2.5,Win32,59.97361161,,,,,space,0.1501,0,45,45,15,1,16,training,zh2x,a,zh2x_a,zh2x_8_axa.wav,,axa.jpg,,,,,,,,,,,,,,,,,,,,,,,,,,,,,,,,,
62d136262c6a9f949e50eb59,2023-06-16_10h26.22.871,phx_ver10,2022.2.5,Win32,59.97361161,,,,,space,0.1837,0,46,46,38,1,39,training,zh2x,i,zh2x_i,zh2x_3_izhi.wav,,izhi.jpg,,,,,,,,,,,,,,,,,,,,,,,,,,,,,,,,,
62d136262c6a9f949e50eb59,2023-06-16_10h26.22.871,phx_ver10,2022.2.5,Win32,59.97361161,,,,,space,0.2024,0,47,47,12,1,13,training,zh2x,a,zh2x_a,zh2x_7_axa.wav,,axa.jpg,,,,,,,,,,,,,,,,,,,,,,,,,,,,,,,,,
62d136262c6a9f949e50eb59,2023-06-16_10h26.22.871,phx_ver10,2022.2.5,Win32,59.97361161,,,,,,,,,,,,,attn_test,,,,zh2x_8_axa.wav,zh2x_1_ezhe.wav,axa.jpg,LEFT,,f,0.2838,space,0.6196,,,,,,,,,,,,,,,,,,,,,,,,,,,
62d136262c6a9f949e50eb59,2023-06-16_10h26.22.871,phx_ver10,2022.2.5,Win32,59.97361161,,,,,,,,,,,,,,,,,,,,,,,,,,,,,,,space,7.2273,,,,,,,,,,,,,,,,,,,,
62d136262c6a9f949e50eb59,2023-06-16_10h26.22.871,phx_ver10,2022.2.5,Win32,59.97361161,,,,,,,,,,,,,,,,,,,,,,,,,,,,,,,,,space,67.1827,,,,,,,,,,,,,,,,,,
62d136262c6a9f949e50eb59,2023-06-16_10h26.22.871,phx_ver10,2022.2.5,Win32,59.97361161,,,,,,,,,,,,3,testing_pre,,,,afa.wav,aha.wav,,FALSE,,,,,,,,,,,,,,,j,5.2887,space,5.7559,0,0,0,2,1,,,,,,,,,
62d136262c6a9f949e50eb59,2023-06-16_10h26.22.871,phx_ver10,2022.2.5,Win32,59.97361161,,,,,,,,,,,,5,testing_pre,,,,ihi.wav,ifi.wav,,FALSE,,,,,,,,,,,,,,,j,1.4423,space,1.835,0,1,1,4,1,,,,,,,,,
62d136262c6a9f949e50eb59,2023-06-16_10h26.22.871,phx_ver10,2022.2.5,Win32,59.97361161,,,,,,,,,,,,2,testing_pre,,,,auhau.wav,aufau.wav,,FALSE,,,,,,,,,,,,,,,f,1.1382,space,1.5218,0,2,2,1,1,,,,,,,,,
62d136262c6a9f949e50eb59,2023-06-16_10h26.22.871,phx_ver10,2022.2.5,Win32,59.97361161,,,,,,,,,,,,1,testing_pre,,,,ifi.wav,ifi.wav,,TRUE,,,,,,,,,,,,,,,f,0.3506,space,0.634,0,3,3,0,1,,,,,,,,,
62d136262c6a9f949e50eb59,2023-06-16_10h26.22.871,phx_ver10,2022.2.5,Win32,59.97361161,,,,,,,,,,,,4,testing_pre,,,,eihei.wav,eihei.wav,,TRUE,,,,,,,,,,,,,,,f,0.112,space,0.2425,0,4,4,3,1,,,,,,,,,
62d136262c6a9f949e50eb59,2023-06-16_10h26.22.871,phx_ver10,2022.2.5,Win32,59.97361161,,,,,,,,,,,,,,,,,,,,,,,,,,,,,,,,,,,,,,,,,,,,space,0.5509,,,,,,,
62d136262c6a9f949e50eb59,2023-06-16_10h26.22.871,phx_ver10,2022.2.5,Win32,59.97361161,,,,,,,,,,,,53,testing_3,zh2j,ai,zh2j_ai,zh2j_1_aizhai.wav,zh2j_1_aizhai.wav,,TRUE,FALSE,,,,,,,,,,,,,,f,0.1654,space,0.5176,,,,,,,,0,0,0,52,1,,
62d136262c6a9f949e50eb59,2023-06-16_10h26.22.871,phx_ver10,2022.2.5,Win32,59.97361161,,,,,,,,,,,,122,testing_3,sh2j,a,sh2j_a,sh2j_8_aja.wav,sh2j_8_aja.wav,,TRUE,FALSE,,,,,,,,,,,,,,f,0.0238,space,0.2837,,,,,,,,0,1,1,121,1,,
62d136262c6a9f949e50eb59,2023-06-16_10h26.22.871,phx_ver10,2022.2.5,Win32,59.97361161,,,,,,,,,,,,131,testing_3,sh2j,au,sh2j_au,sh2j_1_aushau.wav,sh2j_8_aujau.wav,,FALSE,FALSE,,,,,,,,,,,,,,f,0.3885,space,0.6328,,,,,,,,0,2,2,130,1,,
62d136262c6a9f949e50eb59,2023-06-16_10h26.22.871,phx_ver10,2022.2.5,Win32,59.97361161,,,,,,,,,,,,21,testing_2,zh2x,ei,zh2x_ei,zh2x_1_eizhei.wav,zh2x_1_eizhei.wav,,TRUE,FALSE,,,,,,,,,,,,,,f,0.3074,space,0.5024,,,,,,,,0,3,3,20,1,,
62d136262c6a9f949e50eb59,2023-06-16_10h26.22.871,phx_ver10,2022.2.5,Win32,59.97361161,,,,,,,,,,,,139,testing_3,sh2j,ei,sh2j_ei,sh2j_1_eishei.wav,sh2j_8_eijei.wav,,FALSE,FALSE,,,,,,,,,,,,,,f,0.1511,space,0.4533,,,,,,,,0,4,4,138,1,,
62d136262c6a9f949e50eb59,2023-06-16_10h26.22.871,phx_ver10,2022.2.5,Win32,59.97361161,,,,,,,,,,,,60,testing_3,zh2j,au,zh2j_au,zh2j_8_aujau.wav,zh2j_1_auzhau.wav,,FALSE,FALSE,,,,,,,,,,,,,,f,0.1236,space,0.3489,,,,,,,,0,5,5,59,1,,
62d136262c6a9f949e50eb59,2023-06-16_10h26.22.871,phx_ver10,2022.2.5,Win32,59.97361161,,,,,,,,,,,,29,testing_3,zh2sh,ai,zh2sh_ai,zh2sh_1_aizhai.wav,zh2sh_1_aizhai.wav,,TRUE,FALSE,,,,,,,,,,,,,,f,0.0705,space,0.3163,,,,,,,,0,6,6,28,1,,
62d136262c6a9f949e50eb59,2023-06-16_10h26.22.871,phx_ver10,2022.2.5,Win32,59.97361161,,,,,,,,,,,,13,testing_2,zh2x,ai,zh2x_ai,zh2x_1_aizhai.wav,zh2x_1_aizhai.wav,,TRUE,FALSE,,,,,,,,,,,,,,f,0.1839,space,0.3712,,,,,,,,0,7,7,12,1,,
62d136262c6a9f949e50eb59,2023-06-16_10h26.22.871,phx_ver10,2022.2.5,Win32,59.97361161,,,,,,,,,,,,23,testing_2,zh2x,ei,zh2x_ei,zh2x_1_eizhei.wav,zh2x_8_eixei.wav,,FALSE,FALSE,,,,,,,,,,,,,,f,0.253,space,0.4768,,,,,,,,0,8,8,22,1,,
62d136262c6a9f949e50eb59,2023-06-16_10h26.22.871,phx_ver10,2022.2.5,Win32,59.97361161,,,,,,,,,,,,44,testing_3,zh2sh,ei,zh2sh_ei,zh2sh_8_eishei.wav,zh2sh_1_eizhei.wav,,FALSE,FALSE,,,,,,,,,,,,,,f,0.2089,space,0.4663,,,,,,,,0,9,9,43,1,,
62d136262c6a9f949e50eb59,2023-06-16_10h26.22.871,phx_ver10,2022.2.5,Win32,59.97361161,,,,,,,,,,,,108,testing_3,sh2x,au,sh2x_au,sh2x_8_auxau.wav,sh2x_1_aushau.wav,,FALSE,FALSE,,,,,,,,,,,,,,f,0.1017,space,0.3256,,,,,,,,0,10,10,107,1,,
62d136262c6a9f949e50eb59,2023-06-16_10h26.22.871,phx_ver10,2022.2.5,Win32,59.97361161,,,,,,,,,,,,103,testing_3,sh2x,ai,sh2x_ai,sh2x_1_aishai.wav,sh2x_8_aixai.wav,,FALSE,FALSE,,,,,,,,,,,,,,j,0.1478,space,0.3664,,,,,,,,0,11,11,102,1,,
62d136262c6a9f949e50eb59,2023-06-16_10h26.22.871,phx_ver10,2022.2.5,Win32,59.97361161,,,,,,,,,,,,67,testing_3,zh2j,ei,zh2j_ei,zh2j_1_eizhei.wav,zh2j_8_eijei.wav,,FALSE,FALSE,,,,,,,,,,,,,,j,0.2199,space,0.3673,,,,,,,,0,12,12,66,1,,
62d136262c6a9f949e50eb59,2023-06-16_10h26.22.871,phx_ver10,2022.2.5,Win32,59.97361161,,,,,,,,,,,,42,testing_3,zh2sh,ei,zh2sh_ei,zh2sh_8_eishei.wav,zh2sh_8_eishei.wav,,TRUE,FALSE,,,,,,,,,,,,,,f,0.134,space,0.3253,,,,,,,,0,13,13,41,1,,
62d136262c6a9f949e50eb59,2023-06-16_10h26.22.871,phx_ver10,2022.2.5,Win32,59.97361161,,,,,,,,,,,,118,testing_3,sh2x,i,sh2x_i,sh2x_8_ixi.wav,sh2x_8_ixi.wav,,TRUE,FALSE,,,,,,,,,,,,,,f,0.3194,space,0.4845,,,,,,,,0,14,14,117,1,,
62d136262c6a9f949e50eb59,2023-06-16_10h26.22.871,phx_ver10,2022.2.5,Win32,59.97361161,,,,,,,,,,,,79,testing_3,j2x,ai,j2x_ai,j2x_1_aijai.wav,j2x_8_aixai.wav,,FALSE,FALSE,,,,,,,,,,,,,,f,0.1344,space,0.342,,,,,,,,0,15,15,78,1,,
62d136262c6a9f949e50eb59,2023-06-16_10h26.22.871,phx_ver10,2022.2.5,Win32,59.97361161,,,,,,,,,,,,109,testing_3,sh2x,e,sh2x_e,sh2x_1_eshe.wav,sh2x_1_eshe.wav,,TRUE,FALSE,,,,,,,,,,,,,,f,0.1185,space,0.3048,,,,,,,,0,16,16,108,1,,
62d136262c6a9f949e50eb59,2023-06-16_10h26.22.871,phx_ver10,2022.2.5,Win32,59.97361161,,,,,,,,,,,,127,testing_3,sh2j,ai,sh2j_ai,sh2j_1_aishai.wav,sh2j_8_aijai.wav,,FALSE,FALSE,,,,,,,,,,,,,,j,0.0168,space,0.2375,,,,,,,,0,17,17,126,1,,
62d136262c6a9f949e50eb59,2023-06-16_10h26.22.871,phx_ver10,2022.2.5,Win32,59.97361161,,,,,,,,,,,,80,testing_3,j2x,ai,j2x_ai,j2x_8_aixai.wav,j2x_1_aijai.wav,,FALSE,FALSE,,,,,,,,,,,,,,j,0.0587,space,0.1865,,,,,,,,0,18,18,79,1,,
62d136262c6a9f949e50eb59,2023-06-16_10h26.22.871,phx_ver10,2022.2.5,Win32,59.97361161,,,,,,,,,,,,106,testing_3,sh2x,au,sh2x_au,sh2x_8_auxau.wav,sh2x_8_auxau.wav,,TRUE,FALSE,,,,,,,,,,,,,,f,0.0865,space,0.2351,,,,,,,,0,19,19,105,1,,
62d136262c6a9f949e50eb59,2023-06-16_10h26.22.871,phx_ver10,2022.2.5,Win32,59.97361161,,,,,,,,,,,,25,testing_3,zh2sh,a,zh2sh_a,zh2sh_1_azha.wav,zh2sh_1_azha.wav,,TRUE,FALSE,,,,,,,,,,,,,,f,0.0584,space,0.2186,,,,,,,,0,20,20,24,1,,
62d136262c6a9f949e50eb59,2023-06-16_10h26.22.871,phx_ver10,2022.2.5,Win32,59.97361161,,,,,,,,,,,,117,testing_3,sh2x,i,sh2x_i,sh2x_1_ishi.wav,sh2x_1_ishi.wav,,TRUE,FALSE,,,,,,,,,,,,,,f,0.1061,space,0.2503,,,,,,,,0,21,21,116,1,,
62d136262c6a9f949e50eb59,2023-06-16_10h26.22.871,phx_ver10,2022.2.5,Win32,59.97361161,,,,,,,,,,,,32,testing_3,zh2sh,ai,zh2sh_ai,zh2sh_8_aishai.wav,zh2sh_1_aizhai.wav,,FALSE,FALSE,,,,,,,,,,,,,,j,0.0251,space,0.153,,,,,,,,0,22,22,31,1,,
62d136262c6a9f949e50eb59,2023-06-16_10h26.22.871,phx_ver10,2022.2.5,Win32,59.97361161,,,,,,,,,,,,43,testing_3,zh2sh,ei,zh2sh_ei,zh2sh_1_eizhei.wav,zh2sh_8_eishei.wav,,FALSE,FALSE,,,,,,,,,,,,,,j,0.5398,space,0.6862,,,,,,,,0,23,23,42,1,,
62d136262c6a9f949e50eb59,2023-06-16_10h26.22.871,phx_ver10,2022.2.5,Win32,59.97361161,,,,,,,,,,,,3,testing_1,zh2x,a,zh2x_a,zh2x_1_azha.wav,zh2x_8_axa.wav,,FALSE,TRUE,,,,,,,,,,,,,,j,0.0554,space,0.2317,,,,,,,,0,24,24,2,1,,
62d136262c6a9f949e50eb59,2023-06-16_10h26.22.871,phx_ver10,2022.2.5,Win32,59.97361161,,,,,,,,,,,,31,testing_3,zh2sh,ai,zh2sh_ai,zh2sh_1_aizhai.wav,zh2sh_8_aishai.wav,,FALSE,FALSE,,,,,,,,,,,,,,j,0.1674,space,0.3491,,,,,,,,0,25,25,30,1,,
62d136262c6a9f949e50eb59,2023-06-16_10h26.22.871,phx_ver10,2022.2.5,Win32,59.97361161,,,,,,,,,,,,88,testing_3,j2x,e,j2x_e,j2x_8_exe.wav,j2x_1_eje.wav,,FALSE,FALSE,,,,,,,,,,,,,,f,0.0847,space,0.2561,,,,,,,,0,26,26,87,1,,
62d136262c6a9f949e50eb59,2023-06-16_10h26.22.871,phx_ver10,2022.2.5,Win32,59.97361161,,,,,,,,,,,,125,testing_3,sh2j,ai,sh2j_ai,sh2j_1_aishai.wav,sh2j_1_aishai.wav,,TRUE,FALSE,,,,,,,,,,,,,,f,0.0172,space,0.2087,,,,,,,,0,27,27,124,1,,
62d136262c6a9f949e50eb59,2023-06-16_10h26.22.871,phx_ver10,2022.2.5,Win32,59.97361161,,,,,,,,,,,,95,testing_3,j2x,i,j2x_i,j2x_1_iji.wav,j2x_8_ixi.wav,,FALSE,FALSE,,,,,,,,,,,,,,f,0.1004,space,0.3668,,,,,,,,0,28,28,94,1,,
62d136262c6a9f949e50eb59,2023-06-16_10h26.22.871,phx_ver10,2022.2.5,Win32,59.97361161,,,,,,,,,,,,114,testing_3,sh2x,ei,sh2x_ei,sh2x_8_eixei.wav,sh2x_8_eixei.wav,,TRUE,FALSE,,,,,,,,,,,,,,f,0.1061,space,0.2341,,,,,,,,0,29,29,113,1,,
62d136262c6a9f949e50eb59,2023-06-16_10h26.22.871,phx_ver10,2022.2.5,Win32,59.97361161,,,,,,,,,,,,92,testing_3,j2x,ei,j2x_ei,j2x_8_eixei.wav,j2x_1_eijei.wav,,FALSE,FALSE,,,,,,,,,,,,,,f,0.0004,space,0.269,,,,,,,,0,30,30,91,1,,
62d136262c6a9f949e50eb59,2023-06-16_10h26.22.871,phx_ver10,2022.2.5,Win32,59.97361161,,,,,,,,,,,,47,testing_3,zh2sh,i,zh2sh_i,zh2sh_1_izhi.wav,zh2sh_8_ishi.wav,,FALSE,FALSE,,,,,,,,,,,,,,f,0.4051,space,0.6498,,,,,,,,0,31,31,46,1,,
62d136262c6a9f949e50eb59,2023-06-16_10h26.22.871,phx_ver10,2022.2.5,Win32,59.97361161,,,,,,,,,,,,35,testing_3,zh2sh,au,zh2sh_au,zh2sh_1_auzhau.wav,zh2sh_8_aushau.wav,,FALSE,FALSE,,,,,,,,,,,,,,j,0.1668,space,0.2911,,,,,,,,0,32,32,34,1,,
62d136262c6a9f949e50eb59,2023-06-16_10h26.22.871,phx_ver10,2022.2.5,Win32,59.97361161,,,,,,,,,,,,84,testing_3,j2x,au,j2x_au,j2x_8_auxau.wav,j2x_1_aujau.wav,,FALSE,FALSE,,,,,,,,,,,,,,f,0.1325,space,0.3202,,,,,,,,0,33,33,83,1,,
62d136262c6a9f949e50eb59,2023-06-16_10h26.22.871,phx_ver10,2022.2.5,Win32,59.97361161,,,,,,,,,,,,16,testing_2,zh2x,ai,zh2x_ai,zh2x_8_aixai.wav,zh2x_1_aizhai.wav,,FALSE,FALSE,,,,,,,,,,,,,,j,0.1076,space,0.2514,,,,,,,,0,34,34,15,1,,
62d136262c6a9f949e50eb59,2023-06-16_10h26.22.871,phx_ver10,2022.2.5,Win32,59.97361161,,,,,,,,,,,,128,testing_3,sh2j,ai,sh2j_ai,sh2j_8_aijai.wav,sh2j_1_aishai.wav,,FALSE,FALSE,,,,,,,,,,,,,,j,0.0756,space,0.1717,,,,,,,,0,35,35,127,1,,
62d136262c6a9f949e50eb59,2023-06-16_10h26.22.871,phx_ver10,2022.2.5,Win32,59.97361161,,,,,,,,,,,,38,testing_3,zh2sh,e,zh2sh_e,zh2sh_8_eshe.wav,zh2sh_8_eshe.wav,,TRUE,FALSE,,,,,,,,,,,,,,f,0.0165,space,0.3838,,,,,,,,0,36,36,37,1,,
62d136262c6a9f949e50eb59,2023-06-16_10h26.22.871,phx_ver10,2022.2.5,Win32,59.97361161,,,,,,,,,,,,102,testing_3,sh2x,ai,sh2x_ai,sh2x_8_aixai.wav,sh2x_8_aixai.wav,,TRUE,FALSE,,,,,,,,,,,,,,f,0.1483,space,0.2914,,,,,,,,0,37,37,101,1,,
62d136262c6a9f949e50eb59,2023-06-16_10h26.22.871,phx_ver10,2022.2.5,Win32,59.97361161,,,,,,,,,,,,116,testing_3,sh2x,ei,sh2x_ei,sh2x_8_eixei.wav,sh2x_1_eishei.wav,,FALSE,FALSE,,,,,,,,,,,,,,f,0.1508,space,0.3049,,,,,,,,0,38,38,115,1,,
62d136262c6a9f949e50eb59,2023-06-16_10h26.22.871,phx_ver10,2022.2.5,Win32,59.97361161,,,,,,,,,,,,107,testing_3,sh2x,au,sh2x_au,sh2x_1_aushau.wav,sh2x_8_auxau.wav,,FALSE,FALSE,,,,,,,,,,,,,,j,0.0821,space,0.2864,,,,,,,,0,39,39,106,1,,
62d136262c6a9f949e50eb59,2023-06-16_10h26.22.871,phx_ver10,2022.2.5,Win32,59.97361161,,,,,,,,,,,,14,testing_2,zh2x,ai,zh2x_ai,zh2x_8_aixai.wav,zh2x_8_aixai.wav,,TRUE,FALSE,,,,,,,,,,,,,,f,0.1865,space,0.3508,,,,,,,,0,40,40,13,1,,
62d136262c6a9f949e50eb59,2023-06-16_10h26.22.871,phx_ver10,2022.2.5,Win32,59.97361161,,,,,,,,,,,,142,testing_3,sh2j,i,sh2j_i,sh2j_8_iji.wav,sh2j_8_iji.wav,,TRUE,FALSE,,,,,,,,,,,,,,f,0.1021,space,0.3256,,,,,,,,0,41,41,141,1,,
62d136262c6a9f949e50eb59,2023-06-16_10h26.22.871,phx_ver10,2022.2.5,Win32,59.97361161,,,,,,,,,,,,86,testing_3,j2x,e,j2x_e,j2x_8_exe.wav,j2x_8_exe.wav,,TRUE,FALSE,,,,,,,,,,,,,,f,0.032,space,0.3205,,,,,,,,0,42,42,85,1,,
62d136262c6a9f949e50eb59,2023-06-16_10h26.22.871,phx_ver10,2022.2.5,Win32,59.97361161,,,,,,,,,,,,99,testing_3,sh2x,a,sh2x_a,sh2x_1_asha.wav,sh2x_8_axa.wav,,FALSE,FALSE,,,,,,,,,,,,,,f,0.2215,space,0.4009,,,,,,,,0,43,43,98,1,,
62d136262c6a9f949e50eb59,2023-06-16_10h26.22.871,phx_ver10,2022.2.5,Win32,59.97361161,,,,,,,,,,,,9,testing_1,zh2x,i,zh2x_i,zh2x_1_izhi.wav,zh2x_1_izhi_copy.wav,,TRUE,TRUE,,,,,,,,,,,,,,f,0.1689,space,0.2925,,,,,,,,0,44,44,8,1,,
62d136262c6a9f949e50eb59,2023-06-16_10h26.22.871,phx_ver10,2022.2.5,Win32,59.97361161,,,,,,,,,,,,6,testing_1,zh2x,e,zh2x_e,zh2x_8_exe.wav,zh2x_8_exe_copy.wav,,TRUE,TRUE,,,,,,,,,,,,,,f,0.1507,space,0.2752,,,,,,,,0,45,45,5,1,,
62d136262c6a9f949e50eb59,2023-06-16_10h26.22.871,phx_ver10,2022.2.5,Win32,59.97361161,,,,,,,,,,,,18,testing_2,zh2x,au,zh2x_au,zh2x_8_auxau.wav,zh2x_8_auxau.wav,,TRUE,FALSE,,,,,,,,,,,,,,f,0.1909,space,0.3019,,,,,,,,0,46,46,17,1,,
62d136262c6a9f949e50eb59,2023-06-16_10h26.22.871,phx_ver10,2022.2.5,Win32,59.97361161,,,,,,,,,,,,39,testing_3,zh2sh,e,zh2sh_e,zh2sh_1_ezhe.wav,zh2sh_8_eshe.wav,,FALSE,FALSE,,,,,,,,,,,,,,f,0.138,space,0.3158,,,,,,,,0,47,47,38,1,,
62d136262c6a9f949e50eb59,2023-06-16_10h26.22.871,phx_ver10,2022.2.5,Win32,59.97361161,,,,,,,,,,,,105,testing_3,sh2x,au,sh2x_au,sh2x_1_aushau.wav,sh2x_1_aushau.wav,,TRUE,FALSE,,,,,,,,,,,,,,f,0.151,space,0.2995,,,,,,,,0,48,48,104,1,,
62d136262c6a9f949e50eb59,2023-06-16_10h26.22.871,phx_ver10,2022.2.5,Win32,59.97361161,,,,,,,,,,,,81,testing_3,j2x,au,j2x_au,j2x_1_aujau.wav,j2x_1_aujau.wav,,TRUE,FALSE,,,,,,,,,,,,,,f,0.0841,space,0.2558,,,,,,,,0,49,49,80,1,,
62d136262c6a9f949e50eb59,2023-06-16_10h26.22.871,phx_ver10,2022.2.5,Win32,59.97361161,,,,,,,,,,,,54,testing_3,zh2j,ai,zh2j_ai,zh2j_8_aijai.wav,zh2j_8_aijai.wav,,TRUE,FALSE,,,,,,,,,,,,,,f,0.1153,space,0.2881,,,,,,,,0,50,50,53,1,,
62d136262c6a9f949e50eb59,2023-06-16_10h26.22.871,phx_ver10,2022.2.5,Win32,59.97361161,,,,,,,,,,,,101,testing_3,sh2x,ai,sh2x_ai,sh2x_1_aishai.wav,sh2x_1_aishai.wav,,TRUE,FALSE,,,,,,,,,,,,,,f,0.0822,space,0.2381,,,,,,,,0,51,51,100,1,,
62d136262c6a9f949e50eb59,2023-06-16_10h26.22.871,phx_ver10,2022.2.5,Win32,59.97361161,,,,,,,,,,,,115,testing_3,sh2x,ei,sh2x_ei,sh2x_1_eishei.wav,sh2x_8_eixei.wav,,FALSE,FALSE,,,,,,,,,,,,,,j,0.5584,space,0.7381,,,,,,,,0,52,52,114,1,,
62d136262c6a9f949e50eb59,2023-06-16_10h26.22.871,phx_ver10,2022.2.5,Win32,59.97361161,,,,,,,,,,,,11,testing_1,zh2x,i,zh2x_i,zh2x_1_izhi.wav,zh2x_8_ixi.wav,,FALSE,TRUE,,,,,,,,,,,,,,j,0.2356,space,0.336,,,,,,,,0,53,53,10,1,,
62d136262c6a9f949e50eb59,2023-06-16_10h26.22.871,phx_ver10,2022.2.5,Win32,59.97361161,,,,,,,,,,,,50,testing_3,zh2j,a,zh2j_a,zh2j_8_aja.wav,zh2j_8_aja.wav,,TRUE,FALSE,,,,,,,,,,,,,,f,0.1505,space,0.2906,,,,,,,,0,54,54,49,1,,
62d136262c6a9f949e50eb59,2023-06-16_10h26.22.871,phx_ver10,2022.2.5,Win32,59.97361161,,,,,,,,,,,,57,testing_3,zh2j,au,zh2j_au,zh2j_1_auzhau.wav,zh2j_1_auzhau.wav,,TRUE,FALSE,,,,,,,,,,,,,,f,0.8344,space,1.0383,,,,,,,,0,55,55,56,1,,
62d136262c6a9f949e50eb59,2023-06-16_10h26.22.871,phx_ver10,2022.2.5,Win32,59.97361161,,,,,,,,,,,,100,testing_3,sh2x,a,sh2x_a,sh2x_8_axa.wav,sh2x_1_asha.wav,,FALSE,FALSE,,,,,,,,,,,,,,j,0.0652,space,0.1719,,,,,,,,0,56,56,99,1,,
62d136262c6a9f949e50eb59,2023-06-16_10h26.22.871,phx_ver10,2022.2.5,Win32,59.97361161,,,,,,,,,,,,89,testing_3,j2x,ei,j2x_ei,j2x_1_eijei.wav,j2x_1_eijei.wav,,TRUE,FALSE,,,,,,,,,,,,,,f,0.1598,space,0.3049,,,,,,,,0,57,57,88,1,,
62d136262c6a9f949e50eb59,2023-06-16_10h26.22.871,phx_ver10,2022.2.5,Win32,59.97361161,,,,,,,,,,,,76,testing_3,j2x,a,j2x_a,j2x_8_axa.wav,j2x_1_aja.wav,,FALSE,FALSE,,,,,,,,,,,,,,f,0.2525,space,0.3838,,,,,,,,0,58,58,75,1,,
62d136262c6a9f949e50eb59,2023-06-16_10h26.22.871,phx_ver10,2022.2.5,Win32,59.97361161,,,,,,,,,,,,111,testing_3,sh2x,e,sh2x_e,sh2x_1_eshe.wav,sh2x_8_exe.wav,,FALSE,FALSE,,,,,,,,,,,,,,f,0.1172,space,0.2751,,,,,,,,0,59,59,110,1,,
62d136262c6a9f949e50eb59,2023-06-16_10h26.22.871,phx_ver10,2022.2.5,Win32,59.97361161,,,,,,,,,,,,12,testing_1,zh2x,i,zh2x_i,zh2x_8_ixi.wav,zh2x_1_izhi.wav,,FALSE,TRUE,,,,,,,,,,,,,,j,0.4831,space,0.6082,,,,,,,,0,60,60,11,1,,
62d136262c6a9f949e50eb59,2023-06-16_10h26.22.871,phx_ver10,2022.2.5,Win32,59.97361161,,,,,,,,,,,,85,testing_3,j2x,e,j2x_e,j2x_1_eje.wav,j2x_1_eje.wav,,TRUE,FALSE,,,,,,,,,,,,,,f,0.1658,space,0.3517,,,,,,,,0,61,61,84,1,,
62d136262c6a9f949e50eb59,2023-06-16_10h26.22.871,phx_ver10,2022.2.5,Win32,59.97361161,,,,,,,,,,,,87,testing_3,j2x,e,j2x_e,j2x_1_eje.wav,j2x_8_exe.wav,,FALSE,FALSE,,,,,,,,,,,,,,j,0.0653,space,0.219,,,,,,,,0,62,62,86,1,,
62d136262c6a9f949e50eb59,2023-06-16_10h26.22.871,phx_ver10,2022.2.5,Win32,59.97361161,,,,,,,,,,,,17,testing_2,zh2x,au,zh2x_au,zh2x_1_auzhau.wav,zh2x_1_auzhau.wav,,TRUE,FALSE,,,,,,,,,,,,,,f,0.1359,space,0.2973,,,,,,,,0,63,63,16,1,,
62d136262c6a9f949e50eb59,2023-06-16_10h26.22.871,phx_ver10,2022.2.5,Win32,59.97361161,,,,,,,,,,,,55,testing_3,zh2j,ai,zh2j_ai,zh2j_1_aizhai.wav,zh2j_8_aijai.wav,,FALSE,FALSE,,,,,,,,,,,,,,f,0.0881,space,0.2672,,,,,,,,0,64,64,54,1,,
62d136262c6a9f949e50eb59,2023-06-16_10h26.22.871,phx_ver10,2022.2.5,Win32,59.97361161,,,,,,,,,,,,46,testing_3,zh2sh,i,zh2sh_i,zh2sh_8_ishi.wav,zh2sh_8_ishi.wav,,TRUE,FALSE,,,,,,,,,,,,,,f,0.1671,space,0.3025,,,,,,,,0,65,65,45,1,,
62d136262c6a9f949e50eb59,2023-06-16_10h26.22.871,phx_ver10,2022.2.5,Win32,59.97361161,,,,,,,,,,,,133,testing_3,sh2j,e,sh2j_e,sh2j_1_eshe.wav,sh2j_1_eshe.wav,,TRUE,FALSE,,,,,,,,,,,,,,f,0.0352,space,0.2261,,,,,,,,0,66,66,132,1,,
62d136262c6a9f949e50eb59,2023-06-16_10h26.22.871,phx_ver10,2022.2.5,Win32,59.97361161,,,,,,,,,,,,91,testing_3,j2x,ei,j2x_ei,j2x_1_eijei.wav,j2x_8_eixei.wav,,FALSE,FALSE,,,,,,,,,,,,,,j,0.45,space,0.5924,,,,,,,,0,67,67,90,1,,
62d136262c6a9f949e50eb59,2023-06-16_10h26.22.871,phx_ver10,2022.2.5,Win32,59.97361161,,,,,,,,,,,,143,testing_3,sh2j,i,sh2j_i,sh2j_1_ishi.wav,sh2j_8_iji.wav,,FALSE,FALSE,,,,,,,,,,,,,,f,0.2023,space,0.9533,,,,,,,,0,68,68,142,1,,
62d136262c6a9f949e50eb59,2023-06-16_10h26.22.871,phx_ver10,2022.2.5,Win32,59.97361161,,,,,,,,,,,,93,testing_3,j2x,i,j2x_i,j2x_1_iji.wav,j2x_1_iji.wav,,TRUE,FALSE,,,,,,,,,,,,,,f,0.1674,space,0.3733,,,,,,,,0,69,69,92,1,,
62d136262c6a9f949e50eb59,2023-06-16_10h26.22.871,phx_ver10,2022.2.5,Win32,59.97361161,,,,,,,,,,,,8,testing_1,zh2x,e,zh2x_e,zh2x_8_exe.wav,zh2x_1_ezhe.wav,,FALSE,TRUE,,,,,,,,,,,,,,j,0.1582,space,0.2704,,,,,,,,0,70,70,7,1,,
62d136262c6a9f949e50eb59,2023-06-16_10h26.22.871,phx_ver10,2022.2.5,Win32,59.97361161,,,,,,,,,,,,30,testing_3,zh2sh,ai,zh2sh_ai,zh2sh_8_aishai.wav,zh2sh_8_aishai.wav,,TRUE,FALSE,,,,,,,,,,,,,,f,0.0742,space,0.2839,,,,,,,,0,71,71,29,1,,
62d136262c6a9f949e50eb59,2023-06-16_10h26.22.871,phx_ver10,2022.2.5,Win32,59.97361161,,,,,,,,,,,,104,testing_3,sh2x,ai,sh2x_ai,sh2x_8_aixai.wav,sh2x_1_aishai.wav,,FALSE,FALSE,,,,,,,,,,,,,,f,0.1018,space,0.2492,,,,,,,,0,72,72,103,1,,
62d136262c6a9f949e50eb59,2023-06-16_10h26.22.871,phx_ver10,2022.2.5,Win32,59.97361161,,,,,,,,,,,,20,testing_2,zh2x,au,zh2x_au,zh2x_8_auxau.wav,zh2x_1_auzhau.wav,,FALSE,FALSE,,,,,,,,,,,,,,j,0.0379,space,0.1834,,,,,,,,0,73,73,19,1,,
62d136262c6a9f949e50eb59,2023-06-16_10h26.22.871,phx_ver10,2022.2.5,Win32,59.97361161,,,,,,,,,,,,94,testing_3,j2x,i,j2x_i,j2x_8_ixi.wav,j2x_8_ixi.wav,,TRUE,FALSE,,,,,,,,,,,,,,f,0.0556,space,0.3269,,,,,,,,0,74,74,93,1,,
62d136262c6a9f949e50eb59,2023-06-16_10h26.22.871,phx_ver10,2022.2.5,Win32,59.97361161,,,,,,,,,,,,27,testing_3,zh2sh,a,zh2sh_a,zh2sh_1_azha.wav,zh2sh_8_asha.wav,,FALSE,FALSE,,,,,,,,,,,,,,j,0.0194,space,0.1689,,,,,,,,0,75,75,26,1,,
62d136262c6a9f949e50eb59,2023-06-16_10h26.22.871,phx_ver10,2022.2.5,Win32,59.97361161,,,,,,,,,,,,15,testing_2,zh2x,ai,zh2x_ai,zh2x_1_aizhai.wav,zh2x_8_aixai.wav,,FALSE,FALSE,,,,,,,,,,,,,,j,0.0822,space,0.2156,,,,,,,,0,76,76,14,1,,
62d136262c6a9f949e50eb59,2023-06-16_10h26.22.871,phx_ver10,2022.2.5,Win32,59.97361161,,,,,,,,,,,,28,testing_3,zh2sh,a,zh2sh_a,zh2sh_8_asha.wav,zh2sh_1_azha.wav,,FALSE,FALSE,,,,,,,,,,,,,,j,0.0036,space,0.1669,,,,,,,,0,77,77,27,1,,
62d136262c6a9f949e50eb59,2023-06-16_10h26.22.871,phx_ver10,2022.2.5,Win32,59.97361161,,,,,,,,,,,,138,testing_3,sh2j,ei,sh2j_ei,sh2j_8_eijei.wav,sh2j_8_eijei.wav,,TRUE,FALSE,,,,,,,,,,,,,,f,0.0528,space,0.2322,,,,,,,,0,78,78,137,1,,
62d136262c6a9f949e50eb59,2023-06-16_10h26.22.871,phx_ver10,2022.2.5,Win32,59.97361161,,,,,,,,,,,,56,testing_3,zh2j,ai,zh2j_ai,zh2j_8_aijai.wav,zh2j_1_aizhai.wav,,FALSE,FALSE,,,,,,,,,,,,,,f,0.9347,space,1.0595,,,,,,,,0,79,79,55,1,,
62d136262c6a9f949e50eb59,2023-06-16_10h26.22.871,phx_ver10,2022.2.5,Win32,59.97361161,,,,,,,,,,,,10,testing_1,zh2x,i,zh2x_i,zh2x_8_ixi.wav,zh2x_8_ixi_copy.wav,,TRUE,TRUE,,,,,,,,,,,,,,f,0.2208,space,0.3527,,,,,,,,0,80,80,9,1,,
62d136262c6a9f949e50eb59,2023-06-16_10h26.22.871,phx_ver10,2022.2.5,Win32,59.97361161,,,,,,,,,,,,90,testing_3,j2x,ei,j2x_ei,j2x_8_eixei.wav,j2x_8_eixei.wav,,TRUE,FALSE,,,,,,,,,,,,,,f,0.5079,space,0.6536,,,,,,,,0,81,81,89,1,,
62d136262c6a9f949e50eb59,2023-06-16_10h26.22.871,phx_ver10,2022.2.5,Win32,59.97361161,,,,,,,,,,,,112,testing_3,sh2x,e,sh2x_e,sh2x_8_exe.wav,sh2x_1_eshe.wav,,FALSE,FALSE,,,,,,,,,,,,,,f,0.1525,space,0.2841,,,,,,,,0,82,82,111,1,,
62d136262c6a9f949e50eb59,2023-06-16_10h26.22.871,phx_ver10,2022.2.5,Win32,59.97361161,,,,,,,,,,,,126,testing_3,sh2j,ai,sh2j_ai,sh2j_8_aijai.wav,sh2j_8_aijai.wav,,TRUE,FALSE,,,,,,,,,,,,,,f,0.2174,space,0.3426,,,,,,,,0,83,83,125,1,,
62d136262c6a9f949e50eb59,2023-06-16_10h26.22.871,phx_ver10,2022.2.5,Win32,59.97361161,,,,,,,,,,,,82,testing_3,j2x,au,j2x_au,j2x_8_auxau.wav,j2x_8_auxau.wav,,TRUE,FALSE,,,,,,,,,,,,,,f,0.1487,space,0.3056,,,,,,,,0,84,84,81,1,,
62d136262c6a9f949e50eb59,2023-06-16_10h26.22.871,phx_ver10,2022.2.5,Win32,59.97361161,,,,,,,,,,,,120,testing_3,sh2x,i,sh2x_i,sh2x_8_ixi.wav,sh2x_1_ishi.wav,,FALSE,FALSE,,,,,,,,,,,,,,f,0.0172,space,0.3512,,,,,,,,0,85,85,119,1,,
62d136262c6a9f949e50eb59,2023-06-16_10h26.22.871,phx_ver10,2022.2.5,Win32,59.97361161,,,,,,,,,,,,137,testing_3,sh2j,ei,sh2j_ei,sh2j_1_eishei.wav,sh2j_1_eishei.wav,,TRUE,FALSE,,,,,,,,,,,,,,f,0.2502,space,0.3922,,,,,,,,0,86,86,136,1,,
62d136262c6a9f949e50eb59,2023-06-16_10h26.22.871,phx_ver10,2022.2.5,Win32,59.97361161,,,,,,,,,,,,34,testing_3,zh2sh,au,zh2sh_au,zh2sh_8_aushau.wav,zh2sh_8_aushau.wav,,TRUE,FALSE,,,,,,,,,,,,,,f,0.1506,space,0.3695,,,,,,,,0,87,87,33,1,,
62d136262c6a9f949e50eb59,2023-06-16_10h26.22.871,phx_ver10,2022.2.5,Win32,59.97361161,,,,,,,,,,,,113,testing_3,sh2x,ei,sh2x_ei,sh2x_1_eishei.wav,sh2x_1_eishei.wav,,TRUE,FALSE,,,,,,,,,,,,,,f,0.1223,space,0.284,,,,,,,,0,88,88,112,1,,
62d136262c6a9f949e50eb59,2023-06-16_10h26.22.871,phx_ver10,2022.2.5,Win32,59.97361161,,,,,,,,,,,,119,testing_3,sh2x,i,sh2x_i,sh2x_1_ishi.wav,sh2x_8_ixi.wav,,FALSE,FALSE,,,,,,,,,,,,,,f,0.3588,space,0.55,,,,,,,,0,89,89,118,1,,
62d136262c6a9f949e50eb59,2023-06-16_10h26.22.871,phx_ver10,2022.2.5,Win32,59.97361161,,,,,,,,,,,,141,testing_3,sh2j,i,sh2j_i,sh2j_1_ishi.wav,sh2j_1_ishi.wav,,TRUE,FALSE,,,,,,,,,,,,,,f,0.1212,space,0.2837,,,,,,,,0,90,90,140,1,,
62d136262c6a9f949e50eb59,2023-06-16_10h26.22.871,phx_ver10,2022.2.5,Win32,59.97361161,,,,,,,,,,,,49,testing_3,zh2j,a,zh2j_a,zh2j_1_azha.wav,zh2j_1_azha.wav,,TRUE,FALSE,,,,,,,,,,,,,,f,0.0684,space,0.2157,,,,,,,,0,91,91,48,1,,
62d136262c6a9f949e50eb59,2023-06-16_10h26.22.871,phx_ver10,2022.2.5,Win32,59.97361161,,,,,,,,,,,,135,testing_3,sh2j,e,sh2j_e,sh2j_1_eshe.wav,sh2j_8_eje.wav,,FALSE,FALSE,,,,,,,,,,,,,,j,0.0852,space,0.2322,,,,,,,,0,92,92,134,1,,
62d136262c6a9f949e50eb59,2023-06-16_10h26.22.871,phx_ver10,2022.2.5,Win32,59.97361161,,,,,,,,,,,,140,testing_3,sh2j,ei,sh2j_ei,sh2j_8_eijei.wav,sh2j_1_eishei.wav,,FALSE,FALSE,,,,,,,,,,,,,,j,0.1318,space,0.2747,,,,,,,,0,93,93,139,1,,
62d136262c6a9f949e50eb59,2023-06-16_10h26.22.871,phx_ver10,2022.2.5,Win32,59.97361161,,,,,,,,,,,,70,testing_3,zh2j,i,zh2j_i,zh2j_8_iji.wav,zh2j_8_iji.wav,,TRUE,FALSE,,,,,,,,,,,,,,f,0.0677,space,0.2428,,,,,,,,0,94,94,69,1,,
62d136262c6a9f949e50eb59,2023-06-16_10h26.22.871,phx_ver10,2022.2.5,Win32,59.97361161,,,,,,,,,,,,37,testing_3,zh2sh,e,zh2sh_e,zh2sh_1_ezhe.wav,zh2sh_1_ezhe.wav,,TRUE,FALSE,,,,,,,,,,,,,,f,0.1493,space,0.2399,,,,,,,,0,95,95,36,1,,
62d136262c6a9f949e50eb59,2023-06-16_10h26.22.871,phx_ver10,2022.2.5,Win32,59.97361161,,,,,,,,,,,,136,testing_3,sh2j,e,sh2j_e,sh2j_8_eje.wav,sh2j_1_eshe.wav,,FALSE,FALSE,,,,,,,,,,,,,,j,0.0519,space,0.169,,,,,,,,0,96,96,135,1,,
62d136262c6a9f949e50eb59,2023-06-16_10h26.22.871,phx_ver10,2022.2.5,Win32,59.97361161,,,,,,,,,,,,26,testing_3,zh2sh,a,zh2sh_a,zh2sh_8_asha.wav,zh2sh_8_asha.wav,,TRUE,FALSE,,,,,,,,,,,,,,f,0.1356,space,0.2597,,,,,,,,0,97,97,25,1,,
62d136262c6a9f949e50eb59,2023-06-16_10h26.22.871,phx_ver10,2022.2.5,Win32,59.97361161,,,,,,,,,,,,1,testing_1,zh2x,a,zh2x_a,zh2x_1_azha.wav,zh2x_1_azha_copy.wav,,TRUE,TRUE,,,,,,,,,,,,,,f,0.1926,space,0.3201,,,,,,,,0,98,98,0,1,,
62d136262c6a9f949e50eb59,2023-06-16_10h26.22.871,phx_ver10,2022.2.5,Win32,59.97361161,,,,,,,,,,,,48,testing_3,zh2sh,i,zh2sh_i,zh2sh_8_ishi.wav,zh2sh_1_izhi.wav,,FALSE,FALSE,,,,,,,,,,,,,,f,0.1694,space,0.3487,,,,,,,,0,99,99,47,1,,
62d136262c6a9f949e50eb59,2023-06-16_10h26.22.871,phx_ver10,2022.2.5,Win32,59.97361161,,,,,,,,,,,,51,testing_3,zh2j,a,zh2j_a,zh2j_1_azha.wav,zh2j_8_aja.wav,,FALSE,FALSE,,,,,,,,,,,,,,f,0.1176,space,0.2673,,,,,,,,0,100,100,50,1,,
62d136262c6a9f949e50eb59,2023-06-16_10h26.22.871,phx_ver10,2022.2.5,Win32,59.97361161,,,,,,,,,,,,61,testing_3,zh2j,e,zh2j_e,zh2j_1_ezhe.wav,zh2j_1_ezhe.wav,,TRUE,FALSE,,,,,,,,,,,,,,f,0.1826,space,0.3711,,,,,,,,0,101,101,60,1,,
62d136262c6a9f949e50eb59,2023-06-16_10h26.22.871,phx_ver10,2022.2.5,Win32,59.97361161,,,,,,,,,,,,2,testing_1,zh2x,a,zh2x_a,zh2x_8_axa.wav,zh2x_8_axa_copy.wav,,TRUE,TRUE,,,,,,,,,,,,,,f,0.093,space,0.3006,,,,,,,,0,102,102,1,1,,
62d136262c6a9f949e50eb59,2023-06-16_10h26.22.871,phx_ver10,2022.2.5,Win32,59.97361161,,,,,,,,,,,,63,testing_3,zh2j,e,zh2j_e,zh2j_1_ezhe.wav,zh2j_8_eje.wav,,FALSE,FALSE,,,,,,,,,,,,,,f,0.0575,space,0.1373,,,,,,,,0,103,103,62,1,,
62d136262c6a9f949e50eb59,2023-06-16_10h26.22.871,phx_ver10,2022.2.5,Win32,59.97361161,,,,,,,,,,,,62,testing_3,zh2j,e,zh2j_e,zh2j_8_eje.wav,zh2j_8_eje.wav,,TRUE,FALSE,,,,,,,,,,,,,,f,0.0749,space,0.2358,,,,,,,,0,104,104,61,1,,
62d136262c6a9f949e50eb59,2023-06-16_10h26.22.871,phx_ver10,2022.2.5,Win32,59.97361161,,,,,,,,,,,,40,testing_3,zh2sh,e,zh2sh_e,zh2sh_8_eshe.wav,zh2sh_1_ezhe.wav,,FALSE,FALSE,,,,,,,,,,,,,,j,0.4588,space,0.5867,,,,,,,,0,105,105,39,1,,
62d136262c6a9f949e50eb59,2023-06-16_10h26.22.871,phx_ver10,2022.2.5,Win32,59.97361161,,,,,,,,,,,,65,testing_3,zh2j,ei,zh2j_ei,zh2j_1_eizhei.wav,zh2j_1_eizhei.wav,,TRUE,FALSE,,,,,,,,,,,,,,f,0.7677,space,0.8932,,,,,,,,0,106,106,64,1,,
62d136262c6a9f949e50eb59,2023-06-16_10h26.22.871,phx_ver10,2022.2.5,Win32,59.97361161,,,,,,,,,,,,144,testing_3,sh2j,i,sh2j_i,sh2j_8_iji.wav,sh2j_1_ishi.wav,,FALSE,FALSE,,,,,,,,,,,,,,j,0.1021,space,0.2561,,,,,,,,0,107,107,143,1,,
62d136262c6a9f949e50eb59,2023-06-16_10h26.22.871,phx_ver10,2022.2.5,Win32,59.97361161,,,,,,,,,,,,52,testing_3,zh2j,a,zh2j_a,zh2j_8_aja.wav,zh2j_1_azha.wav,,FALSE,FALSE,,,,,,,,,,,,,,f,0.1264,space,0.2536,,,,,,,,0,108,108,51,1,,
62d136262c6a9f949e50eb59,2023-06-16_10h26.22.871,phx_ver10,2022.2.5,Win32,59.97361161,,,,,,,,,,,,68,testing_3,zh2j,ei,zh2j_ei,zh2j_8_eijei.wav,zh2j_1_eizhei.wav,,FALSE,FALSE,,,,,,,,,,,,,,f,0.0173,space,0.1876,,,,,,,,0,109,109,67,1,,
62d136262c6a9f949e50eb59,2023-06-16_10h26.22.871,phx_ver10,2022.2.5,Win32,59.97361161,,,,,,,,,,,,98,testing_3,sh2x,a,sh2x_a,sh2x_8_axa.wav,sh2x_8_axa.wav,,TRUE,FALSE,,,,,,,,,,,,,,f,0.1245,space,0.2849,,,,,,,,0,110,110,97,1,,
62d136262c6a9f949e50eb59,2023-06-16_10h26.22.871,phx_ver10,2022.2.5,Win32,59.97361161,,,,,,,,,,,,69,testing_3,zh2j,i,zh2j_i,zh2j_1_izhi.wav,zh2j_1_izhi.wav,,TRUE,FALSE,,,,,,,,,,,,,,f,0.1544,space,0.2509,,,,,,,,0,111,111,68,1,,
62d136262c6a9f949e50eb59,2023-06-16_10h26.22.871,phx_ver10,2022.2.5,Win32,59.97361161,,,,,,,,,,,,97,testing_3,sh2x,a,sh2x_a,sh2x_1_asha.wav,sh2x_1_asha.wav,,TRUE,FALSE,,,,,,,,,,,,,,f,0.0892,space,0.2177,,,,,,,,0,112,112,96,1,,
62d136262c6a9f949e50eb59,2023-06-16_10h26.22.871,phx_ver10,2022.2.5,Win32,59.97361161,,,,,,,,,,,,110,testing_3,sh2x,e,sh2x_e,sh2x_8_exe.wav,sh2x_8_exe.wav,,TRUE,FALSE,,,,,,,,,,,,,,f,0.1695,space,0.3184,,,,,,,,0,113,113,109,1,,
62d136262c6a9f949e50eb59,2023-06-16_10h26.22.871,phx_ver10,2022.2.5,Win32,59.97361161,,,,,,,,,,,,22,testing_2,zh2x,ei,zh2x_ei,zh2x_8_eixei.wav,zh2x_8_eixei.wav,,TRUE,FALSE,,,,,,,,,,,,,,f,0.1835,space,0.3399,,,,,,,,0,114,114,21,1,,
62d136262c6a9f949e50eb59,2023-06-16_10h26.22.871,phx_ver10,2022.2.5,Win32,59.97361161,,,,,,,,,,,,72,testing_3,zh2j,i,zh2j_i,zh2j_8_iji.wav,zh2j_1_izhi.wav,,FALSE,FALSE,,,,,,,,,,,,,,f,0.0489,space,0.2225,,,,,,,,0,115,115,71,1,,
62d136262c6a9f949e50eb59,2023-06-16_10h26.22.871,phx_ver10,2022.2.5,Win32,59.97361161,,,,,,,,,,,,4,testing_1,zh2x,a,zh2x_a,zh2x_8_axa.wav,zh2x_1_azha.wav,,FALSE,TRUE,,,,,,,,,,,,,,j,0.1591,space,0.2877,,,,,,,,0,116,116,3,1,,
62d136262c6a9f949e50eb59,2023-06-16_10h26.22.871,phx_ver10,2022.2.5,Win32,59.97361161,,,,,,,,,,,,73,testing_3,j2x,a,j2x_a,j2x_1_aja.wav,j2x_1_aja.wav,,TRUE,FALSE,,,,,,,,,,,,,,f,0.443,space,0.5872,,,,,,,,0,117,117,72,1,,
62d136262c6a9f949e50eb59,2023-06-16_10h26.22.871,phx_ver10,2022.2.5,Win32,59.97361161,,,,,,,,,,,,83,testing_3,j2x,au,j2x_au,j2x_1_aujau.wav,j2x_8_auxau.wav,,FALSE,FALSE,,,,,,,,,,,,,,j,0.2352,space,0.3492,,,,,,,,0,118,118,82,1,,
62d136262c6a9f949e50eb59,2023-06-16_10h26.22.871,phx_ver10,2022.2.5,Win32,59.97361161,,,,,,,,,,,,45,testing_3,zh2sh,i,zh2sh_i,zh2sh_1_izhi.wav,zh2sh_1_izhi.wav,,TRUE,FALSE,,,,,,,,,,,,,,f,0.0538,space,0.2503,,,,,,,,0,119,119,44,1,,
62d136262c6a9f949e50eb59,2023-06-16_10h26.22.871,phx_ver10,2022.2.5,Win32,59.97361161,,,,,,,,,,,,71,testing_3,zh2j,i,zh2j_i,zh2j_1_izhi.wav,zh2j_8_iji.wav,,FALSE,FALSE,,,,,,,,,,,,,,f,0.1323,space,0.284,,,,,,,,0,120,120,70,1,,
62d136262c6a9f949e50eb59,2023-06-16_10h26.22.871,phx_ver10,2022.2.5,Win32,59.97361161,,,,,,,,,,,,77,testing_3,j2x,ai,j2x_ai,j2x_1_aijai.wav,j2x_1_aijai.wav,,TRUE,FALSE,,,,,,,,,,,,,,f,0.1672,space,0.2561,,,,,,,,0,121,121,76,1,,
62d136262c6a9f949e50eb59,2023-06-16_10h26.22.871,phx_ver10,2022.2.5,Win32,59.97361161,,,,,,,,,,,,121,testing_3,sh2j,a,sh2j_a,sh2j_1_asha.wav,sh2j_1_asha.wav,,TRUE,FALSE,,,,,,,,,,,,,,f,0.1156,space,0.3824,,,,,,,,0,122,122,120,1,,
62d136262c6a9f949e50eb59,2023-06-16_10h26.22.871,phx_ver10,2022.2.5,Win32,59.97361161,,,,,,,,,,,,19,testing_2,zh2x,au,zh2x_au,zh2x_1_auzhau.wav,zh2x_8_auxau.wav,,FALSE,FALSE,,,,,,,,,,,,,,j,0.1528,space,0.2353,,,,,,,,0,123,123,18,1,,
62d136262c6a9f949e50eb59,2023-06-16_10h26.22.871,phx_ver10,2022.2.5,Win32,59.97361161,,,,,,,,,,,,124,testing_3,sh2j,a,sh2j_a,sh2j_8_aja.wav,sh2j_1_asha.wav,,FALSE,FALSE,,,,,,,,,,,,,,j,0.0704,space,0.2347,,,,,,,,0,124,124,123,1,,
62d136262c6a9f949e50eb59,2023-06-16_10h26.22.871,phx_ver10,2022.2.5,Win32,59.97361161,,,,,,,,,,,,33,testing_3,zh2sh,au,zh2sh_au,zh2sh_1_auzhau.wav,zh2sh_1_auzhau.wav,,TRUE,FALSE,,,,,,,,,,,,,,f,0.0231,space,0.2171,,,,,,,,0,125,125,32,1,,
62d136262c6a9f949e50eb59,2023-06-16_10h26.22.871,phx_ver10,2022.2.5,Win32,59.97361161,,,,,,,,,,,,74,testing_3,j2x,a,j2x_a,j2x_8_axa.wav,j2x_8_axa.wav,,TRUE,FALSE,,,,,,,,,,,,,,f,0.1174,space,0.3083,,,,,,,,0,126,126,73,1,,
62d136262c6a9f949e50eb59,2023-06-16_10h26.22.871,phx_ver10,2022.2.5,Win32,59.97361161,,,,,,,,,,,,78,testing_3,j2x,ai,j2x_ai,j2x_8_aixai.wav,j2x_8_aixai.wav,,TRUE,FALSE,,,,,,,,,,,,,,f,0.1501,space,0.3068,,,,,,,,0,127,127,77,1,,
62d136262c6a9f949e50eb59,2023-06-16_10h26.22.871,phx_ver10,2022.2.5,Win32,59.97361161,,,,,,,,,,,,129,testing_3,sh2j,au,sh2j_au,sh2j_1_aushau.wav,sh2j_1_aushau.wav,,TRUE,FALSE,,,,,,,,,,,,,,f,0.2204,space,0.3827,,,,,,,,0,128,128,128,1,,
62d136262c6a9f949e50eb59,2023-06-16_10h26.22.871,phx_ver10,2022.2.5,Win32,59.97361161,,,,,,,,,,,,75,testing_3,j2x,a,j2x_a,j2x_1_aja.wav,j2x_8_axa.wav,,FALSE,FALSE,,,,,,,,,,,,,,f,0.2324,space,0.3747,,,,,,,,0,129,129,74,1,,
62d136262c6a9f949e50eb59,2023-06-16_10h26.22.871,phx_ver10,2022.2.5,Win32,59.97361161,,,,,,,,,,,,130,testing_3,sh2j,au,sh2j_au,sh2j_8_aujau.wav,sh2j_8_aujau.wav,,TRUE,FALSE,,,,,,,,,,,,,,f,0.0667,space,0.185,,,,,,,,0,130,130,129,1,,
62d136262c6a9f949e50eb59,2023-06-16_10h26.22.871,phx_ver10,2022.2.5,Win32,59.97361161,,,,,,,,,,,,58,testing_3,zh2j,au,zh2j_au,zh2j_8_aujau.wav,zh2j_8_aujau.wav,,TRUE,FALSE,,,,,,,,,,,,,,f,0.1325,space,0.2578,,,,,,,,0,131,131,57,1,,
62d136262c6a9f949e50eb59,2023-06-16_10h26.22.871,phx_ver10,2022.2.5,Win32,59.97361161,,,,,,,,,,,,41,testing_3,zh2sh,ei,zh2sh_ei,zh2sh_1_eizhei.wav,zh2sh_1_eizhei.wav,,TRUE,FALSE,,,,,,,,,,,,,,f,0.0981,space,0.2384,,,,,,,,0,132,132,40,1,,
62d136262c6a9f949e50eb59,2023-06-16_10h26.22.871,phx_ver10,2022.2.5,Win32,59.97361161,,,,,,,,,,,,24,testing_2,zh2x,ei,zh2x_ei,zh2x_8_eixei.wav,zh2x_1_eizhei.wav,,FALSE,FALSE,,,,,,,,,,,,,,f,0.1003,space,0.237,,,,,,,,0,133,133,23,1,,
62d136262c6a9f949e50eb59,2023-06-16_10h26.22.871,phx_ver10,2022.2.5,Win32,59.97361161,,,,,,,,,,,,7,testing_1,zh2x,e,zh2x_e,zh2x_1_ezhe.wav,zh2x_8_exe.wav,,FALSE,TRUE,,,,,,,,,,,,,,f,0.1742,space,0.269,,,,,,,,0,134,134,6,1,,
62d136262c6a9f949e50eb59,2023-06-16_10h26.22.871,phx_ver10,2022.2.5,Win32,59.97361161,,,,,,,,,,,,59,testing_3,zh2j,au,zh2j_au,zh2j_1_auzhau.wav,zh2j_8_aujau.wav,,FALSE,FALSE,,,,,,,,,,,,,,f,0.0184,space,0.1401,,,,,,,,0,135,135,58,1,,
62d136262c6a9f949e50eb59,2023-06-16_10h26.22.871,phx_ver10,2022.2.5,Win32,59.97361161,,,,,,,,,,,,132,testing_3,sh2j,au,sh2j_au,sh2j_8_aujau.wav,sh2j_1_aushau.wav,,FALSE,FALSE,,,,,,,,,,,,,,j,0.067,space,0.1748,,,,,,,,0,136,136,131,1,,
62d136262c6a9f949e50eb59,2023-06-16_10h26.22.871,phx_ver10,2022.2.5,Win32,59.97361161,,,,,,,,,,,,5,testing_1,zh2x,e,zh2x_e,zh2x_1_ezhe.wav,zh2x_1_ezhe_copy.wav,,TRUE,TRUE,,,,,,,,,,,,,,f,0.0003,space,0.1157,,,,,,,,0,137,137,4,1,,
62d136262c6a9f949e50eb59,2023-06-16_10h26.22.871,phx_ver10,2022.2.5,Win32,59.97361161,,,,,,,,,,,,64,testing_3,zh2j,e,zh2j_e,zh2j_8_eje.wav,zh2j_1_ezhe.wav,,FALSE,FALSE,,,,,,,,,,,,,,f,0.0214,space,0.1669,,,,,,,,0,138,138,63,1,,
62d136262c6a9f949e50eb59,2023-06-16_10h26.22.871,phx_ver10,2022.2.5,Win32,59.97361161,,,,,,,,,,,,123,testing_3,sh2j,a,sh2j_a,sh2j_1_asha.wav,sh2j_8_aja.wav,,FALSE,FALSE,,,,,,,,,,,,,,j,0.2663,space,0.358,,,,,,,,0,139,139,122,1,,
62d136262c6a9f949e50eb59,2023-06-16_10h26.22.871,phx_ver10,2022.2.5,Win32,59.97361161,,,,,,,,,,,,36,testing_3,zh2sh,au,zh2sh_au,zh2sh_8_aushau.wav,zh2sh_1_auzhau.wav,,FALSE,FALSE,,,,,,,,,,,,,,j,0.0518,space,0.1523,,,,,,,,0,140,140,35,1,,
62d136262c6a9f949e50eb59,2023-06-16_10h26.22.871,phx_ver10,2022.2.5,Win32,59.97361161,,,,,,,,,,,,96,testing_3,j2x,i,j2x_i,j2x_8_ixi.wav,j2x_1_iji.wav,,FALSE,FALSE,,,,,,,,,,,,,,j,0.0498,space,0.2007,,,,,,,,0,141,141,95,1,,
62d136262c6a9f949e50eb59,2023-06-16_10h26.22.871,phx_ver10,2022.2.5,Win32,59.97361161,,,,,,,,,,,,66,testing_3,zh2j,ei,zh2j_ei,zh2j_8_eijei.wav,zh2j_8_eijei.wav,,TRUE,FALSE,,,,,,,,,,,,,,f,0.0822,space,0.1657,,,,,,,,0,142,142,65,1,,
62d136262c6a9f949e50eb59,2023-06-16_10h26.22.871,phx_ver10,2022.2.5,Win32,59.97361161,,,,,,,,,,,,134,testing_3,sh2j,e,sh2j_e,sh2j_8_eje.wav,sh2j_8_eje.wav,,TRUE,FALSE,,,,,,,,,,,,,,f,0.0523,space,0.1824,,,,,,,,0,143,143,133,1,,
62d136262c6a9f949e50eb59,2023-06-16_10h26.22.871,phx_ver10,2022.2.5,Win32,59.97361161,,,,,,,,,,,,,,,,,,,,,,,,,,,,,,,,,,,,,,,,,,,,,,,,,,,space,2.0907
