participant,date,expName,psychopyVersion,OS,frameRate,space_1.keys,space_1.rt,space_2.keys,space_2.rt,space_train.keys,space_train.rt,training.thisRepN,training.thisTrialN,training.thisN,training.thisIndex,training.ran,token_id,task,continuum,vowel,series,sound_1,sound_2,img,same,trained,FJ_attn.keys,FJ_attn.rt,space_attn.keys,space_attn.rt,if_attn_test.thisRepN,if_attn_test.thisTrialN,if_attn_test.thisN,if_attn_test.thisIndex,if_attn_test.ran,space_trans_1.keys,space_trans_1.rt,space_trans_11.keys,space_trans_11.rt,FJ_test.keys,FJ_test.rt,space_test.keys,space_test.rt,testing_pre.thisRepN,testing_pre.thisTrialN,testing_pre.thisN,testing_pre.thisIndex,testing_pre.ran,space_trans_2.keys,space_trans_2.rt,testing_all.thisRepN,testing_all.thisTrialN,testing_all.thisN,testing_all.thisIndex,testing_all.ran,space_ending.keys,space_ending.rt
631484e678fa2ffd8550a079,2023-06-16_09h46.53.027,phx_ver10,2022.2.5,Win32,59.9880024,,,,,,,,,,,,,,,,,,,,,,,,,,,,,,,,,,,,,,,,,,,,,,,,,,,,
631484e678fa2ffd8550a079,2023-06-16_09h46.53.027,phx_ver10,2022.2.5,Win32,59.9880024,space,0.8306,,,,,,,,,,,,,,,,,,,,,,,,,,,,,,,,,,,,,,,,,,,,,,,,,,
631484e678fa2ffd8550a079,2023-06-16_09h46.53.027,phx_ver10,2022.2.5,Win32,59.9880024,,,space,2.1352,,,,,,,,,,,,,,,,,,,,,,,,,,,,,,,,,,,,,,,,,,,,,,,,
631484e678fa2ffd8550a079,2023-06-16_09h46.53.027,phx_ver10,2022.2.5,Win32,59.9880024,,,,,space,1.764,0,0,0,1,1,2,training,zh2x,a,zh2x_a,zh2x_2_azha.wav,,azha.jpg,,,,,,,,,,,,,,,,,,,,,,,,,,,,,,,,,
631484e678fa2ffd8550a079,2023-06-16_09h46.53.027,phx_ver10,2022.2.5,Win32,59.9880024,,,,,space,1.0519,0,1,1,9,1,10,training,zh2x,a,zh2x_a,zh2x_6_axa.wav,,axa.jpg,,,,,,,,,,,,,,,,,,,,,,,,,,,,,,,,,
631484e678fa2ffd8550a079,2023-06-16_09h46.53.027,phx_ver10,2022.2.5,Win32,59.9880024,,,,,space,0.7673,0,2,2,26,1,27,training,zh2x,e,zh2x_e,zh2x_6_exe.wav,,exe.jpg,,,,,,,,,,,,,,,,,,,,,,,,,,,,,,,,,
631484e678fa2ffd8550a079,2023-06-16_09h46.53.027,phx_ver10,2022.2.5,Win32,59.9880024,,,,,space,0.251,0,3,3,15,1,16,training,zh2x,a,zh2x_a,zh2x_8_axa.wav,,axa.jpg,,,,,,,,,,,,,,,,,,,,,,,,,,,,,,,,,
631484e678fa2ffd8550a079,2023-06-16_09h46.53.027,phx_ver10,2022.2.5,Win32,59.9880024,,,,,space,0.1518,0,4,4,17,1,18,training,zh2x,e,zh2x_e,zh2x_2_ezhe.wav,,ezhe.jpg,,,,,,,,,,,,,,,,,,,,,,,,,,,,,,,,,
631484e678fa2ffd8550a079,2023-06-16_09h46.53.027,phx_ver10,2022.2.5,Win32,59.9880024,,,,,space,1.0211,0,5,5,43,1,44,training,zh2x,i,zh2x_i,zh2x_7_ixi.wav,,ixi.jpg,,,,,,,,,,,,,,,,,,,,,,,,,,,,,,,,,
631484e678fa2ffd8550a079,2023-06-16_09h46.53.027,phx_ver10,2022.2.5,Win32,59.9880024,,,,,,,,,,,,,attn_test,,,,zh2x_1_ezhe.wav,zh2x_8_axa.wav,axa.jpg,RIGHT,,f,3.8163,space,4.4498,0,0,0,0,1,,,,,,,,,,,,,,,,,,,,,,
631484e678fa2ffd8550a079,2023-06-16_09h46.53.027,phx_ver10,2022.2.5,Win32,59.9880024,,,,,space,1.5721,0,6,6,27,1,28,training,zh2x,e,zh2x_e,zh2x_7_exe.wav,,exe.jpg,,,,,,,,,,,,,,,,,,,,,,,,,,,,,,,,,
631484e678fa2ffd8550a079,2023-06-16_09h46.53.027,phx_ver10,2022.2.5,Win32,59.9880024,,,,,space,1.1349,0,7,7,45,1,46,training,zh2x,i,zh2x_i,zh2x_7_ixi.wav,,ixi.jpg,,,,,,,,,,,,,,,,,,,,,,,,,,,,,,,,,
631484e678fa2ffd8550a079,2023-06-16_09h46.53.027,phx_ver10,2022.2.5,Win32,59.9880024,,,,,space,0.5134,0,8,8,22,1,23,training,zh2x,e,zh2x_e,zh2x_3_ezhe.wav,,ezhe.jpg,,,,,,,,,,,,,,,,,,,,,,,,,,,,,,,,,
631484e678fa2ffd8550a079,2023-06-16_09h46.53.027,phx_ver10,2022.2.5,Win32,59.9880024,,,,,space,0.0676,0,9,9,12,1,13,training,zh2x,a,zh2x_a,zh2x_7_axa.wav,,axa.jpg,,,,,,,,,,,,,,,,,,,,,,,,,,,,,,,,,
631484e678fa2ffd8550a079,2023-06-16_09h46.53.027,phx_ver10,2022.2.5,Win32,59.9880024,,,,,space,0.6019,0,10,10,10,1,11,training,zh2x,a,zh2x_a,zh2x_6_axa.wav,,axa.jpg,,,,,,,,,,,,,,,,,,,,,,,,,,,,,,,,,
631484e678fa2ffd8550a079,2023-06-16_09h46.53.027,phx_ver10,2022.2.5,Win32,59.9880024,,,,,space,0.1345,0,11,11,19,1,20,training,zh2x,e,zh2x_e,zh2x_2_ezhe.wav,,ezhe.jpg,,,,,,,,,,,,,,,,,,,,,,,,,,,,,,,,,
631484e678fa2ffd8550a079,2023-06-16_09h46.53.027,phx_ver10,2022.2.5,Win32,59.9880024,,,,,,,,,,,,,attn_test,,,,zh2x_8_exe.wav,zh2x_1_ezhe.wav,ezhe.jpg,RIGHT,,f,1.5177,space,2.6843,0,0,0,0,1,,,,,,,,,,,,,,,,,,,,,,
631484e678fa2ffd8550a079,2023-06-16_09h46.53.027,phx_ver10,2022.2.5,Win32,59.9880024,,,,,space,0.0852,0,12,12,2,1,3,training,zh2x,a,zh2x_a,zh2x_2_azha.wav,,azha.jpg,,,,,,,,,,,,,,,,,,,,,,,,,,,,,,,,,
631484e678fa2ffd8550a079,2023-06-16_09h46.53.027,phx_ver10,2022.2.5,Win32,59.9880024,,,,,space,0.0338,0,13,13,21,1,22,training,zh2x,e,zh2x_e,zh2x_3_ezhe.wav,,ezhe.jpg,,,,,,,,,,,,,,,,,,,,,,,,,,,,,,,,,
631484e678fa2ffd8550a079,2023-06-16_09h46.53.027,phx_ver10,2022.2.5,Win32,59.9880024,,,,,space,0.5675,0,14,14,30,1,31,training,zh2x,e,zh2x_e,zh2x_7_exe.wav,,exe.jpg,,,,,,,,,,,,,,,,,,,,,,,,,,,,,,,,,
631484e678fa2ffd8550a079,2023-06-16_09h46.53.027,phx_ver10,2022.2.5,Win32,59.9880024,,,,,space,0.5337,0,15,15,33,1,34,training,zh2x,i,zh2x_i,zh2x_2_izhi.wav,,izhi.jpg,,,,,,,,,,,,,,,,,,,,,,,,,,,,,,,,,
631484e678fa2ffd8550a079,2023-06-16_09h46.53.027,phx_ver10,2022.2.5,Win32,59.9880024,,,,,space,0.434,0,16,16,46,1,47,training,zh2x,i,zh2x_i,zh2x_7_ixi.wav,,ixi.jpg,,,,,,,,,,,,,,,,,,,,,,,,,,,,,,,,,
631484e678fa2ffd8550a079,2023-06-16_09h46.53.027,phx_ver10,2022.2.5,Win32,59.9880024,,,,,space,0.4573,0,17,17,42,1,43,training,zh2x,i,zh2x_i,zh2x_6_ixi.wav,,ixi.jpg,,,,,,,,,,,,,,,,,,,,,,,,,,,,,,,,,
631484e678fa2ffd8550a079,2023-06-16_09h46.53.027,phx_ver10,2022.2.5,Win32,59.9880024,,,,,,,,,,,,,attn_test,,,,zh2x_1_izhi.wav,zh2x_8_exe.wav,exe.jpg,RIGHT,,j,0.4007,space,1.2534,0,0,0,0,1,,,,,,,,,,,,,,,,,,,,,,
631484e678fa2ffd8550a079,2023-06-16_09h46.53.027,phx_ver10,2022.2.5,Win32,59.9880024,,,,,space,0.12,0,18,18,18,1,19,training,zh2x,e,zh2x_e,zh2x_2_ezhe.wav,,ezhe.jpg,,,,,,,,,,,,,,,,,,,,,,,,,,,,,,,,,
631484e678fa2ffd8550a079,2023-06-16_09h46.53.027,phx_ver10,2022.2.5,Win32,59.9880024,,,,,space,0.5499,0,19,19,39,1,40,training,zh2x,i,zh2x_i,zh2x_4_izhi.wav,,izhi.jpg,,,,,,,,,,,,,,,,,,,,,,,,,,,,,,,,,
631484e678fa2ffd8550a079,2023-06-16_09h46.53.027,phx_ver10,2022.2.5,Win32,59.9880024,,,,,space,0.4531,0,20,20,6,1,7,training,zh2x,a,zh2x_a,zh2x_3_azha.wav,,azha.jpg,,,,,,,,,,,,,,,,,,,,,,,,,,,,,,,,,
631484e678fa2ffd8550a079,2023-06-16_09h46.53.027,phx_ver10,2022.2.5,Win32,59.9880024,,,,,space,0.5834,0,21,21,47,1,48,training,zh2x,i,zh2x_i,zh2x_8_ixi.wav,,ixi.jpg,,,,,,,,,,,,,,,,,,,,,,,,,,,,,,,,,
631484e678fa2ffd8550a079,2023-06-16_09h46.53.027,phx_ver10,2022.2.5,Win32,59.9880024,,,,,space,0.0182,0,22,22,4,1,5,training,zh2x,a,zh2x_a,zh2x_2_azha.wav,,azha.jpg,,,,,,,,,,,,,,,,,,,,,,,,,,,,,,,,,
631484e678fa2ffd8550a079,2023-06-16_09h46.53.027,phx_ver10,2022.2.5,Win32,59.9880024,,,,,space,0.4007,0,23,23,14,1,15,training,zh2x,a,zh2x_a,zh2x_7_axa.wav,,axa.jpg,,,,,,,,,,,,,,,,,,,,,,,,,,,,,,,,,
631484e678fa2ffd8550a079,2023-06-16_09h46.53.027,phx_ver10,2022.2.5,Win32,59.9880024,,,,,,,,,,,,,attn_test,,,,zh2x_8_ixi.wav,zh2x_8_exe.wav,ixi.jpg,LEFT,,f,0.4404,space,0.8696,0,0,0,0,1,,,,,,,,,,,,,,,,,,,,,,
631484e678fa2ffd8550a079,2023-06-16_09h46.53.027,phx_ver10,2022.2.5,Win32,59.9880024,,,,,space,0.4838,0,24,24,37,1,38,training,zh2x,i,zh2x_i,zh2x_3_izhi.wav,,izhi.jpg,,,,,,,,,,,,,,,,,,,,,,,,,,,,,,,,,
631484e678fa2ffd8550a079,2023-06-16_09h46.53.027,phx_ver10,2022.2.5,Win32,59.9880024,,,,,space,0.3478,0,25,25,20,1,21,training,zh2x,e,zh2x_e,zh2x_2_ezhe.wav,,ezhe.jpg,,,,,,,,,,,,,,,,,,,,,,,,,,,,,,,,,
631484e678fa2ffd8550a079,2023-06-16_09h46.53.027,phx_ver10,2022.2.5,Win32,59.9880024,,,,,space,0.5894,0,26,26,25,1,26,training,zh2x,e,zh2x_e,zh2x_6_exe.wav,,exe.jpg,,,,,,,,,,,,,,,,,,,,,,,,,,,,,,,,,
631484e678fa2ffd8550a079,2023-06-16_09h46.53.027,phx_ver10,2022.2.5,Win32,59.9880024,,,,,space,0.2174,0,27,27,28,1,29,training,zh2x,e,zh2x_e,zh2x_7_exe.wav,,exe.jpg,,,,,,,,,,,,,,,,,,,,,,,,,,,,,,,,,
631484e678fa2ffd8550a079,2023-06-16_09h46.53.027,phx_ver10,2022.2.5,Win32,59.9880024,,,,,space,0.3843,0,28,28,41,1,42,training,zh2x,i,zh2x_i,zh2x_6_ixi.wav,,ixi.jpg,,,,,,,,,,,,,,,,,,,,,,,,,,,,,,,,,
631484e678fa2ffd8550a079,2023-06-16_09h46.53.027,phx_ver10,2022.2.5,Win32,59.9880024,,,,,space,0.315,0,29,29,34,1,35,training,zh2x,i,zh2x_i,zh2x_2_izhi.wav,,izhi.jpg,,,,,,,,,,,,,,,,,,,,,,,,,,,,,,,,,
631484e678fa2ffd8550a079,2023-06-16_09h46.53.027,phx_ver10,2022.2.5,Win32,59.9880024,,,,,,,,,,,,,attn_test,,,,zh2x_1_ezhe.wav,zh2x_1_izhi.wav,izhi.jpg,RIGHT,,j,0.7081,space,1.524,0,0,0,0,1,,,,,,,,,,,,,,,,,,,,,,
631484e678fa2ffd8550a079,2023-06-16_09h46.53.027,phx_ver10,2022.2.5,Win32,59.9880024,,,,,space,0.421,0,30,30,38,1,39,training,zh2x,i,zh2x_i,zh2x_3_izhi.wav,,izhi.jpg,,,,,,,,,,,,,,,,,,,,,,,,,,,,,,,,,
631484e678fa2ffd8550a079,2023-06-16_09h46.53.027,phx_ver10,2022.2.5,Win32,59.9880024,,,,,space,0.1689,0,31,31,35,1,36,training,zh2x,i,zh2x_i,zh2x_2_izhi.wav,,izhi.jpg,,,,,,,,,,,,,,,,,,,,,,,,,,,,,,,,,
631484e678fa2ffd8550a079,2023-06-16_09h46.53.027,phx_ver10,2022.2.5,Win32,59.9880024,,,,,space,0.3363,0,32,32,11,1,12,training,zh2x,a,zh2x_a,zh2x_7_axa.wav,,axa.jpg,,,,,,,,,,,,,,,,,,,,,,,,,,,,,,,,,
631484e678fa2ffd8550a079,2023-06-16_09h46.53.027,phx_ver10,2022.2.5,Win32,59.9880024,,,,,space,0.2535,0,33,33,3,1,4,training,zh2x,a,zh2x_a,zh2x_2_azha.wav,,azha.jpg,,,,,,,,,,,,,,,,,,,,,,,,,,,,,,,,,
631484e678fa2ffd8550a079,2023-06-16_09h46.53.027,phx_ver10,2022.2.5,Win32,59.9880024,,,,,space,0.0006,0,34,34,31,1,32,training,zh2x,e,zh2x_e,zh2x_8_exe.wav,,exe.jpg,,,,,,,,,,,,,,,,,,,,,,,,,,,,,,,,,
631484e678fa2ffd8550a079,2023-06-16_09h46.53.027,phx_ver10,2022.2.5,Win32,59.9880024,,,,,space,0.1676,0,35,35,16,1,17,training,zh2x,e,zh2x_e,zh2x_1_ezhe.wav,,ezhe.jpg,,,,,,,,,,,,,,,,,,,,,,,,,,,,,,,,,
631484e678fa2ffd8550a079,2023-06-16_09h46.53.027,phx_ver10,2022.2.5,Win32,59.9880024,,,,,,,,,,,,,attn_test,,,,zh2x_8_axa.wav,zh2x_1_izhi.wav,izhi.jpg,RIGHT,,j,0.8026,space,1.3368,0,0,0,0,1,,,,,,,,,,,,,,,,,,,,,,
631484e678fa2ffd8550a079,2023-06-16_09h46.53.027,phx_ver10,2022.2.5,Win32,59.9880024,,,,,space,0.123,0,36,36,5,1,6,training,zh2x,a,zh2x_a,zh2x_3_azha.wav,,azha.jpg,,,,,,,,,,,,,,,,,,,,,,,,,,,,,,,,,
631484e678fa2ffd8550a079,2023-06-16_09h46.53.027,phx_ver10,2022.2.5,Win32,59.9880024,,,,,space,0.3227,0,37,37,36,1,37,training,zh2x,i,zh2x_i,zh2x_2_izhi.wav,,izhi.jpg,,,,,,,,,,,,,,,,,,,,,,,,,,,,,,,,,
631484e678fa2ffd8550a079,2023-06-16_09h46.53.027,phx_ver10,2022.2.5,Win32,59.9880024,,,,,space,0.0211,0,38,38,29,1,30,training,zh2x,e,zh2x_e,zh2x_7_exe.wav,,exe.jpg,,,,,,,,,,,,,,,,,,,,,,,,,,,,,,,,,
631484e678fa2ffd8550a079,2023-06-16_09h46.53.027,phx_ver10,2022.2.5,Win32,59.9880024,,,,,space,0.2172,0,39,39,23,1,24,training,zh2x,e,zh2x_e,zh2x_4_ezhe.wav,,ezhe.jpg,,,,,,,,,,,,,,,,,,,,,,,,,,,,,,,,,
631484e678fa2ffd8550a079,2023-06-16_09h46.53.027,phx_ver10,2022.2.5,Win32,59.9880024,,,,,space,0.361,0,40,40,13,1,14,training,zh2x,a,zh2x_a,zh2x_7_axa.wav,,axa.jpg,,,,,,,,,,,,,,,,,,,,,,,,,,,,,,,,,
631484e678fa2ffd8550a079,2023-06-16_09h46.53.027,phx_ver10,2022.2.5,Win32,59.9880024,,,,,space,0.3014,0,41,41,24,1,25,training,zh2x,e,zh2x_e,zh2x_5_exe.wav,,exe.jpg,,,,,,,,,,,,,,,,,,,,,,,,,,,,,,,,,
631484e678fa2ffd8550a079,2023-06-16_09h46.53.027,phx_ver10,2022.2.5,Win32,59.9880024,,,,,,,,,,,,,attn_test,,,,zh2x_8_axa.wav,zh2x_1_ezhe.wav,axa.jpg,LEFT,,f,0.2863,space,0.7174,0,0,0,0,1,,,,,,,,,,,,,,,,,,,,,,
631484e678fa2ffd8550a079,2023-06-16_09h46.53.027,phx_ver10,2022.2.5,Win32,59.9880024,,,,,space,0.4046,0,42,42,40,1,41,training,zh2x,i,zh2x_i,zh2x_5_ixi.wav,,ixi.jpg,,,,,,,,,,,,,,,,,,,,,,,,,,,,,,,,,
631484e678fa2ffd8550a079,2023-06-16_09h46.53.027,phx_ver10,2022.2.5,Win32,59.9880024,,,,,space,0.3008,0,43,43,0,1,1,training,zh2x,a,zh2x_a,zh2x_1_azha.wav,,azha.jpg,,,,,,,,,,,,,,,,,,,,,,,,,,,,,,,,,
631484e678fa2ffd8550a079,2023-06-16_09h46.53.027,phx_ver10,2022.2.5,Win32,59.9880024,,,,,space,0.0845,0,44,44,32,1,33,training,zh2x,i,zh2x_i,zh2x_1_izhi.wav,,izhi.jpg,,,,,,,,,,,,,,,,,,,,,,,,,,,,,,,,,
631484e678fa2ffd8550a079,2023-06-16_09h46.53.027,phx_ver10,2022.2.5,Win32,59.9880024,,,,,space,0.0012,0,45,45,7,1,8,training,zh2x,a,zh2x_a,zh2x_4_azha.wav,,azha.jpg,,,,,,,,,,,,,,,,,,,,,,,,,,,,,,,,,
631484e678fa2ffd8550a079,2023-06-16_09h46.53.027,phx_ver10,2022.2.5,Win32,59.9880024,,,,,space,0.0667,0,46,46,8,1,9,training,zh2x,a,zh2x_a,zh2x_5_axa.wav,,axa.jpg,,,,,,,,,,,,,,,,,,,,,,,,,,,,,,,,,
631484e678fa2ffd8550a079,2023-06-16_09h46.53.027,phx_ver10,2022.2.5,Win32,59.9880024,,,,,space,0.3669,0,47,47,44,1,45,training,zh2x,i,zh2x_i,zh2x_7_ixi.wav,,ixi.jpg,,,,,,,,,,,,,,,,,,,,,,,,,,,,,,,,,
631484e678fa2ffd8550a079,2023-06-16_09h46.53.027,phx_ver10,2022.2.5,Win32,59.9880024,,,,,,,,,,,,,attn_test,,,,zh2x_8_ixi.wav,zh2x_1_azha.wav,azha.jpg,RIGHT,,j,0.2012,space,0.7519,,,,,,,,,,,,,,,,,,,,,,,,,,,
631484e678fa2ffd8550a079,2023-06-16_09h46.53.027,phx_ver10,2022.2.5,Win32,59.9880024,,,,,,,,,,,,,,,,,,,,,,,,,,,,,,,space,0.0485,,,,,,,,,,,,,,,,,,,,
631484e678fa2ffd8550a079,2023-06-16_09h46.53.027,phx_ver10,2022.2.5,Win32,59.9880024,,,,,,,,,,,,,,,,,,,,,,,,,,,,,,,,,space,3.9485,,,,,,,,,,,,,,,,,,
631484e678fa2ffd8550a079,2023-06-16_09h46.53.027,phx_ver10,2022.2.5,Win32,59.9880024,,,,,,,,,,,,2,testing_pre,,,,auhau.wav,aufau.wav,,FALSE,,,,,,,,,,,,,,,j,0.2388,space,0.7339,0,0,0,1,1,,,,,,,,,
631484e678fa2ffd8550a079,2023-06-16_09h46.53.027,phx_ver10,2022.2.5,Win32,59.9880024,,,,,,,,,,,,5,testing_pre,,,,ihi.wav,ifi.wav,,FALSE,,,,,,,,,,,,,,,j,1.7173,space,1.8693,0,1,1,4,1,,,,,,,,,
631484e678fa2ffd8550a079,2023-06-16_09h46.53.027,phx_ver10,2022.2.5,Win32,59.9880024,,,,,,,,,,,,4,testing_pre,,,,eihei.wav,eihei.wav,,TRUE,,,,,,,,,,,,,,,j,0.196,space,0.5458,0,2,2,3,1,,,,,,,,,
631484e678fa2ffd8550a079,2023-06-16_09h46.53.027,phx_ver10,2022.2.5,Win32,59.9880024,,,,,,,,,,,,3,testing_pre,,,,afa.wav,aha.wav,,FALSE,,,,,,,,,,,,,,,j,0.3563,space,0.5505,0,3,3,2,1,,,,,,,,,
631484e678fa2ffd8550a079,2023-06-16_09h46.53.027,phx_ver10,2022.2.5,Win32,59.9880024,,,,,,,,,,,,1,testing_pre,,,,ifi.wav,ifi.wav,,TRUE,,,,,,,,,,,,,,,j,3.2196,space,3.3696,0,4,4,0,1,,,,,,,,,
631484e678fa2ffd8550a079,2023-06-16_09h46.53.027,phx_ver10,2022.2.5,Win32,59.9880024,,,,,,,,,,,,,,,,,,,,,,,,,,,,,,,,,,,,,,,,,,,,space,0.2859,,,,,,,
631484e678fa2ffd8550a079,2023-06-16_09h46.53.027,phx_ver10,2022.2.5,Win32,59.9880024,,,,,,,,,,,,49,testing_3,zh2j,a,zh2j_a,zh2j_1_azha.wav,zh2j_1_azha.wav,,TRUE,FALSE,,,,,,,,,,,,,,f,0.9175,space,2.517,,,,,,,,0,0,0,48,1,,
631484e678fa2ffd8550a079,2023-06-16_09h46.53.027,phx_ver10,2022.2.5,Win32,59.9880024,,,,,,,,,,,,52,testing_3,zh2j,a,zh2j_a,zh2j_8_aja.wav,zh2j_1_azha.wav,,FALSE,FALSE,,,,,,,,,,,,,,f,0.0537,space,0.4661,,,,,,,,0,1,1,51,1,,
631484e678fa2ffd8550a079,2023-06-16_09h46.53.027,phx_ver10,2022.2.5,Win32,59.9880024,,,,,,,,,,,,30,testing_3,zh2sh,ai,zh2sh_ai,zh2sh_8_aishai.wav,zh2sh_8_aishai.wav,,TRUE,FALSE,,,,,,,,,,,,,,f,0.767,space,2.9001,,,,,,,,0,2,2,29,1,,
631484e678fa2ffd8550a079,2023-06-16_09h46.53.027,phx_ver10,2022.2.5,Win32,59.9880024,,,,,,,,,,,,50,testing_3,zh2j,a,zh2j_a,zh2j_8_aja.wav,zh2j_8_aja.wav,,TRUE,FALSE,,,,,,,,,,,,,,f,0.8037,space,1.134,,,,,,,,0,3,3,49,1,,
631484e678fa2ffd8550a079,2023-06-16_09h46.53.027,phx_ver10,2022.2.5,Win32,59.9880024,,,,,,,,,,,,65,testing_3,zh2j,ei,zh2j_ei,zh2j_1_eizhei.wav,zh2j_1_eizhei.wav,,TRUE,FALSE,,,,,,,,,,,,,,f,0.6511,space,0.9504,,,,,,,,0,4,4,64,1,,
631484e678fa2ffd8550a079,2023-06-16_09h46.53.027,phx_ver10,2022.2.5,Win32,59.9880024,,,,,,,,,,,,101,testing_3,sh2x,ai,sh2x_ai,sh2x_1_aishai.wav,sh2x_1_aishai.wav,,TRUE,FALSE,,,,,,,,,,,,,,f,0.9346,space,1.1837,,,,,,,,0,5,5,100,1,,
631484e678fa2ffd8550a079,2023-06-16_09h46.53.027,phx_ver10,2022.2.5,Win32,59.9880024,,,,,,,,,,,,28,testing_3,zh2sh,a,zh2sh_a,zh2sh_8_asha.wav,zh2sh_1_azha.wav,,FALSE,FALSE,,,,,,,,,,,,,,f,0.3161,space,1.0343,,,,,,,,0,6,6,27,1,,
631484e678fa2ffd8550a079,2023-06-16_09h46.53.027,phx_ver10,2022.2.5,Win32,59.9880024,,,,,,,,,,,,136,testing_3,sh2j,e,sh2j_e,sh2j_8_eje.wav,sh2j_1_eshe.wav,,FALSE,FALSE,,,,,,,,,,,,,,f,0.5713,space,0.8002,,,,,,,,0,7,7,135,1,,
631484e678fa2ffd8550a079,2023-06-16_09h46.53.027,phx_ver10,2022.2.5,Win32,59.9880024,,,,,,,,,,,,39,testing_3,zh2sh,e,zh2sh_e,zh2sh_1_ezhe.wav,zh2sh_8_eshe.wav,,FALSE,FALSE,,,,,,,,,,,,,,f,0.5183,space,0.8671,,,,,,,,0,8,8,38,1,,
631484e678fa2ffd8550a079,2023-06-16_09h46.53.027,phx_ver10,2022.2.5,Win32,59.9880024,,,,,,,,,,,,79,testing_3,j2x,ai,j2x_ai,j2x_1_aijai.wav,j2x_8_aixai.wav,,FALSE,FALSE,,,,,,,,,,,,,,j,0.5336,space,0.8197,,,,,,,,0,9,9,78,1,,
631484e678fa2ffd8550a079,2023-06-16_09h46.53.027,phx_ver10,2022.2.5,Win32,59.9880024,,,,,,,,,,,,121,testing_3,sh2j,a,sh2j_a,sh2j_1_asha.wav,sh2j_1_asha.wav,,TRUE,FALSE,,,,,,,,,,,,,,f,0.1305,space,0.5512,,,,,,,,0,10,10,120,1,,
631484e678fa2ffd8550a079,2023-06-16_09h46.53.027,phx_ver10,2022.2.5,Win32,59.9880024,,,,,,,,,,,,110,testing_3,sh2x,e,sh2x_e,sh2x_8_exe.wav,sh2x_8_exe.wav,,TRUE,FALSE,,,,,,,,,,,,,,f,0.0669,space,0.4398,,,,,,,,0,11,11,109,1,,
631484e678fa2ffd8550a079,2023-06-16_09h46.53.027,phx_ver10,2022.2.5,Win32,59.9880024,,,,,,,,,,,,133,testing_3,sh2j,e,sh2j_e,sh2j_1_eshe.wav,sh2j_1_eshe.wav,,TRUE,FALSE,,,,,,,,,,,,,,f,0.1218,space,0.434,,,,,,,,0,12,12,132,1,,
631484e678fa2ffd8550a079,2023-06-16_09h46.53.027,phx_ver10,2022.2.5,Win32,59.9880024,,,,,,,,,,,,34,testing_3,zh2sh,au,zh2sh_au,zh2sh_8_aushau.wav,zh2sh_8_aushau.wav,,TRUE,FALSE,,,,,,,,,,,,,,f,0.552,space,0.8501,,,,,,,,0,13,13,33,1,,
631484e678fa2ffd8550a079,2023-06-16_09h46.53.027,phx_ver10,2022.2.5,Win32,59.9880024,,,,,,,,,,,,10,testing_1,zh2x,i,zh2x_i,zh2x_8_ixi.wav,zh2x_8_ixi_copy.wav,,TRUE,TRUE,,,,,,,,,,,,,,f,1.0881,space,1.2167,,,,,,,,0,14,14,9,1,,
631484e678fa2ffd8550a079,2023-06-16_09h46.53.027,phx_ver10,2022.2.5,Win32,59.9880024,,,,,,,,,,,,45,testing_3,zh2sh,i,zh2sh_i,zh2sh_1_izhi.wav,zh2sh_1_izhi.wav,,TRUE,FALSE,,,,,,,,,,,,,,f,0.1339,space,0.4503,,,,,,,,0,15,15,44,1,,
631484e678fa2ffd8550a079,2023-06-16_09h46.53.027,phx_ver10,2022.2.5,Win32,59.9880024,,,,,,,,,,,,72,testing_3,zh2j,i,zh2j_i,zh2j_8_iji.wav,zh2j_1_izhi.wav,,FALSE,FALSE,,,,,,,,,,,,,,f,0.2211,space,0.4501,,,,,,,,0,16,16,71,1,,
631484e678fa2ffd8550a079,2023-06-16_09h46.53.027,phx_ver10,2022.2.5,Win32,59.9880024,,,,,,,,,,,,126,testing_3,sh2j,ai,sh2j_ai,sh2j_8_aijai.wav,sh2j_8_aijai.wav,,TRUE,FALSE,,,,,,,,,,,,,,f,0.3086,space,0.5241,,,,,,,,0,17,17,125,1,,
631484e678fa2ffd8550a079,2023-06-16_09h46.53.027,phx_ver10,2022.2.5,Win32,59.9880024,,,,,,,,,,,,135,testing_3,sh2j,e,sh2j_e,sh2j_1_eshe.wav,sh2j_8_eje.wav,,FALSE,FALSE,,,,,,,,,,,,,,f,0.3399,space,0.6171,,,,,,,,0,18,18,134,1,,
631484e678fa2ffd8550a079,2023-06-16_09h46.53.027,phx_ver10,2022.2.5,Win32,59.9880024,,,,,,,,,,,,53,testing_3,zh2j,ai,zh2j_ai,zh2j_1_aizhai.wav,zh2j_1_aizhai.wav,,TRUE,FALSE,,,,,,,,,,,,,,f,1.5031,space,3.0559,,,,,,,,0,19,19,52,1,,
631484e678fa2ffd8550a079,2023-06-16_09h46.53.027,phx_ver10,2022.2.5,Win32,59.9880024,,,,,,,,,,,,67,testing_3,zh2j,ei,zh2j_ei,zh2j_1_eizhei.wav,zh2j_8_eijei.wav,,FALSE,FALSE,,,,,,,,,,,,,,f,0.442,space,0.7527,,,,,,,,0,20,20,66,1,,
631484e678fa2ffd8550a079,2023-06-16_09h46.53.027,phx_ver10,2022.2.5,Win32,59.9880024,,,,,,,,,,,,87,testing_3,j2x,e,j2x_e,j2x_1_eje.wav,j2x_8_exe.wav,,FALSE,FALSE,,,,,,,,,,,,,,j,0.8888,space,1.1561,,,,,,,,0,21,21,86,1,,
631484e678fa2ffd8550a079,2023-06-16_09h46.53.027,phx_ver10,2022.2.5,Win32,59.9880024,,,,,,,,,,,,88,testing_3,j2x,e,j2x_e,j2x_8_exe.wav,j2x_1_eje.wav,,FALSE,FALSE,,,,,,,,,,,,,,j,0.3194,space,0.4837,,,,,,,,0,22,22,87,1,,
631484e678fa2ffd8550a079,2023-06-16_09h46.53.027,phx_ver10,2022.2.5,Win32,59.9880024,,,,,,,,,,,,71,testing_3,zh2j,i,zh2j_i,zh2j_1_izhi.wav,zh2j_8_iji.wav,,FALSE,FALSE,,,,,,,,,,,,,,f,0.1182,space,0.5002,,,,,,,,0,23,23,70,1,,
631484e678fa2ffd8550a079,2023-06-16_09h46.53.027,phx_ver10,2022.2.5,Win32,59.9880024,,,,,,,,,,,,128,testing_3,sh2j,ai,sh2j_ai,sh2j_8_aijai.wav,sh2j_1_aishai.wav,,FALSE,FALSE,,,,,,,,,,,,,,j,0.7068,space,0.8507,,,,,,,,0,24,24,127,1,,
631484e678fa2ffd8550a079,2023-06-16_09h46.53.027,phx_ver10,2022.2.5,Win32,59.9880024,,,,,,,,,,,,100,testing_3,sh2x,a,sh2x_a,sh2x_8_axa.wav,sh2x_1_asha.wav,,FALSE,FALSE,,,,,,,,,,,,,,f,0.2219,space,0.5843,,,,,,,,0,25,25,99,1,,
631484e678fa2ffd8550a079,2023-06-16_09h46.53.027,phx_ver10,2022.2.5,Win32,59.9880024,,,,,,,,,,,,89,testing_3,j2x,ei,j2x_ei,j2x_1_eijei.wav,j2x_1_eijei.wav,,TRUE,FALSE,,,,,,,,,,,,,,f,0.322,space,0.6043,,,,,,,,0,26,26,88,1,,
631484e678fa2ffd8550a079,2023-06-16_09h46.53.027,phx_ver10,2022.2.5,Win32,59.9880024,,,,,,,,,,,,115,testing_3,sh2x,ei,sh2x_ei,sh2x_1_eishei.wav,sh2x_8_eixei.wav,,FALSE,FALSE,,,,,,,,,,,,,,j,1.0669,space,1.4341,,,,,,,,0,27,27,114,1,,
631484e678fa2ffd8550a079,2023-06-16_09h46.53.027,phx_ver10,2022.2.5,Win32,59.9880024,,,,,,,,,,,,6,testing_1,zh2x,e,zh2x_e,zh2x_8_exe.wav,zh2x_8_exe_copy.wav,,TRUE,TRUE,,,,,,,,,,,,,,f,0.6164,space,3.1302,,,,,,,,0,28,28,5,1,,
631484e678fa2ffd8550a079,2023-06-16_09h46.53.027,phx_ver10,2022.2.5,Win32,59.9880024,,,,,,,,,,,,139,testing_3,sh2j,ei,sh2j_ei,sh2j_1_eishei.wav,sh2j_8_eijei.wav,,FALSE,FALSE,,,,,,,,,,,,,,j,0.6006,space,2.6415,,,,,,,,0,29,29,138,1,,
631484e678fa2ffd8550a079,2023-06-16_09h46.53.027,phx_ver10,2022.2.5,Win32,59.9880024,,,,,,,,,,,,97,testing_3,sh2x,a,sh2x_a,sh2x_1_asha.wav,sh2x_1_asha.wav,,TRUE,FALSE,,,,,,,,,,,,,,f,0.8855,space,1.2082,,,,,,,,0,30,30,96,1,,
631484e678fa2ffd8550a079,2023-06-16_09h46.53.027,phx_ver10,2022.2.5,Win32,59.9880024,,,,,,,,,,,,109,testing_3,sh2x,e,sh2x_e,sh2x_1_eshe.wav,sh2x_1_eshe.wav,,TRUE,FALSE,,,,,,,,,,,,,,f,0.0371,space,0.767,,,,,,,,0,31,31,108,1,,
631484e678fa2ffd8550a079,2023-06-16_09h46.53.027,phx_ver10,2022.2.5,Win32,59.9880024,,,,,,,,,,,,40,testing_3,zh2sh,e,zh2sh_e,zh2sh_8_eshe.wav,zh2sh_1_ezhe.wav,,FALSE,FALSE,,,,,,,,,,,,,,j,1.85,space,2.269,,,,,,,,0,32,32,39,1,,
631484e678fa2ffd8550a079,2023-06-16_09h46.53.027,phx_ver10,2022.2.5,Win32,59.9880024,,,,,,,,,,,,31,testing_3,zh2sh,ai,zh2sh_ai,zh2sh_1_aizhai.wav,zh2sh_8_aishai.wav,,FALSE,FALSE,,,,,,,,,,,,,,j,1.7039,space,2.0899,,,,,,,,0,33,33,30,1,,
631484e678fa2ffd8550a079,2023-06-16_09h46.53.027,phx_ver10,2022.2.5,Win32,59.9880024,,,,,,,,,,,,4,testing_1,zh2x,a,zh2x_a,zh2x_8_axa.wav,zh2x_1_azha.wav,,FALSE,TRUE,,,,,,,,,,,,,,j,0.4259,space,0.7338,,,,,,,,0,34,34,3,1,,
631484e678fa2ffd8550a079,2023-06-16_09h46.53.027,phx_ver10,2022.2.5,Win32,59.9880024,,,,,,,,,,,,43,testing_3,zh2sh,ei,zh2sh_ei,zh2sh_1_eizhei.wav,zh2sh_8_eishei.wav,,FALSE,FALSE,,,,,,,,,,,,,,j,0.2844,space,0.6076,,,,,,,,0,35,35,42,1,,
631484e678fa2ffd8550a079,2023-06-16_09h46.53.027,phx_ver10,2022.2.5,Win32,59.9880024,,,,,,,,,,,,13,testing_2,zh2x,ai,zh2x_ai,zh2x_1_aizhai.wav,zh2x_1_aizhai.wav,,TRUE,FALSE,,,,,,,,,,,,,,f,0.3839,space,0.7844,,,,,,,,0,36,36,12,1,,
631484e678fa2ffd8550a079,2023-06-16_09h46.53.027,phx_ver10,2022.2.5,Win32,59.9880024,,,,,,,,,,,,33,testing_3,zh2sh,au,zh2sh_au,zh2sh_1_auzhau.wav,zh2sh_1_auzhau.wav,,TRUE,FALSE,,,,,,,,,,,,,,f,0.2857,space,0.6009,,,,,,,,0,37,37,32,1,,
631484e678fa2ffd8550a079,2023-06-16_09h46.53.027,phx_ver10,2022.2.5,Win32,59.9880024,,,,,,,,,,,,86,testing_3,j2x,e,j2x_e,j2x_8_exe.wav,j2x_8_exe.wav,,TRUE,FALSE,,,,,,,,,,,,,,f,0.4022,space,0.7342,,,,,,,,0,38,38,85,1,,
631484e678fa2ffd8550a079,2023-06-16_09h46.53.027,phx_ver10,2022.2.5,Win32,59.9880024,,,,,,,,,,,,105,testing_3,sh2x,au,sh2x_au,sh2x_1_aushau.wav,sh2x_1_aushau.wav,,TRUE,FALSE,,,,,,,,,,,,,,f,0.1505,space,0.5024,,,,,,,,0,39,39,104,1,,
631484e678fa2ffd8550a079,2023-06-16_09h46.53.027,phx_ver10,2022.2.5,Win32,59.9880024,,,,,,,,,,,,112,testing_3,sh2x,e,sh2x_e,sh2x_8_exe.wav,sh2x_1_eshe.wav,,FALSE,FALSE,,,,,,,,,,,,,,f,0.2308,space,0.5685,,,,,,,,0,40,40,111,1,,
631484e678fa2ffd8550a079,2023-06-16_09h46.53.027,phx_ver10,2022.2.5,Win32,59.9880024,,,,,,,,,,,,2,testing_1,zh2x,a,zh2x_a,zh2x_8_axa.wav,zh2x_8_axa_copy.wav,,TRUE,TRUE,,,,,,,,,,,,,,f,0.2473,space,0.5338,,,,,,,,0,41,41,1,1,,
631484e678fa2ffd8550a079,2023-06-16_09h46.53.027,phx_ver10,2022.2.5,Win32,59.9880024,,,,,,,,,,,,102,testing_3,sh2x,ai,sh2x_ai,sh2x_8_aixai.wav,sh2x_8_aixai.wav,,TRUE,FALSE,,,,,,,,,,,,,,f,0.0502,space,0.4141,,,,,,,,0,42,42,101,1,,
631484e678fa2ffd8550a079,2023-06-16_09h46.53.027,phx_ver10,2022.2.5,Win32,59.9880024,,,,,,,,,,,,143,testing_3,sh2j,i,sh2j_i,sh2j_1_ishi.wav,sh2j_8_iji.wav,,FALSE,FALSE,,,,,,,,,,,,,,j,0.2841,space,0.6035,,,,,,,,0,43,43,142,1,,
631484e678fa2ffd8550a079,2023-06-16_09h46.53.027,phx_ver10,2022.2.5,Win32,59.9880024,,,,,,,,,,,,47,testing_3,zh2sh,i,zh2sh_i,zh2sh_1_izhi.wav,zh2sh_8_ishi.wav,,FALSE,FALSE,,,,,,,,,,,,,,j,0.3674,space,0.4381,,,,,,,,0,44,44,46,1,,
631484e678fa2ffd8550a079,2023-06-16_09h46.53.027,phx_ver10,2022.2.5,Win32,59.9880024,,,,,,,,,,,,127,testing_3,sh2j,ai,sh2j_ai,sh2j_1_aishai.wav,sh2j_8_aijai.wav,,FALSE,FALSE,,,,,,,,,,,,,,j,0.3203,space,0.4405,,,,,,,,0,45,45,126,1,,
631484e678fa2ffd8550a079,2023-06-16_09h46.53.027,phx_ver10,2022.2.5,Win32,59.9880024,,,,,,,,,,,,56,testing_3,zh2j,ai,zh2j_ai,zh2j_8_aijai.wav,zh2j_1_aizhai.wav,,FALSE,FALSE,,,,,,,,,,,,,,f,0.2008,space,0.4,,,,,,,,0,46,46,55,1,,
631484e678fa2ffd8550a079,2023-06-16_09h46.53.027,phx_ver10,2022.2.5,Win32,59.9880024,,,,,,,,,,,,5,testing_1,zh2x,e,zh2x_e,zh2x_1_ezhe.wav,zh2x_1_ezhe_copy.wav,,TRUE,TRUE,,,,,,,,,,,,,,f,0.5337,space,0.8662,,,,,,,,0,47,47,4,1,,
631484e678fa2ffd8550a079,2023-06-16_09h46.53.027,phx_ver10,2022.2.5,Win32,59.9880024,,,,,,,,,,,,66,testing_3,zh2j,ei,zh2j_ei,zh2j_8_eijei.wav,zh2j_8_eijei.wav,,TRUE,FALSE,,,,,,,,,,,,,,f,0.3677,space,0.5005,,,,,,,,0,48,48,65,1,,
631484e678fa2ffd8550a079,2023-06-16_09h46.53.027,phx_ver10,2022.2.5,Win32,59.9880024,,,,,,,,,,,,35,testing_3,zh2sh,au,zh2sh_au,zh2sh_1_auzhau.wav,zh2sh_8_aushau.wav,,FALSE,FALSE,,,,,,,,,,,,,,j,0.522,space,0.8451,,,,,,,,0,49,49,34,1,,
631484e678fa2ffd8550a079,2023-06-16_09h46.53.027,phx_ver10,2022.2.5,Win32,59.9880024,,,,,,,,,,,,64,testing_3,zh2j,e,zh2j_e,zh2j_8_eje.wav,zh2j_1_ezhe.wav,,FALSE,FALSE,,,,,,,,,,,,,,f,0.5015,space,0.8999,,,,,,,,0,50,50,63,1,,
631484e678fa2ffd8550a079,2023-06-16_09h46.53.027,phx_ver10,2022.2.5,Win32,59.9880024,,,,,,,,,,,,37,testing_3,zh2sh,e,zh2sh_e,zh2sh_1_ezhe.wav,zh2sh_1_ezhe.wav,,TRUE,FALSE,,,,,,,,,,,,,,f,0.3486,space,0.6669,,,,,,,,0,51,51,36,1,,
631484e678fa2ffd8550a079,2023-06-16_09h46.53.027,phx_ver10,2022.2.5,Win32,59.9880024,,,,,,,,,,,,141,testing_3,sh2j,i,sh2j_i,sh2j_1_ishi.wav,sh2j_1_ishi.wav,,TRUE,FALSE,,,,,,,,,,,,,,f,0.3565,space,0.7996,,,,,,,,0,52,52,140,1,,
631484e678fa2ffd8550a079,2023-06-16_09h46.53.027,phx_ver10,2022.2.5,Win32,59.9880024,,,,,,,,,,,,113,testing_3,sh2x,ei,sh2x_ei,sh2x_1_eishei.wav,sh2x_1_eishei.wav,,TRUE,FALSE,,,,,,,,,,,,,,f,0.0519,space,2.8139,,,,,,,,0,53,53,112,1,,
631484e678fa2ffd8550a079,2023-06-16_09h46.53.027,phx_ver10,2022.2.5,Win32,59.9880024,,,,,,,,,,,,36,testing_3,zh2sh,au,zh2sh_au,zh2sh_8_aushau.wav,zh2sh_1_auzhau.wav,,FALSE,FALSE,,,,,,,,,,,,,,f,0.5862,space,1.7077,,,,,,,,0,54,54,35,1,,
631484e678fa2ffd8550a079,2023-06-16_09h46.53.027,phx_ver10,2022.2.5,Win32,59.9880024,,,,,,,,,,,,7,testing_1,zh2x,e,zh2x_e,zh2x_1_ezhe.wav,zh2x_8_exe.wav,,FALSE,TRUE,,,,,,,,,,,,,,j,0.3177,space,0.4671,,,,,,,,0,55,55,6,1,,
631484e678fa2ffd8550a079,2023-06-16_09h46.53.027,phx_ver10,2022.2.5,Win32,59.9880024,,,,,,,,,,,,61,testing_3,zh2j,e,zh2j_e,zh2j_1_ezhe.wav,zh2j_1_ezhe.wav,,TRUE,FALSE,,,,,,,,,,,,,,f,0.3998,space,0.6747,,,,,,,,0,56,56,60,1,,
631484e678fa2ffd8550a079,2023-06-16_09h46.53.027,phx_ver10,2022.2.5,Win32,59.9880024,,,,,,,,,,,,46,testing_3,zh2sh,i,zh2sh_i,zh2sh_8_ishi.wav,zh2sh_8_ishi.wav,,TRUE,FALSE,,,,,,,,,,,,,,f,0.9469,space,1.0537,,,,,,,,0,57,57,45,1,,
631484e678fa2ffd8550a079,2023-06-16_09h46.53.027,phx_ver10,2022.2.5,Win32,59.9880024,,,,,,,,,,,,27,testing_3,zh2sh,a,zh2sh_a,zh2sh_1_azha.wav,zh2sh_8_asha.wav,,FALSE,FALSE,,,,,,,,,,,,,,j,0.3741,space,0.6569,,,,,,,,0,58,58,26,1,,
631484e678fa2ffd8550a079,2023-06-16_09h46.53.027,phx_ver10,2022.2.5,Win32,59.9880024,,,,,,,,,,,,103,testing_3,sh2x,ai,sh2x_ai,sh2x_1_aishai.wav,sh2x_8_aixai.wav,,FALSE,FALSE,,,,,,,,,,,,,,j,0.8176,space,1.123,,,,,,,,0,59,59,102,1,,
631484e678fa2ffd8550a079,2023-06-16_09h46.53.027,phx_ver10,2022.2.5,Win32,59.9880024,,,,,,,,,,,,16,testing_2,zh2x,ai,zh2x_ai,zh2x_8_aixai.wav,zh2x_1_aizhai.wav,,FALSE,FALSE,,,,,,,,,,,,,,j,0.8566,space,1.1141,,,,,,,,0,60,60,15,1,,
631484e678fa2ffd8550a079,2023-06-16_09h46.53.027,phx_ver10,2022.2.5,Win32,59.9880024,,,,,,,,,,,,14,testing_2,zh2x,ai,zh2x_ai,zh2x_8_aixai.wav,zh2x_8_aixai.wav,,TRUE,FALSE,,,,,,,,,,,,,,f,0.2676,space,0.4918,,,,,,,,0,61,61,13,1,,
631484e678fa2ffd8550a079,2023-06-16_09h46.53.027,phx_ver10,2022.2.5,Win32,59.9880024,,,,,,,,,,,,42,testing_3,zh2sh,ei,zh2sh_ei,zh2sh_8_eishei.wav,zh2sh_8_eishei.wav,,TRUE,FALSE,,,,,,,,,,,,,,f,0.0515,space,0.3811,,,,,,,,0,62,62,41,1,,
631484e678fa2ffd8550a079,2023-06-16_09h46.53.027,phx_ver10,2022.2.5,Win32,59.9880024,,,,,,,,,,,,19,testing_2,zh2x,au,zh2x_au,zh2x_1_auzhau.wav,zh2x_8_auxau.wav,,FALSE,FALSE,,,,,,,,,,,,,,j,0.2179,space,0.501,,,,,,,,0,63,63,18,1,,
631484e678fa2ffd8550a079,2023-06-16_09h46.53.027,phx_ver10,2022.2.5,Win32,59.9880024,,,,,,,,,,,,119,testing_3,sh2x,i,sh2x_i,sh2x_1_ishi.wav,sh2x_8_ixi.wav,,FALSE,FALSE,,,,,,,,,,,,,,f,0.4838,space,0.6061,,,,,,,,0,64,64,118,1,,
631484e678fa2ffd8550a079,2023-06-16_09h46.53.027,phx_ver10,2022.2.5,Win32,59.9880024,,,,,,,,,,,,76,testing_3,j2x,a,j2x_a,j2x_8_axa.wav,j2x_1_aja.wav,,FALSE,FALSE,,,,,,,,,,,,,,j,0.334,space,0.4506,,,,,,,,0,65,65,75,1,,
631484e678fa2ffd8550a079,2023-06-16_09h46.53.027,phx_ver10,2022.2.5,Win32,59.9880024,,,,,,,,,,,,120,testing_3,sh2x,i,sh2x_i,sh2x_8_ixi.wav,sh2x_1_ishi.wav,,FALSE,FALSE,,,,,,,,,,,,,,f,0.4057,space,1.9247,,,,,,,,0,66,66,119,1,,
631484e678fa2ffd8550a079,2023-06-16_09h46.53.027,phx_ver10,2022.2.5,Win32,59.9880024,,,,,,,,,,,,59,testing_3,zh2j,au,zh2j_au,zh2j_1_auzhau.wav,zh2j_8_aujau.wav,,FALSE,FALSE,,,,,,,,,,,,,,f,0.4536,space,1.2391,,,,,,,,0,67,67,58,1,,
631484e678fa2ffd8550a079,2023-06-16_09h46.53.027,phx_ver10,2022.2.5,Win32,59.9880024,,,,,,,,,,,,22,testing_2,zh2x,ei,zh2x_ei,zh2x_8_eixei.wav,zh2x_8_eixei.wav,,TRUE,FALSE,,,,,,,,,,,,,,j,0.0179,space,0.7169,,,,,,,,0,68,68,21,1,,
631484e678fa2ffd8550a079,2023-06-16_09h46.53.027,phx_ver10,2022.2.5,Win32,59.9880024,,,,,,,,,,,,130,testing_3,sh2j,au,sh2j_au,sh2j_8_aujau.wav,sh2j_8_aujau.wav,,TRUE,FALSE,,,,,,,,,,,,,,f,0.2505,space,0.5009,,,,,,,,0,69,69,129,1,,
631484e678fa2ffd8550a079,2023-06-16_09h46.53.027,phx_ver10,2022.2.5,Win32,59.9880024,,,,,,,,,,,,12,testing_1,zh2x,i,zh2x_i,zh2x_8_ixi.wav,zh2x_1_izhi.wav,,FALSE,TRUE,,,,,,,,,,,,,,f,0.2052,space,0.5509,,,,,,,,0,70,70,11,1,,
631484e678fa2ffd8550a079,2023-06-16_09h46.53.027,phx_ver10,2022.2.5,Win32,59.9880024,,,,,,,,,,,,51,testing_3,zh2j,a,zh2j_a,zh2j_1_azha.wav,zh2j_8_aja.wav,,FALSE,FALSE,,,,,,,,,,,,,,f,0.5177,space,0.6183,,,,,,,,0,71,71,50,1,,
631484e678fa2ffd8550a079,2023-06-16_09h46.53.027,phx_ver10,2022.2.5,Win32,59.9880024,,,,,,,,,,,,132,testing_3,sh2j,au,sh2j_au,sh2j_8_aujau.wav,sh2j_1_aushau.wav,,FALSE,FALSE,,,,,,,,,,,,,,j,0.5344,space,0.6058,,,,,,,,0,72,72,131,1,,
631484e678fa2ffd8550a079,2023-06-16_09h46.53.027,phx_ver10,2022.2.5,Win32,59.9880024,,,,,,,,,,,,144,testing_3,sh2j,i,sh2j_i,sh2j_8_iji.wav,sh2j_1_ishi.wav,,FALSE,FALSE,,,,,,,,,,,,,,j,0.614,space,0.7203,,,,,,,,0,73,73,143,1,,
631484e678fa2ffd8550a079,2023-06-16_09h46.53.027,phx_ver10,2022.2.5,Win32,59.9880024,,,,,,,,,,,,73,testing_3,j2x,a,j2x_a,j2x_1_aja.wav,j2x_1_aja.wav,,TRUE,FALSE,,,,,,,,,,,,,,f,0.1027,space,0.4506,,,,,,,,0,74,74,72,1,,
631484e678fa2ffd8550a079,2023-06-16_09h46.53.027,phx_ver10,2022.2.5,Win32,59.9880024,,,,,,,,,,,,75,testing_3,j2x,a,j2x_a,j2x_1_aja.wav,j2x_8_axa.wav,,FALSE,FALSE,,,,,,,,,,,,,,j,0.3008,space,0.4511,,,,,,,,0,75,75,74,1,,
631484e678fa2ffd8550a079,2023-06-16_09h46.53.027,phx_ver10,2022.2.5,Win32,59.9880024,,,,,,,,,,,,125,testing_3,sh2j,ai,sh2j_ai,sh2j_1_aishai.wav,sh2j_1_aishai.wav,,TRUE,FALSE,,,,,,,,,,,,,,j,0.9973,space,1.1361,,,,,,,,0,76,76,124,1,,
631484e678fa2ffd8550a079,2023-06-16_09h46.53.027,phx_ver10,2022.2.5,Win32,59.9880024,,,,,,,,,,,,131,testing_3,sh2j,au,sh2j_au,sh2j_1_aushau.wav,sh2j_8_aujau.wav,,FALSE,FALSE,,,,,,,,,,,,,,j,0.0027,space,0.2028,,,,,,,,0,77,77,130,1,,
631484e678fa2ffd8550a079,2023-06-16_09h46.53.027,phx_ver10,2022.2.5,Win32,59.9880024,,,,,,,,,,,,38,testing_3,zh2sh,e,zh2sh_e,zh2sh_8_eshe.wav,zh2sh_8_eshe.wav,,TRUE,FALSE,,,,,,,,,,,,,,f,1.055,space,1.2582,,,,,,,,0,78,78,37,1,,
631484e678fa2ffd8550a079,2023-06-16_09h46.53.027,phx_ver10,2022.2.5,Win32,59.9880024,,,,,,,,,,,,96,testing_3,j2x,i,j2x_i,j2x_8_ixi.wav,j2x_1_iji.wav,,FALSE,FALSE,,,,,,,,,,,,,,f,0.5366,space,0.6998,,,,,,,,0,79,79,95,1,,
631484e678fa2ffd8550a079,2023-06-16_09h46.53.027,phx_ver10,2022.2.5,Win32,59.9880024,,,,,,,,,,,,94,testing_3,j2x,i,j2x_i,j2x_8_ixi.wav,j2x_8_ixi.wav,,TRUE,FALSE,,,,,,,,,,,,,,f,0.4397,space,0.5841,,,,,,,,0,80,80,93,1,,
631484e678fa2ffd8550a079,2023-06-16_09h46.53.027,phx_ver10,2022.2.5,Win32,59.9880024,,,,,,,,,,,,118,testing_3,sh2x,i,sh2x_i,sh2x_8_ixi.wav,sh2x_8_ixi.wav,,TRUE,FALSE,,,,,,,,,,,,,,f,0.2342,space,0.4005,,,,,,,,0,81,81,117,1,,
631484e678fa2ffd8550a079,2023-06-16_09h46.53.027,phx_ver10,2022.2.5,Win32,59.9880024,,,,,,,,,,,,26,testing_3,zh2sh,a,zh2sh_a,zh2sh_8_asha.wav,zh2sh_8_asha.wav,,TRUE,FALSE,,,,,,,,,,,,,,f,0.3502,space,0.6501,,,,,,,,0,82,82,25,1,,
631484e678fa2ffd8550a079,2023-06-16_09h46.53.027,phx_ver10,2022.2.5,Win32,59.9880024,,,,,,,,,,,,98,testing_3,sh2x,a,sh2x_a,sh2x_8_axa.wav,sh2x_8_axa.wav,,TRUE,FALSE,,,,,,,,,,,,,,f,0.075,space,0.2512,,,,,,,,0,83,83,97,1,,
631484e678fa2ffd8550a079,2023-06-16_09h46.53.027,phx_ver10,2022.2.5,Win32,59.9880024,,,,,,,,,,,,122,testing_3,sh2j,a,sh2j_a,sh2j_8_aja.wav,sh2j_8_aja.wav,,TRUE,FALSE,,,,,,,,,,,,,,f,0.7851,space,0.9029,,,,,,,,0,84,84,121,1,,
631484e678fa2ffd8550a079,2023-06-16_09h46.53.027,phx_ver10,2022.2.5,Win32,59.9880024,,,,,,,,,,,,20,testing_2,zh2x,au,zh2x_au,zh2x_8_auxau.wav,zh2x_1_auzhau.wav,,FALSE,FALSE,,,,,,,,,,,,,,j,0.4889,space,0.6585,,,,,,,,0,85,85,19,1,,
631484e678fa2ffd8550a079,2023-06-16_09h46.53.027,phx_ver10,2022.2.5,Win32,59.9880024,,,,,,,,,,,,104,testing_3,sh2x,ai,sh2x_ai,sh2x_8_aixai.wav,sh2x_1_aishai.wav,,FALSE,FALSE,,,,,,,,,,,,,,f,0.4508,space,0.6138,,,,,,,,0,86,86,103,1,,
631484e678fa2ffd8550a079,2023-06-16_09h46.53.027,phx_ver10,2022.2.5,Win32,59.9880024,,,,,,,,,,,,85,testing_3,j2x,e,j2x_e,j2x_1_eje.wav,j2x_1_eje.wav,,TRUE,FALSE,,,,,,,,,,,,,,f,0.0365,space,0.2375,,,,,,,,0,87,87,84,1,,
631484e678fa2ffd8550a079,2023-06-16_09h46.53.027,phx_ver10,2022.2.5,Win32,59.9880024,,,,,,,,,,,,92,testing_3,j2x,ei,j2x_ei,j2x_8_eixei.wav,j2x_1_eijei.wav,,FALSE,FALSE,,,,,,,,,,,,,,j,0.1808,space,0.3178,,,,,,,,0,88,88,91,1,,
631484e678fa2ffd8550a079,2023-06-16_09h46.53.027,phx_ver10,2022.2.5,Win32,59.9880024,,,,,,,,,,,,111,testing_3,sh2x,e,sh2x_e,sh2x_1_eshe.wav,sh2x_8_exe.wav,,FALSE,FALSE,,,,,,,,,,,,,,j,0.4669,space,0.6509,,,,,,,,0,89,89,110,1,,
631484e678fa2ffd8550a079,2023-06-16_09h46.53.027,phx_ver10,2022.2.5,Win32,59.9880024,,,,,,,,,,,,63,testing_3,zh2j,e,zh2j_e,zh2j_1_ezhe.wav,zh2j_8_eje.wav,,FALSE,FALSE,,,,,,,,,,,,,,f,0.1562,space,0.2546,,,,,,,,0,90,90,62,1,,
631484e678fa2ffd8550a079,2023-06-16_09h46.53.027,phx_ver10,2022.2.5,Win32,59.9880024,,,,,,,,,,,,8,testing_1,zh2x,e,zh2x_e,zh2x_8_exe.wav,zh2x_1_ezhe.wav,,FALSE,TRUE,,,,,,,,,,,,,,j,0.0845,space,0.2348,,,,,,,,0,91,91,7,1,,
631484e678fa2ffd8550a079,2023-06-16_09h46.53.027,phx_ver10,2022.2.5,Win32,59.9880024,,,,,,,,,,,,58,testing_3,zh2j,au,zh2j_au,zh2j_8_aujau.wav,zh2j_8_aujau.wav,,TRUE,FALSE,,,,,,,,,,,,,,f,1.0412,space,1.1347,,,,,,,,0,92,92,57,1,,
631484e678fa2ffd8550a079,2023-06-16_09h46.53.027,phx_ver10,2022.2.5,Win32,59.9880024,,,,,,,,,,,,62,testing_3,zh2j,e,zh2j_e,zh2j_8_eje.wav,zh2j_8_eje.wav,,TRUE,FALSE,,,,,,,,,,,,,,f,0.4339,space,0.5682,,,,,,,,0,93,93,61,1,,
631484e678fa2ffd8550a079,2023-06-16_09h46.53.027,phx_ver10,2022.2.5,Win32,59.9880024,,,,,,,,,,,,54,testing_3,zh2j,ai,zh2j_ai,zh2j_8_aijai.wav,zh2j_8_aijai.wav,,TRUE,FALSE,,,,,,,,,,,,,,f,0.5172,space,0.701,,,,,,,,0,94,94,53,1,,
631484e678fa2ffd8550a079,2023-06-16_09h46.53.027,phx_ver10,2022.2.5,Win32,59.9880024,,,,,,,,,,,,134,testing_3,sh2j,e,sh2j_e,sh2j_8_eje.wav,sh2j_8_eje.wav,,TRUE,FALSE,,,,,,,,,,,,,,f,0.1886,space,1.1501,,,,,,,,0,95,95,133,1,,
631484e678fa2ffd8550a079,2023-06-16_09h46.53.027,phx_ver10,2022.2.5,Win32,59.9880024,,,,,,,,,,,,123,testing_3,sh2j,a,sh2j_a,sh2j_1_asha.wav,sh2j_8_aja.wav,,FALSE,FALSE,,,,,,,,,,,,,,j,1.8211,space,2.0796,,,,,,,,0,96,96,122,1,,
631484e678fa2ffd8550a079,2023-06-16_09h46.53.027,phx_ver10,2022.2.5,Win32,59.9880024,,,,,,,,,,,,68,testing_3,zh2j,ei,zh2j_ei,zh2j_8_eijei.wav,zh2j_1_eizhei.wav,,FALSE,FALSE,,,,,,,,,,,,,,f,0.4035,space,0.6816,,,,,,,,0,97,97,67,1,,
631484e678fa2ffd8550a079,2023-06-16_09h46.53.027,phx_ver10,2022.2.5,Win32,59.9880024,,,,,,,,,,,,81,testing_3,j2x,au,j2x_au,j2x_1_aujau.wav,j2x_1_aujau.wav,,TRUE,FALSE,,,,,,,,,,,,,,j,0.033,space,0.1572,,,,,,,,0,98,98,80,1,,
631484e678fa2ffd8550a079,2023-06-16_09h46.53.027,phx_ver10,2022.2.5,Win32,59.9880024,,,,,,,,,,,,91,testing_3,j2x,ei,j2x_ei,j2x_1_eijei.wav,j2x_8_eixei.wav,,FALSE,FALSE,,,,,,,,,,,,,,j,0.2081,space,0.3216,,,,,,,,0,99,99,90,1,,
631484e678fa2ffd8550a079,2023-06-16_09h46.53.027,phx_ver10,2022.2.5,Win32,59.9880024,,,,,,,,,,,,24,testing_2,zh2x,ei,zh2x_ei,zh2x_8_eixei.wav,zh2x_1_eizhei.wav,,FALSE,FALSE,,,,,,,,,,,,,,j,0.1846,space,0.3172,,,,,,,,0,100,100,23,1,,
631484e678fa2ffd8550a079,2023-06-16_09h46.53.027,phx_ver10,2022.2.5,Win32,59.9880024,,,,,,,,,,,,107,testing_3,sh2x,au,sh2x_au,sh2x_1_aushau.wav,sh2x_8_auxau.wav,,FALSE,FALSE,,,,,,,,,,,,,,j,0.086,space,0.2004,,,,,,,,0,101,101,106,1,,
631484e678fa2ffd8550a079,2023-06-16_09h46.53.027,phx_ver10,2022.2.5,Win32,59.9880024,,,,,,,,,,,,3,testing_1,zh2x,a,zh2x_a,zh2x_1_azha.wav,zh2x_8_axa.wav,,FALSE,TRUE,,,,,,,,,,,,,,j,0.057,space,0.1876,,,,,,,,0,102,102,2,1,,
631484e678fa2ffd8550a079,2023-06-16_09h46.53.027,phx_ver10,2022.2.5,Win32,59.9880024,,,,,,,,,,,,1,testing_1,zh2x,a,zh2x_a,zh2x_1_azha.wav,zh2x_1_azha_copy.wav,,TRUE,TRUE,,,,,,,,,,,,,,f,0.7342,space,0.8842,,,,,,,,0,103,103,0,1,,
631484e678fa2ffd8550a079,2023-06-16_09h46.53.027,phx_ver10,2022.2.5,Win32,59.9880024,,,,,,,,,,,,106,testing_3,sh2x,au,sh2x_au,sh2x_8_auxau.wav,sh2x_8_auxau.wav,,TRUE,FALSE,,,,,,,,,,,,,,f,0.0169,space,0.3839,,,,,,,,0,104,104,105,1,,
631484e678fa2ffd8550a079,2023-06-16_09h46.53.027,phx_ver10,2022.2.5,Win32,59.9880024,,,,,,,,,,,,60,testing_3,zh2j,au,zh2j_au,zh2j_8_aujau.wav,zh2j_1_auzhau.wav,,FALSE,FALSE,,,,,,,,,,,,,,j,0.0519,space,0.1888,,,,,,,,0,105,105,59,1,,
631484e678fa2ffd8550a079,2023-06-16_09h46.53.027,phx_ver10,2022.2.5,Win32,59.9880024,,,,,,,,,,,,140,testing_3,sh2j,ei,sh2j_ei,sh2j_8_eijei.wav,sh2j_1_eishei.wav,,FALSE,FALSE,,,,,,,,,,,,,,j,0.0047,space,0.3997,,,,,,,,0,106,106,139,1,,
631484e678fa2ffd8550a079,2023-06-16_09h46.53.027,phx_ver10,2022.2.5,Win32,59.9880024,,,,,,,,,,,,44,testing_3,zh2sh,ei,zh2sh_ei,zh2sh_8_eishei.wav,zh2sh_1_eizhei.wav,,FALSE,FALSE,,,,,,,,,,,,,,j,0.0898,space,0.3841,,,,,,,,0,107,107,43,1,,
631484e678fa2ffd8550a079,2023-06-16_09h46.53.027,phx_ver10,2022.2.5,Win32,59.9880024,,,,,,,,,,,,80,testing_3,j2x,ai,j2x_ai,j2x_8_aixai.wav,j2x_1_aijai.wav,,FALSE,FALSE,,,,,,,,,,,,,,j,0.3006,space,0.451,,,,,,,,0,108,108,79,1,,
631484e678fa2ffd8550a079,2023-06-16_09h46.53.027,phx_ver10,2022.2.5,Win32,59.9880024,,,,,,,,,,,,9,testing_1,zh2x,i,zh2x_i,zh2x_1_izhi.wav,zh2x_1_izhi_copy.wav,,TRUE,TRUE,,,,,,,,,,,,,,f,0.0006,space,0.3004,,,,,,,,0,109,109,8,1,,
631484e678fa2ffd8550a079,2023-06-16_09h46.53.027,phx_ver10,2022.2.5,Win32,59.9880024,,,,,,,,,,,,57,testing_3,zh2j,au,zh2j_au,zh2j_1_auzhau.wav,zh2j_1_auzhau.wav,,TRUE,FALSE,,,,,,,,,,,,,,f,0.2666,space,0.3722,,,,,,,,0,110,110,56,1,,
631484e678fa2ffd8550a079,2023-06-16_09h46.53.027,phx_ver10,2022.2.5,Win32,59.9880024,,,,,,,,,,,,32,testing_3,zh2sh,ai,zh2sh_ai,zh2sh_8_aishai.wav,zh2sh_1_aizhai.wav,,FALSE,FALSE,,,,,,,,,,,,,,f,1.4339,space,1.5686,,,,,,,,0,111,111,31,1,,
631484e678fa2ffd8550a079,2023-06-16_09h46.53.027,phx_ver10,2022.2.5,Win32,59.9880024,,,,,,,,,,,,142,testing_3,sh2j,i,sh2j_i,sh2j_8_iji.wav,sh2j_8_iji.wav,,TRUE,FALSE,,,,,,,,,,,,,,f,0.3339,space,0.4879,,,,,,,,0,112,112,141,1,,
631484e678fa2ffd8550a079,2023-06-16_09h46.53.027,phx_ver10,2022.2.5,Win32,59.9880024,,,,,,,,,,,,18,testing_2,zh2x,au,zh2x_au,zh2x_8_auxau.wav,zh2x_8_auxau.wav,,TRUE,FALSE,,,,,,,,,,,,,,f,0.2675,space,0.4342,,,,,,,,0,113,113,17,1,,
631484e678fa2ffd8550a079,2023-06-16_09h46.53.027,phx_ver10,2022.2.5,Win32,59.9880024,,,,,,,,,,,,114,testing_3,sh2x,ei,sh2x_ei,sh2x_8_eixei.wav,sh2x_8_eixei.wav,,TRUE,FALSE,,,,,,,,,,,,,,f,0.0505,space,0.1707,,,,,,,,0,114,114,113,1,,
631484e678fa2ffd8550a079,2023-06-16_09h46.53.027,phx_ver10,2022.2.5,Win32,59.9880024,,,,,,,,,,,,25,testing_3,zh2sh,a,zh2sh_a,zh2sh_1_azha.wav,zh2sh_1_azha.wav,,TRUE,FALSE,,,,,,,,,,,,,,f,0.0839,space,0.2511,,,,,,,,0,115,115,24,1,,
631484e678fa2ffd8550a079,2023-06-16_09h46.53.027,phx_ver10,2022.2.5,Win32,59.9880024,,,,,,,,,,,,124,testing_3,sh2j,a,sh2j_a,sh2j_8_aja.wav,sh2j_1_asha.wav,,FALSE,FALSE,,,,,,,,,,,,,,j,0.1105,space,0.4203,,,,,,,,0,116,116,123,1,,
631484e678fa2ffd8550a079,2023-06-16_09h46.53.027,phx_ver10,2022.2.5,Win32,59.9880024,,,,,,,,,,,,83,testing_3,j2x,au,j2x_au,j2x_1_aujau.wav,j2x_8_auxau.wav,,FALSE,FALSE,,,,,,,,,,,,,,j,0.7837,space,1.6575,,,,,,,,0,117,117,82,1,,
631484e678fa2ffd8550a079,2023-06-16_09h46.53.027,phx_ver10,2022.2.5,Win32,59.9880024,,,,,,,,,,,,129,testing_3,sh2j,au,sh2j_au,sh2j_1_aushau.wav,sh2j_1_aushau.wav,,TRUE,FALSE,,,,,,,,,,,,,,j,1.1197,space,1.4671,,,,,,,,0,118,118,128,1,,
631484e678fa2ffd8550a079,2023-06-16_09h46.53.027,phx_ver10,2022.2.5,Win32,59.9880024,,,,,,,,,,,,84,testing_3,j2x,au,j2x_au,j2x_8_auxau.wav,j2x_1_aujau.wav,,FALSE,FALSE,,,,,,,,,,,,,,j,0.4033,space,0.5174,,,,,,,,0,119,119,83,1,,
631484e678fa2ffd8550a079,2023-06-16_09h46.53.027,phx_ver10,2022.2.5,Win32,59.9880024,,,,,,,,,,,,138,testing_3,sh2j,ei,sh2j_ei,sh2j_8_eijei.wav,sh2j_8_eijei.wav,,TRUE,FALSE,,,,,,,,,,,,,,j,0.1338,space,0.2514,,,,,,,,0,120,120,137,1,,
631484e678fa2ffd8550a079,2023-06-16_09h46.53.027,phx_ver10,2022.2.5,Win32,59.9880024,,,,,,,,,,,,48,testing_3,zh2sh,i,zh2sh_i,zh2sh_8_ishi.wav,zh2sh_1_izhi.wav,,FALSE,FALSE,,,,,,,,,,,,,,j,0.0156,space,0.1166,,,,,,,,0,121,121,47,1,,
631484e678fa2ffd8550a079,2023-06-16_09h46.53.027,phx_ver10,2022.2.5,Win32,59.9880024,,,,,,,,,,,,41,testing_3,zh2sh,ei,zh2sh_ei,zh2sh_1_eizhei.wav,zh2sh_1_eizhei.wav,,TRUE,FALSE,,,,,,,,,,,,,,f,0.2005,space,0.3837,,,,,,,,0,122,122,40,1,,
631484e678fa2ffd8550a079,2023-06-16_09h46.53.027,phx_ver10,2022.2.5,Win32,59.9880024,,,,,,,,,,,,29,testing_3,zh2sh,ai,zh2sh_ai,zh2sh_1_aizhai.wav,zh2sh_1_aizhai.wav,,TRUE,FALSE,,,,,,,,,,,,,,f,0.0086,space,0.1234,,,,,,,,0,123,123,28,1,,
631484e678fa2ffd8550a079,2023-06-16_09h46.53.027,phx_ver10,2022.2.5,Win32,59.9880024,,,,,,,,,,,,78,testing_3,j2x,ai,j2x_ai,j2x_8_aixai.wav,j2x_8_aixai.wav,,TRUE,FALSE,,,,,,,,,,,,,,f,0.874,space,0.9727,,,,,,,,0,124,124,77,1,,
631484e678fa2ffd8550a079,2023-06-16_09h46.53.027,phx_ver10,2022.2.5,Win32,59.9880024,,,,,,,,,,,,74,testing_3,j2x,a,j2x_a,j2x_8_axa.wav,j2x_8_axa.wav,,TRUE,FALSE,,,,,,,,,,,,,,f,0.8341,space,0.9012,,,,,,,,0,125,125,73,1,,
631484e678fa2ffd8550a079,2023-06-16_09h46.53.027,phx_ver10,2022.2.5,Win32,59.9880024,,,,,,,,,,,,90,testing_3,j2x,ei,j2x_ei,j2x_8_eixei.wav,j2x_8_eixei.wav,,TRUE,FALSE,,,,,,,,,,,,,,f,0.0974,space,0.2059,,,,,,,,0,126,126,89,1,,
631484e678fa2ffd8550a079,2023-06-16_09h46.53.027,phx_ver10,2022.2.5,Win32,59.9880024,,,,,,,,,,,,95,testing_3,j2x,i,j2x_i,j2x_1_iji.wav,j2x_8_ixi.wav,,FALSE,FALSE,,,,,,,,,,,,,,j,3.9411,space,4.8582,,,,,,,,0,127,127,94,1,,
631484e678fa2ffd8550a079,2023-06-16_09h46.53.027,phx_ver10,2022.2.5,Win32,59.9880024,,,,,,,,,,,,21,testing_2,zh2x,ei,zh2x_ei,zh2x_1_eizhei.wav,zh2x_1_eizhei.wav,,TRUE,FALSE,,,,,,,,,,,,,,f,0.7837,space,0.8668,,,,,,,,0,128,128,20,1,,
631484e678fa2ffd8550a079,2023-06-16_09h46.53.027,phx_ver10,2022.2.5,Win32,59.9880024,,,,,,,,,,,,55,testing_3,zh2j,ai,zh2j_ai,zh2j_1_aizhai.wav,zh2j_8_aijai.wav,,FALSE,FALSE,,,,,,,,,,,,,,f,2.2504,space,2.3163,,,,,,,,0,129,129,54,1,,
631484e678fa2ffd8550a079,2023-06-16_09h46.53.027,phx_ver10,2022.2.5,Win32,59.9880024,,,,,,,,,,,,108,testing_3,sh2x,au,sh2x_au,sh2x_8_auxau.wav,sh2x_1_aushau.wav,,FALSE,FALSE,,,,,,,,,,,,,,f,3.4994,space,3.7018,,,,,,,,0,130,130,107,1,,
631484e678fa2ffd8550a079,2023-06-16_09h46.53.027,phx_ver10,2022.2.5,Win32,59.9880024,,,,,,,,,,,,69,testing_3,zh2j,i,zh2j_i,zh2j_1_izhi.wav,zh2j_1_izhi.wav,,TRUE,FALSE,,,,,,,,,,,,,,f,0.7004,space,0.8466,,,,,,,,0,131,131,68,1,,
631484e678fa2ffd8550a079,2023-06-16_09h46.53.027,phx_ver10,2022.2.5,Win32,59.9880024,,,,,,,,,,,,137,testing_3,sh2j,ei,sh2j_ei,sh2j_1_eishei.wav,sh2j_1_eishei.wav,,TRUE,FALSE,,,,,,,,,,,,,,f,0.2171,space,0.3004,,,,,,,,0,132,132,136,1,,
631484e678fa2ffd8550a079,2023-06-16_09h46.53.027,phx_ver10,2022.2.5,Win32,59.9880024,,,,,,,,,,,,23,testing_2,zh2x,ei,zh2x_ei,zh2x_1_eizhei.wav,zh2x_8_eixei.wav,,FALSE,FALSE,,,,,,,,,,,,,,j,0.1848,space,0.3227,,,,,,,,0,133,133,22,1,,
631484e678fa2ffd8550a079,2023-06-16_09h46.53.027,phx_ver10,2022.2.5,Win32,59.9880024,,,,,,,,,,,,117,testing_3,sh2x,i,sh2x_i,sh2x_1_ishi.wav,sh2x_1_ishi.wav,,TRUE,FALSE,,,,,,,,,,,,,,f,0.6042,space,0.7722,,,,,,,,0,134,134,116,1,,
631484e678fa2ffd8550a079,2023-06-16_09h46.53.027,phx_ver10,2022.2.5,Win32,59.9880024,,,,,,,,,,,,17,testing_2,zh2x,au,zh2x_au,zh2x_1_auzhau.wav,zh2x_1_auzhau.wav,,TRUE,FALSE,,,,,,,,,,,,,,j,1.9683,space,2.1356,,,,,,,,0,135,135,16,1,,
631484e678fa2ffd8550a079,2023-06-16_09h46.53.027,phx_ver10,2022.2.5,Win32,59.9880024,,,,,,,,,,,,11,testing_1,zh2x,i,zh2x_i,zh2x_1_izhi.wav,zh2x_8_ixi.wav,,FALSE,TRUE,,,,,,,,,,,,,,j,0.1899,space,0.7669,,,,,,,,0,136,136,10,1,,
631484e678fa2ffd8550a079,2023-06-16_09h46.53.027,phx_ver10,2022.2.5,Win32,59.9880024,,,,,,,,,,,,93,testing_3,j2x,i,j2x_i,j2x_1_iji.wav,j2x_1_iji.wav,,TRUE,FALSE,,,,,,,,,,,,,,f,0.5062,space,0.6389,,,,,,,,0,137,137,92,1,,
631484e678fa2ffd8550a079,2023-06-16_09h46.53.027,phx_ver10,2022.2.5,Win32,59.9880024,,,,,,,,,,,,15,testing_2,zh2x,ai,zh2x_ai,zh2x_1_aizhai.wav,zh2x_8_aixai.wav,,FALSE,FALSE,,,,,,,,,,,,,,j,0.3003,space,0.4187,,,,,,,,0,138,138,14,1,,
631484e678fa2ffd8550a079,2023-06-16_09h46.53.027,phx_ver10,2022.2.5,Win32,59.9880024,,,,,,,,,,,,70,testing_3,zh2j,i,zh2j_i,zh2j_8_iji.wav,zh2j_8_iji.wav,,TRUE,FALSE,,,,,,,,,,,,,,f,0.2207,space,0.334,,,,,,,,0,139,139,69,1,,
631484e678fa2ffd8550a079,2023-06-16_09h46.53.027,phx_ver10,2022.2.5,Win32,59.9880024,,,,,,,,,,,,77,testing_3,j2x,ai,j2x_ai,j2x_1_aijai.wav,j2x_1_aijai.wav,,TRUE,FALSE,,,,,,,,,,,,,,f,0.3361,space,0.5003,,,,,,,,0,140,140,76,1,,
631484e678fa2ffd8550a079,2023-06-16_09h46.53.027,phx_ver10,2022.2.5,Win32,59.9880024,,,,,,,,,,,,99,testing_3,sh2x,a,sh2x_a,sh2x_1_asha.wav,sh2x_8_axa.wav,,FALSE,FALSE,,,,,,,,,,,,,,j,0.0575,space,0.4048,,,,,,,,0,141,141,98,1,,
631484e678fa2ffd8550a079,2023-06-16_09h46.53.027,phx_ver10,2022.2.5,Win32,59.9880024,,,,,,,,,,,,82,testing_3,j2x,au,j2x_au,j2x_8_auxau.wav,j2x_8_auxau.wav,,TRUE,FALSE,,,,,,,,,,,,,,f,0.0006,space,0.2338,,,,,,,,0,142,142,81,1,,
631484e678fa2ffd8550a079,2023-06-16_09h46.53.027,phx_ver10,2022.2.5,Win32,59.9880024,,,,,,,,,,,,116,testing_3,sh2x,ei,sh2x_ei,sh2x_8_eixei.wav,sh2x_1_eishei.wav,,FALSE,FALSE,,,,,,,,,,,,,,j,0.1918,space,0.5069,,,,,,,,0,143,143,115,1,,
631484e678fa2ffd8550a079,2023-06-16_09h46.53.027,phx_ver10,2022.2.5,Win32,59.9880024,,,,,,,,,,,,,,,,,,,,,,,,,,,,,,,,,,,,,,,,,,,,,,,,,,,space,2.5673
