participant,date,expName,psychopyVersion,OS,frameRate,space_1.keys,space_1.rt,space_2.keys,space_2.rt,space_train.keys,space_train.rt,training.thisRepN,training.thisTrialN,training.thisN,training.thisIndex,training.ran,token_id,task,continuum,vowel,series,sound_1,sound_2,img,same,trained,FJ_attn.keys,FJ_attn.rt,space_attn.keys,space_attn.rt,if_attn_test.thisRepN,if_attn_test.thisTrialN,if_attn_test.thisN,if_attn_test.thisIndex,if_attn_test.ran,space_trans_1.keys,space_trans_1.rt,space_trans_11.keys,space_trans_11.rt,FJ_test.keys,FJ_test.rt,space_test.keys,space_test.rt,testing_pre.thisRepN,testing_pre.thisTrialN,testing_pre.thisN,testing_pre.thisIndex,testing_pre.ran,space_trans_2.keys,space_trans_2.rt,testing_all.thisRepN,testing_all.thisTrialN,testing_all.thisN,testing_all.thisIndex,testing_all.ran,space_ending.keys,space_ending.rt
631f2effe49a1006c782c115,2023-06-16_10h01.46.171,phx_ver10,2022.2.5,MacIntel,62.5,,,,,,,,,,,,,,,,,,,,,,,,,,,,,,,,,,,,,,,,,,,,,,,,,,,,
631f2effe49a1006c782c115,2023-06-16_10h01.46.171,phx_ver10,2022.2.5,MacIntel,62.5,space,1.745,,,,,,,,,,,,,,,,,,,,,,,,,,,,,,,,,,,,,,,,,,,,,,,,,,
631f2effe49a1006c782c115,2023-06-16_10h01.46.171,phx_ver10,2022.2.5,MacIntel,62.5,,,space,0.798,,,,,,,,,,,,,,,,,,,,,,,,,,,,,,,,,,,,,,,,,,,,,,,,
631f2effe49a1006c782c115,2023-06-16_10h01.46.171,phx_ver10,2022.2.5,MacIntel,62.5,,,,,space,2.201,0,0,0,32,1,33,training,zh2x,i,zh2x_i,zh2x_1_izhi.wav,,izhi.jpg,,,,,,,,,,,,,,,,,,,,,,,,,,,,,,,,,
631f2effe49a1006c782c115,2023-06-16_10h01.46.171,phx_ver10,2022.2.5,MacIntel,62.5,,,,,space,1.417,0,1,1,5,1,6,training,zh2x,a,zh2x_a,zh2x_3_azha.wav,,azha.jpg,,,,,,,,,,,,,,,,,,,,,,,,,,,,,,,,,
631f2effe49a1006c782c115,2023-06-16_10h01.46.171,phx_ver10,2022.2.5,MacIntel,62.5,,,,,space,1.516,0,2,2,27,1,28,training,zh2x,e,zh2x_e,zh2x_7_exe.wav,,exe.jpg,,,,,,,,,,,,,,,,,,,,,,,,,,,,,,,,,
631f2effe49a1006c782c115,2023-06-16_10h01.46.171,phx_ver10,2022.2.5,MacIntel,62.5,,,,,space,2.453,0,3,3,21,1,22,training,zh2x,e,zh2x_e,zh2x_3_ezhe.wav,,ezhe.jpg,,,,,,,,,,,,,,,,,,,,,,,,,,,,,,,,,
631f2effe49a1006c782c115,2023-06-16_10h01.46.171,phx_ver10,2022.2.5,MacIntel,62.5,,,,,space,1.083,0,4,4,9,1,10,training,zh2x,a,zh2x_a,zh2x_6_axa.wav,,axa.jpg,,,,,,,,,,,,,,,,,,,,,,,,,,,,,,,,,
631f2effe49a1006c782c115,2023-06-16_10h01.46.171,phx_ver10,2022.2.5,MacIntel,62.5,,,,,space,0.429,0,5,5,28,1,29,training,zh2x,e,zh2x_e,zh2x_7_exe.wav,,exe.jpg,,,,,,,,,,,,,,,,,,,,,,,,,,,,,,,,,
631f2effe49a1006c782c115,2023-06-16_10h01.46.171,phx_ver10,2022.2.5,MacIntel,62.5,,,,,,,,,,,,,attn_test,,,,zh2x_8_ixi.wav,zh2x_8_exe.wav,exe.jpg,RIGHT,,j,0.696,space,1.544,0,0,0,0,1,,,,,,,,,,,,,,,,,,,,,,
631f2effe49a1006c782c115,2023-06-16_10h01.46.171,phx_ver10,2022.2.5,MacIntel,62.5,,,,,space,1.883,0,6,6,10,1,11,training,zh2x,a,zh2x_a,zh2x_6_axa.wav,,axa.jpg,,,,,,,,,,,,,,,,,,,,,,,,,,,,,,,,,
631f2effe49a1006c782c115,2023-06-16_10h01.46.171,phx_ver10,2022.2.5,MacIntel,62.5,,,,,space,0.923,0,7,7,29,1,30,training,zh2x,e,zh2x_e,zh2x_7_exe.wav,,exe.jpg,,,,,,,,,,,,,,,,,,,,,,,,,,,,,,,,,
631f2effe49a1006c782c115,2023-06-16_10h01.46.171,phx_ver10,2022.2.5,MacIntel,62.5,,,,,space,0.092,0,8,8,22,1,23,training,zh2x,e,zh2x_e,zh2x_3_ezhe.wav,,ezhe.jpg,,,,,,,,,,,,,,,,,,,,,,,,,,,,,,,,,
631f2effe49a1006c782c115,2023-06-16_10h01.46.171,phx_ver10,2022.2.5,MacIntel,62.5,,,,,space,0.525,0,9,9,23,1,24,training,zh2x,e,zh2x_e,zh2x_4_ezhe.wav,,ezhe.jpg,,,,,,,,,,,,,,,,,,,,,,,,,,,,,,,,,
631f2effe49a1006c782c115,2023-06-16_10h01.46.171,phx_ver10,2022.2.5,MacIntel,62.5,,,,,space,0.667,0,10,10,17,1,18,training,zh2x,e,zh2x_e,zh2x_2_ezhe.wav,,ezhe.jpg,,,,,,,,,,,,,,,,,,,,,,,,,,,,,,,,,
631f2effe49a1006c782c115,2023-06-16_10h01.46.171,phx_ver10,2022.2.5,MacIntel,62.5,,,,,space,0.302,0,11,11,33,1,34,training,zh2x,i,zh2x_i,zh2x_2_izhi.wav,,izhi.jpg,,,,,,,,,,,,,,,,,,,,,,,,,,,,,,,,,
631f2effe49a1006c782c115,2023-06-16_10h01.46.171,phx_ver10,2022.2.5,MacIntel,62.5,,,,,,,,,,,,,attn_test,,,,zh2x_8_axa.wav,zh2x_1_izhi.wav,izhi.jpg,RIGHT,,j,0.371,space,0.999,0,0,0,0,1,,,,,,,,,,,,,,,,,,,,,,
631f2effe49a1006c782c115,2023-06-16_10h01.46.171,phx_ver10,2022.2.5,MacIntel,62.5,,,,,space,0.499,0,12,12,14,1,15,training,zh2x,a,zh2x_a,zh2x_7_axa.wav,,axa.jpg,,,,,,,,,,,,,,,,,,,,,,,,,,,,,,,,,
631f2effe49a1006c782c115,2023-06-16_10h01.46.171,phx_ver10,2022.2.5,MacIntel,62.5,,,,,space,1.168,0,13,13,15,1,16,training,zh2x,a,zh2x_a,zh2x_8_axa.wav,,axa.jpg,,,,,,,,,,,,,,,,,,,,,,,,,,,,,,,,,
631f2effe49a1006c782c115,2023-06-16_10h01.46.171,phx_ver10,2022.2.5,MacIntel,62.5,,,,,space,0.167,0,14,14,3,1,4,training,zh2x,a,zh2x_a,zh2x_2_azha.wav,,azha.jpg,,,,,,,,,,,,,,,,,,,,,,,,,,,,,,,,,
631f2effe49a1006c782c115,2023-06-16_10h01.46.171,phx_ver10,2022.2.5,MacIntel,62.5,,,,,space,0.355,0,15,15,8,1,9,training,zh2x,a,zh2x_a,zh2x_5_axa.wav,,axa.jpg,,,,,,,,,,,,,,,,,,,,,,,,,,,,,,,,,
631f2effe49a1006c782c115,2023-06-16_10h01.46.171,phx_ver10,2022.2.5,MacIntel,62.5,,,,,space,0.316,0,16,16,26,1,27,training,zh2x,e,zh2x_e,zh2x_6_exe.wav,,exe.jpg,,,,,,,,,,,,,,,,,,,,,,,,,,,,,,,,,
631f2effe49a1006c782c115,2023-06-16_10h01.46.171,phx_ver10,2022.2.5,MacIntel,62.5,,,,,space,0.29,0,17,17,24,1,25,training,zh2x,e,zh2x_e,zh2x_5_exe.wav,,exe.jpg,,,,,,,,,,,,,,,,,,,,,,,,,,,,,,,,,
631f2effe49a1006c782c115,2023-06-16_10h01.46.171,phx_ver10,2022.2.5,MacIntel,62.5,,,,,,,,,,,,,attn_test,,,,zh2x_1_ezhe.wav,zh2x_8_axa.wav,axa.jpg,RIGHT,,j,1.426,space,2.209,0,0,0,0,1,,,,,,,,,,,,,,,,,,,,,,
631f2effe49a1006c782c115,2023-06-16_10h01.46.171,phx_ver10,2022.2.5,MacIntel,62.5,,,,,space,0.867,0,18,18,47,1,48,training,zh2x,i,zh2x_i,zh2x_8_ixi.wav,,ixi.jpg,,,,,,,,,,,,,,,,,,,,,,,,,,,,,,,,,
631f2effe49a1006c782c115,2023-06-16_10h01.46.171,phx_ver10,2022.2.5,MacIntel,62.5,,,,,space,0.607,0,19,19,4,1,5,training,zh2x,a,zh2x_a,zh2x_2_azha.wav,,azha.jpg,,,,,,,,,,,,,,,,,,,,,,,,,,,,,,,,,
631f2effe49a1006c782c115,2023-06-16_10h01.46.171,phx_ver10,2022.2.5,MacIntel,62.5,,,,,space,0.37,0,20,20,2,1,3,training,zh2x,a,zh2x_a,zh2x_2_azha.wav,,azha.jpg,,,,,,,,,,,,,,,,,,,,,,,,,,,,,,,,,
631f2effe49a1006c782c115,2023-06-16_10h01.46.171,phx_ver10,2022.2.5,MacIntel,62.5,,,,,space,0.954,0,21,21,41,1,42,training,zh2x,i,zh2x_i,zh2x_6_ixi.wav,,ixi.jpg,,,,,,,,,,,,,,,,,,,,,,,,,,,,,,,,,
631f2effe49a1006c782c115,2023-06-16_10h01.46.171,phx_ver10,2022.2.5,MacIntel,62.5,,,,,space,0.349,0,22,22,34,1,35,training,zh2x,i,zh2x_i,zh2x_2_izhi.wav,,izhi.jpg,,,,,,,,,,,,,,,,,,,,,,,,,,,,,,,,,
631f2effe49a1006c782c115,2023-06-16_10h01.46.171,phx_ver10,2022.2.5,MacIntel,62.5,,,,,space,0.255,0,23,23,1,1,2,training,zh2x,a,zh2x_a,zh2x_2_azha.wav,,azha.jpg,,,,,,,,,,,,,,,,,,,,,,,,,,,,,,,,,
631f2effe49a1006c782c115,2023-06-16_10h01.46.171,phx_ver10,2022.2.5,MacIntel,62.5,,,,,,,,,,,,,attn_test,,,,zh2x_1_izhi.wav,zh2x_8_axa.wav,izhi.jpg,LEFT,,j,1.319,space,2.536,0,0,0,0,1,,,,,,,,,,,,,,,,,,,,,,
631f2effe49a1006c782c115,2023-06-16_10h01.46.171,phx_ver10,2022.2.5,MacIntel,62.5,,,,,space,1.434,0,24,24,35,1,36,training,zh2x,i,zh2x_i,zh2x_2_izhi.wav,,izhi.jpg,,,,,,,,,,,,,,,,,,,,,,,,,,,,,,,,,
631f2effe49a1006c782c115,2023-06-16_10h01.46.171,phx_ver10,2022.2.5,MacIntel,62.5,,,,,space,1.115,0,25,25,43,1,44,training,zh2x,i,zh2x_i,zh2x_7_ixi.wav,,ixi.jpg,,,,,,,,,,,,,,,,,,,,,,,,,,,,,,,,,
631f2effe49a1006c782c115,2023-06-16_10h01.46.171,phx_ver10,2022.2.5,MacIntel,62.5,,,,,space,0.723,0,26,26,11,1,12,training,zh2x,a,zh2x_a,zh2x_7_axa.wav,,axa.jpg,,,,,,,,,,,,,,,,,,,,,,,,,,,,,,,,,
631f2effe49a1006c782c115,2023-06-16_10h01.46.171,phx_ver10,2022.2.5,MacIntel,62.5,,,,,space,0.101,0,27,27,12,1,13,training,zh2x,a,zh2x_a,zh2x_7_axa.wav,,axa.jpg,,,,,,,,,,,,,,,,,,,,,,,,,,,,,,,,,
631f2effe49a1006c782c115,2023-06-16_10h01.46.171,phx_ver10,2022.2.5,MacIntel,62.5,,,,,space,0.001,0,28,28,19,1,20,training,zh2x,e,zh2x_e,zh2x_2_ezhe.wav,,ezhe.jpg,,,,,,,,,,,,,,,,,,,,,,,,,,,,,,,,,
631f2effe49a1006c782c115,2023-06-16_10h01.46.171,phx_ver10,2022.2.5,MacIntel,62.5,,,,,space,0.752,0,29,29,45,1,46,training,zh2x,i,zh2x_i,zh2x_7_ixi.wav,,ixi.jpg,,,,,,,,,,,,,,,,,,,,,,,,,,,,,,,,,
631f2effe49a1006c782c115,2023-06-16_10h01.46.171,phx_ver10,2022.2.5,MacIntel,62.5,,,,,,,,,,,,,attn_test,,,,zh2x_8_ixi.wav,zh2x_1_ezhe.wav,ixi.jpg,LEFT,,f,0.317,space,1.048,0,0,0,0,1,,,,,,,,,,,,,,,,,,,,,,
631f2effe49a1006c782c115,2023-06-16_10h01.46.171,phx_ver10,2022.2.5,MacIntel,62.5,,,,,space,0.399,0,30,30,31,1,32,training,zh2x,e,zh2x_e,zh2x_8_exe.wav,,exe.jpg,,,,,,,,,,,,,,,,,,,,,,,,,,,,,,,,,
631f2effe49a1006c782c115,2023-06-16_10h01.46.171,phx_ver10,2022.2.5,MacIntel,62.5,,,,,space,0.882,0,31,31,25,1,26,training,zh2x,e,zh2x_e,zh2x_6_exe.wav,,exe.jpg,,,,,,,,,,,,,,,,,,,,,,,,,,,,,,,,,
631f2effe49a1006c782c115,2023-06-16_10h01.46.171,phx_ver10,2022.2.5,MacIntel,62.5,,,,,space,0.449,0,32,32,46,1,47,training,zh2x,i,zh2x_i,zh2x_7_ixi.wav,,ixi.jpg,,,,,,,,,,,,,,,,,,,,,,,,,,,,,,,,,
631f2effe49a1006c782c115,2023-06-16_10h01.46.171,phx_ver10,2022.2.5,MacIntel,62.5,,,,,space,0.755,0,33,33,13,1,14,training,zh2x,a,zh2x_a,zh2x_7_axa.wav,,axa.jpg,,,,,,,,,,,,,,,,,,,,,,,,,,,,,,,,,
631f2effe49a1006c782c115,2023-06-16_10h01.46.171,phx_ver10,2022.2.5,MacIntel,62.5,,,,,space,0.108,0,34,34,18,1,19,training,zh2x,e,zh2x_e,zh2x_2_ezhe.wav,,ezhe.jpg,,,,,,,,,,,,,,,,,,,,,,,,,,,,,,,,,
631f2effe49a1006c782c115,2023-06-16_10h01.46.171,phx_ver10,2022.2.5,MacIntel,62.5,,,,,space,0.885,0,35,35,6,1,7,training,zh2x,a,zh2x_a,zh2x_3_azha.wav,,azha.jpg,,,,,,,,,,,,,,,,,,,,,,,,,,,,,,,,,
631f2effe49a1006c782c115,2023-06-16_10h01.46.171,phx_ver10,2022.2.5,MacIntel,62.5,,,,,,,,,,,,,attn_test,,,,zh2x_1_azha.wav,zh2x_8_exe.wav,exe.jpg,RIGHT,,j,0.268,space,0.734,0,0,0,0,1,,,,,,,,,,,,,,,,,,,,,,
631f2effe49a1006c782c115,2023-06-16_10h01.46.171,phx_ver10,2022.2.5,MacIntel,62.5,,,,,space,0.634,0,36,36,40,1,41,training,zh2x,i,zh2x_i,zh2x_5_ixi.wav,,ixi.jpg,,,,,,,,,,,,,,,,,,,,,,,,,,,,,,,,,
631f2effe49a1006c782c115,2023-06-16_10h01.46.171,phx_ver10,2022.2.5,MacIntel,62.5,,,,,space,0.517,0,37,37,16,1,17,training,zh2x,e,zh2x_e,zh2x_1_ezhe.wav,,ezhe.jpg,,,,,,,,,,,,,,,,,,,,,,,,,,,,,,,,,
631f2effe49a1006c782c115,2023-06-16_10h01.46.171,phx_ver10,2022.2.5,MacIntel,62.5,,,,,space,0.205,0,38,38,36,1,37,training,zh2x,i,zh2x_i,zh2x_2_izhi.wav,,izhi.jpg,,,,,,,,,,,,,,,,,,,,,,,,,,,,,,,,,
631f2effe49a1006c782c115,2023-06-16_10h01.46.171,phx_ver10,2022.2.5,MacIntel,62.5,,,,,space,0.116,0,39,39,44,1,45,training,zh2x,i,zh2x_i,zh2x_7_ixi.wav,,ixi.jpg,,,,,,,,,,,,,,,,,,,,,,,,,,,,,,,,,
631f2effe49a1006c782c115,2023-06-16_10h01.46.171,phx_ver10,2022.2.5,MacIntel,62.5,,,,,space,0.583,0,40,40,20,1,21,training,zh2x,e,zh2x_e,zh2x_2_ezhe.wav,,ezhe.jpg,,,,,,,,,,,,,,,,,,,,,,,,,,,,,,,,,
631f2effe49a1006c782c115,2023-06-16_10h01.46.171,phx_ver10,2022.2.5,MacIntel,62.5,,,,,space,0.253,0,41,41,30,1,31,training,zh2x,e,zh2x_e,zh2x_7_exe.wav,,exe.jpg,,,,,,,,,,,,,,,,,,,,,,,,,,,,,,,,,
631f2effe49a1006c782c115,2023-06-16_10h01.46.171,phx_ver10,2022.2.5,MacIntel,62.5,,,,,,,,,,,,,attn_test,,,,zh2x_1_izhi.wav,zh2x_8_ixi.wav,ixi.jpg,RIGHT,,j,12.301,space,14.67,0,0,0,0,1,,,,,,,,,,,,,,,,,,,,,,
631f2effe49a1006c782c115,2023-06-16_10h01.46.171,phx_ver10,2022.2.5,MacIntel,62.5,,,,,space,0.458,0,42,42,39,1,40,training,zh2x,i,zh2x_i,zh2x_4_izhi.wav,,izhi.jpg,,,,,,,,,,,,,,,,,,,,,,,,,,,,,,,,,
631f2effe49a1006c782c115,2023-06-16_10h01.46.171,phx_ver10,2022.2.5,MacIntel,62.5,,,,,space,0.4,0,43,43,38,1,39,training,zh2x,i,zh2x_i,zh2x_3_izhi.wav,,izhi.jpg,,,,,,,,,,,,,,,,,,,,,,,,,,,,,,,,,
631f2effe49a1006c782c115,2023-06-16_10h01.46.171,phx_ver10,2022.2.5,MacIntel,62.5,,,,,space,0.317,0,44,44,37,1,38,training,zh2x,i,zh2x_i,zh2x_3_izhi.wav,,izhi.jpg,,,,,,,,,,,,,,,,,,,,,,,,,,,,,,,,,
631f2effe49a1006c782c115,2023-06-16_10h01.46.171,phx_ver10,2022.2.5,MacIntel,62.5,,,,,space,0.407,0,45,45,42,1,43,training,zh2x,i,zh2x_i,zh2x_6_ixi.wav,,ixi.jpg,,,,,,,,,,,,,,,,,,,,,,,,,,,,,,,,,
631f2effe49a1006c782c115,2023-06-16_10h01.46.171,phx_ver10,2022.2.5,MacIntel,62.5,,,,,space,1.417,0,46,46,7,1,8,training,zh2x,a,zh2x_a,zh2x_4_azha.wav,,azha.jpg,,,,,,,,,,,,,,,,,,,,,,,,,,,,,,,,,
631f2effe49a1006c782c115,2023-06-16_10h01.46.171,phx_ver10,2022.2.5,MacIntel,62.5,,,,,space,0.022,0,47,47,0,1,1,training,zh2x,a,zh2x_a,zh2x_1_azha.wav,,azha.jpg,,,,,,,,,,,,,,,,,,,,,,,,,,,,,,,,,
631f2effe49a1006c782c115,2023-06-16_10h01.46.171,phx_ver10,2022.2.5,MacIntel,62.5,,,,,,,,,,,,,attn_test,,,,zh2x_8_exe.wav,zh2x_8_ixi.wav,ixi.jpg,RIGHT,,j,0.053,space,0.533,,,,,,,,,,,,,,,,,,,,,,,,,,,
631f2effe49a1006c782c115,2023-06-16_10h01.46.171,phx_ver10,2022.2.5,MacIntel,62.5,,,,,,,,,,,,,,,,,,,,,,,,,,,,,,,space,0.55,,,,,,,,,,,,,,,,,,,,
631f2effe49a1006c782c115,2023-06-16_10h01.46.171,phx_ver10,2022.2.5,MacIntel,62.5,,,,,,,,,,,,,,,,,,,,,,,,,,,,,,,,,space,0.465,,,,,,,,,,,,,,,,,,
631f2effe49a1006c782c115,2023-06-16_10h01.46.171,phx_ver10,2022.2.5,MacIntel,62.5,,,,,,,,,,,,5,testing_pre,,,,ihi.wav,ifi.wav,,FALSE,,,,,,,,,,,,,,,j,6.279,space,9.433,0,0,0,4,1,,,,,,,,,
631f2effe49a1006c782c115,2023-06-16_10h01.46.171,phx_ver10,2022.2.5,MacIntel,62.5,,,,,,,,,,,,3,testing_pre,,,,afa.wav,aha.wav,,FALSE,,,,,,,,,,,,,,,f,3.476,space,3.821,0,1,1,2,1,,,,,,,,,
631f2effe49a1006c782c115,2023-06-16_10h01.46.171,phx_ver10,2022.2.5,MacIntel,62.5,,,,,,,,,,,,4,testing_pre,,,,eihei.wav,eihei.wav,,TRUE,,,,,,,,,,,,,,,j,0.167,space,0.516,0,2,2,3,1,,,,,,,,,
631f2effe49a1006c782c115,2023-06-16_10h01.46.171,phx_ver10,2022.2.5,MacIntel,62.5,,,,,,,,,,,,2,testing_pre,,,,auhau.wav,aufau.wav,,FALSE,,,,,,,,,,,,,,,j,0.343,space,0.627,0,3,3,1,1,,,,,,,,,
631f2effe49a1006c782c115,2023-06-16_10h01.46.171,phx_ver10,2022.2.5,MacIntel,62.5,,,,,,,,,,,,1,testing_pre,,,,ifi.wav,ifi.wav,,TRUE,,,,,,,,,,,,,,,f,1.635,space,1.995,0,4,4,0,1,,,,,,,,,
631f2effe49a1006c782c115,2023-06-16_10h01.46.171,phx_ver10,2022.2.5,MacIntel,62.5,,,,,,,,,,,,,,,,,,,,,,,,,,,,,,,,,,,,,,,,,,,,space,0.559,,,,,,,
631f2effe49a1006c782c115,2023-06-16_10h01.46.171,phx_ver10,2022.2.5,MacIntel,62.5,,,,,,,,,,,,132,testing_3,sh2j,au,sh2j_au,sh2j_8_aujau.wav,sh2j_1_aushau.wav,,FALSE,FALSE,,,,,,,,,,,,,,f,0.737,space,1.051,,,,,,,,0,0,0,131,1,,
631f2effe49a1006c782c115,2023-06-16_10h01.46.171,phx_ver10,2022.2.5,MacIntel,62.5,,,,,,,,,,,,68,testing_3,zh2j,ei,zh2j_ei,zh2j_8_eijei.wav,zh2j_1_eizhei.wav,,FALSE,FALSE,,,,,,,,,,,,,,f,1.757,space,2.057,,,,,,,,0,1,1,67,1,,
631f2effe49a1006c782c115,2023-06-16_10h01.46.171,phx_ver10,2022.2.5,MacIntel,62.5,,,,,,,,,,,,107,testing_3,sh2x,au,sh2x_au,sh2x_1_aushau.wav,sh2x_8_auxau.wav,,FALSE,FALSE,,,,,,,,,,,,,,f,0.656,space,0.978,,,,,,,,0,2,2,106,1,,
631f2effe49a1006c782c115,2023-06-16_10h01.46.171,phx_ver10,2022.2.5,MacIntel,62.5,,,,,,,,,,,,113,testing_3,sh2x,ei,sh2x_ei,sh2x_1_eishei.wav,sh2x_1_eishei.wav,,TRUE,FALSE,,,,,,,,,,,,,,f,0.95,space,1.298,,,,,,,,0,3,3,112,1,,
631f2effe49a1006c782c115,2023-06-16_10h01.46.171,phx_ver10,2022.2.5,MacIntel,62.5,,,,,,,,,,,,11,testing_1,zh2x,i,zh2x_i,zh2x_1_izhi.wav,zh2x_8_ixi.wav,,FALSE,TRUE,,,,,,,,,,,,,,f,0.434,space,0.79,,,,,,,,0,4,4,10,1,,
631f2effe49a1006c782c115,2023-06-16_10h01.46.171,phx_ver10,2022.2.5,MacIntel,62.5,,,,,,,,,,,,73,testing_3,j2x,a,j2x_a,j2x_1_aja.wav,j2x_1_aja.wav,,TRUE,FALSE,,,,,,,,,,,,,,f,0.078,space,0.388,,,,,,,,0,5,5,72,1,,
631f2effe49a1006c782c115,2023-06-16_10h01.46.171,phx_ver10,2022.2.5,MacIntel,62.5,,,,,,,,,,,,108,testing_3,sh2x,au,sh2x_au,sh2x_8_auxau.wav,sh2x_1_aushau.wav,,FALSE,FALSE,,,,,,,,,,,,,,f,0.176,space,0.528,,,,,,,,0,6,6,107,1,,
631f2effe49a1006c782c115,2023-06-16_10h01.46.171,phx_ver10,2022.2.5,MacIntel,62.5,,,,,,,,,,,,130,testing_3,sh2j,au,sh2j_au,sh2j_8_aujau.wav,sh2j_8_aujau.wav,,TRUE,FALSE,,,,,,,,,,,,,,f,0.276,space,0.607,,,,,,,,0,7,7,129,1,,
631f2effe49a1006c782c115,2023-06-16_10h01.46.171,phx_ver10,2022.2.5,MacIntel,62.5,,,,,,,,,,,,100,testing_3,sh2x,a,sh2x_a,sh2x_8_axa.wav,sh2x_1_asha.wav,,FALSE,FALSE,,,,,,,,,,,,,,f,0.389,space,0.673,,,,,,,,0,8,8,99,1,,
631f2effe49a1006c782c115,2023-06-16_10h01.46.171,phx_ver10,2022.2.5,MacIntel,62.5,,,,,,,,,,,,44,testing_3,zh2sh,ei,zh2sh_ei,zh2sh_8_eishei.wav,zh2sh_1_eizhei.wav,,FALSE,FALSE,,,,,,,,,,,,,,f,0.344,space,0.718,,,,,,,,0,9,9,43,1,,
631f2effe49a1006c782c115,2023-06-16_10h01.46.171,phx_ver10,2022.2.5,MacIntel,62.5,,,,,,,,,,,,120,testing_3,sh2x,i,sh2x_i,sh2x_8_ixi.wav,sh2x_1_ishi.wav,,FALSE,FALSE,,,,,,,,,,,,,,f,0.322,space,0.858,,,,,,,,0,10,10,119,1,,
631f2effe49a1006c782c115,2023-06-16_10h01.46.171,phx_ver10,2022.2.5,MacIntel,62.5,,,,,,,,,,,,46,testing_3,zh2sh,i,zh2sh_i,zh2sh_8_ishi.wav,zh2sh_8_ishi.wav,,TRUE,FALSE,,,,,,,,,,,,,,f,0.35,space,0.791,,,,,,,,0,11,11,45,1,,
631f2effe49a1006c782c115,2023-06-16_10h01.46.171,phx_ver10,2022.2.5,MacIntel,62.5,,,,,,,,,,,,21,testing_2,zh2x,ei,zh2x_ei,zh2x_1_eizhei.wav,zh2x_1_eizhei.wav,,TRUE,FALSE,,,,,,,,,,,,,,f,4.269,space,6.84,,,,,,,,0,12,12,20,1,,
631f2effe49a1006c782c115,2023-06-16_10h01.46.171,phx_ver10,2022.2.5,MacIntel,62.5,,,,,,,,,,,,57,testing_3,zh2j,au,zh2j_au,zh2j_1_auzhau.wav,zh2j_1_auzhau.wav,,TRUE,FALSE,,,,,,,,,,,,,,j,0.832,space,1.022,,,,,,,,0,13,13,56,1,,
631f2effe49a1006c782c115,2023-06-16_10h01.46.171,phx_ver10,2022.2.5,MacIntel,62.5,,,,,,,,,,,,92,testing_3,j2x,ei,j2x_ei,j2x_8_eixei.wav,j2x_1_eijei.wav,,FALSE,FALSE,,,,,,,,,,,,,,j,0.349,space,0.633,,,,,,,,0,14,14,91,1,,
631f2effe49a1006c782c115,2023-06-16_10h01.46.171,phx_ver10,2022.2.5,MacIntel,62.5,,,,,,,,,,,,140,testing_3,sh2j,ei,sh2j_ei,sh2j_8_eijei.wav,sh2j_1_eishei.wav,,FALSE,FALSE,,,,,,,,,,,,,,f,0.237,space,0.652,,,,,,,,0,15,15,139,1,,
631f2effe49a1006c782c115,2023-06-16_10h01.46.171,phx_ver10,2022.2.5,MacIntel,62.5,,,,,,,,,,,,96,testing_3,j2x,i,j2x_i,j2x_8_ixi.wav,j2x_1_iji.wav,,FALSE,FALSE,,,,,,,,,,,,,,f,1.041,space,1.317,,,,,,,,0,16,16,95,1,,
631f2effe49a1006c782c115,2023-06-16_10h01.46.171,phx_ver10,2022.2.5,MacIntel,62.5,,,,,,,,,,,,134,testing_3,sh2j,e,sh2j_e,sh2j_8_eje.wav,sh2j_8_eje.wav,,TRUE,FALSE,,,,,,,,,,,,,,j,0.081,space,0.441,,,,,,,,0,17,17,133,1,,
631f2effe49a1006c782c115,2023-06-16_10h01.46.171,phx_ver10,2022.2.5,MacIntel,62.5,,,,,,,,,,,,80,testing_3,j2x,ai,j2x_ai,j2x_8_aixai.wav,j2x_1_aijai.wav,,FALSE,FALSE,,,,,,,,,,,,,,j,0.359,space,0.821,,,,,,,,0,18,18,79,1,,
631f2effe49a1006c782c115,2023-06-16_10h01.46.171,phx_ver10,2022.2.5,MacIntel,62.5,,,,,,,,,,,,89,testing_3,j2x,ei,j2x_ei,j2x_1_eijei.wav,j2x_1_eijei.wav,,TRUE,FALSE,,,,,,,,,,,,,,f,0.033,space,0.475,,,,,,,,0,19,19,88,1,,
631f2effe49a1006c782c115,2023-06-16_10h01.46.171,phx_ver10,2022.2.5,MacIntel,62.5,,,,,,,,,,,,144,testing_3,sh2j,i,sh2j_i,sh2j_8_iji.wav,sh2j_1_ishi.wav,,FALSE,FALSE,,,,,,,,,,,,,,f,0.401,space,0.843,,,,,,,,0,20,20,143,1,,
631f2effe49a1006c782c115,2023-06-16_10h01.46.171,phx_ver10,2022.2.5,MacIntel,62.5,,,,,,,,,,,,43,testing_3,zh2sh,ei,zh2sh_ei,zh2sh_1_eizhei.wav,zh2sh_8_eishei.wav,,FALSE,FALSE,,,,,,,,,,,,,,f,0.09,space,0.551,,,,,,,,0,21,21,42,1,,
631f2effe49a1006c782c115,2023-06-16_10h01.46.171,phx_ver10,2022.2.5,MacIntel,62.5,,,,,,,,,,,,41,testing_3,zh2sh,ei,zh2sh_ei,zh2sh_1_eizhei.wav,zh2sh_1_eizhei.wav,,TRUE,FALSE,,,,,,,,,,,,,,j,0.351,space,0.667,,,,,,,,0,22,22,40,1,,
631f2effe49a1006c782c115,2023-06-16_10h01.46.171,phx_ver10,2022.2.5,MacIntel,62.5,,,,,,,,,,,,114,testing_3,sh2x,ei,sh2x_ei,sh2x_8_eixei.wav,sh2x_8_eixei.wav,,TRUE,FALSE,,,,,,,,,,,,,,j,0.49,space,1.501,,,,,,,,0,23,23,113,1,,
631f2effe49a1006c782c115,2023-06-16_10h01.46.171,phx_ver10,2022.2.5,MacIntel,62.5,,,,,,,,,,,,54,testing_3,zh2j,ai,zh2j_ai,zh2j_8_aijai.wav,zh2j_8_aijai.wav,,TRUE,FALSE,,,,,,,,,,,,,,j,0.384,space,0.8,,,,,,,,0,24,24,53,1,,
631f2effe49a1006c782c115,2023-06-16_10h01.46.171,phx_ver10,2022.2.5,MacIntel,62.5,,,,,,,,,,,,95,testing_3,j2x,i,j2x_i,j2x_1_iji.wav,j2x_8_ixi.wav,,FALSE,FALSE,,,,,,,,,,,,,,j,0.417,space,1.936,,,,,,,,0,25,25,94,1,,
631f2effe49a1006c782c115,2023-06-16_10h01.46.171,phx_ver10,2022.2.5,MacIntel,62.5,,,,,,,,,,,,123,testing_3,sh2j,a,sh2j_a,sh2j_1_asha.wav,sh2j_8_aja.wav,,FALSE,FALSE,,,,,,,,,,,,,,j,0.367,space,0.803,,,,,,,,0,26,26,122,1,,
631f2effe49a1006c782c115,2023-06-16_10h01.46.171,phx_ver10,2022.2.5,MacIntel,62.5,,,,,,,,,,,,133,testing_3,sh2j,e,sh2j_e,sh2j_1_eshe.wav,sh2j_1_eshe.wav,,TRUE,FALSE,,,,,,,,,,,,,,j,0.415,space,0.916,,,,,,,,0,27,27,132,1,,
631f2effe49a1006c782c115,2023-06-16_10h01.46.171,phx_ver10,2022.2.5,MacIntel,62.5,,,,,,,,,,,,17,testing_2,zh2x,au,zh2x_au,zh2x_1_auzhau.wav,zh2x_1_auzhau.wav,,TRUE,FALSE,,,,,,,,,,,,,,j,0.233,space,0.553,,,,,,,,0,28,28,16,1,,
631f2effe49a1006c782c115,2023-06-16_10h01.46.171,phx_ver10,2022.2.5,MacIntel,62.5,,,,,,,,,,,,119,testing_3,sh2x,i,sh2x_i,sh2x_1_ishi.wav,sh2x_8_ixi.wav,,FALSE,FALSE,,,,,,,,,,,,,,f,0.016,space,0.47,,,,,,,,0,29,29,118,1,,
631f2effe49a1006c782c115,2023-06-16_10h01.46.171,phx_ver10,2022.2.5,MacIntel,62.5,,,,,,,,,,,,86,testing_3,j2x,e,j2x_e,j2x_8_exe.wav,j2x_8_exe.wav,,TRUE,FALSE,,,,,,,,,,,,,,j,0.651,space,1.5,,,,,,,,0,30,30,85,1,,
631f2effe49a1006c782c115,2023-06-16_10h01.46.171,phx_ver10,2022.2.5,MacIntel,62.5,,,,,,,,,,,,93,testing_3,j2x,i,j2x_i,j2x_1_iji.wav,j2x_1_iji.wav,,TRUE,FALSE,,,,,,,,,,,,,,f,1.453,space,1.707,,,,,,,,0,31,31,92,1,,
631f2effe49a1006c782c115,2023-06-16_10h01.46.171,phx_ver10,2022.2.5,MacIntel,62.5,,,,,,,,,,,,116,testing_3,sh2x,ei,sh2x_ei,sh2x_8_eixei.wav,sh2x_1_eishei.wav,,FALSE,FALSE,,,,,,,,,,,,,,f,0.361,space,0.705,,,,,,,,0,32,32,115,1,,
631f2effe49a1006c782c115,2023-06-16_10h01.46.171,phx_ver10,2022.2.5,MacIntel,62.5,,,,,,,,,,,,35,testing_3,zh2sh,au,zh2sh_au,zh2sh_1_auzhau.wav,zh2sh_8_aushau.wav,,FALSE,FALSE,,,,,,,,,,,,,,f,0.544,space,0.883,,,,,,,,0,33,33,34,1,,
631f2effe49a1006c782c115,2023-06-16_10h01.46.171,phx_ver10,2022.2.5,MacIntel,62.5,,,,,,,,,,,,48,testing_3,zh2sh,i,zh2sh_i,zh2sh_8_ishi.wav,zh2sh_1_izhi.wav,,FALSE,FALSE,,,,,,,,,,,,,,f,0.405,space,1.193,,,,,,,,0,34,34,47,1,,
631f2effe49a1006c782c115,2023-06-16_10h01.46.171,phx_ver10,2022.2.5,MacIntel,62.5,,,,,,,,,,,,69,testing_3,zh2j,i,zh2j_i,zh2j_1_izhi.wav,zh2j_1_izhi.wav,,TRUE,FALSE,,,,,,,,,,,,,,j,0.176,space,0.568,,,,,,,,0,35,35,68,1,,
631f2effe49a1006c782c115,2023-06-16_10h01.46.171,phx_ver10,2022.2.5,MacIntel,62.5,,,,,,,,,,,,23,testing_2,zh2x,ei,zh2x_ei,zh2x_1_eizhei.wav,zh2x_8_eixei.wav,,FALSE,FALSE,,,,,,,,,,,,,,f,10.155,space,12.123,,,,,,,,0,36,36,22,1,,
631f2effe49a1006c782c115,2023-06-16_10h01.46.171,phx_ver10,2022.2.5,MacIntel,62.5,,,,,,,,,,,,62,testing_3,zh2j,e,zh2j_e,zh2j_8_eje.wav,zh2j_8_eje.wav,,TRUE,FALSE,,,,,,,,,,,,,,j,0.127,space,0.46,,,,,,,,0,37,37,61,1,,
631f2effe49a1006c782c115,2023-06-16_10h01.46.171,phx_ver10,2022.2.5,MacIntel,62.5,,,,,,,,,,,,138,testing_3,sh2j,ei,sh2j_ei,sh2j_8_eijei.wav,sh2j_8_eijei.wav,,TRUE,FALSE,,,,,,,,,,,,,,f,2.018,space,2.484,,,,,,,,0,38,38,137,1,,
631f2effe49a1006c782c115,2023-06-16_10h01.46.171,phx_ver10,2022.2.5,MacIntel,62.5,,,,,,,,,,,,79,testing_3,j2x,ai,j2x_ai,j2x_1_aijai.wav,j2x_8_aixai.wav,,FALSE,FALSE,,,,,,,,,,,,,,j,0.01,space,0.602,,,,,,,,0,39,39,78,1,,
631f2effe49a1006c782c115,2023-06-16_10h01.46.171,phx_ver10,2022.2.5,MacIntel,62.5,,,,,,,,,,,,16,testing_2,zh2x,ai,zh2x_ai,zh2x_8_aixai.wav,zh2x_1_aizhai.wav,,FALSE,FALSE,,,,,,,,,,,,,,j,0.568,space,0.869,,,,,,,,0,40,40,15,1,,
631f2effe49a1006c782c115,2023-06-16_10h01.46.171,phx_ver10,2022.2.5,MacIntel,62.5,,,,,,,,,,,,87,testing_3,j2x,e,j2x_e,j2x_1_eje.wav,j2x_8_exe.wav,,FALSE,FALSE,,,,,,,,,,,,,,j,0.561,space,0.884,,,,,,,,0,41,41,86,1,,
631f2effe49a1006c782c115,2023-06-16_10h01.46.171,phx_ver10,2022.2.5,MacIntel,62.5,,,,,,,,,,,,139,testing_3,sh2j,ei,sh2j_ei,sh2j_1_eishei.wav,sh2j_8_eijei.wav,,FALSE,FALSE,,,,,,,,,,,,,,j,0.957,space,1.908,,,,,,,,0,42,42,138,1,,
631f2effe49a1006c782c115,2023-06-16_10h01.46.171,phx_ver10,2022.2.5,MacIntel,62.5,,,,,,,,,,,,12,testing_1,zh2x,i,zh2x_i,zh2x_8_ixi.wav,zh2x_1_izhi.wav,,FALSE,TRUE,,,,,,,,,,,,,,f,0.324,space,0.677,,,,,,,,0,43,43,11,1,,
631f2effe49a1006c782c115,2023-06-16_10h01.46.171,phx_ver10,2022.2.5,MacIntel,62.5,,,,,,,,,,,,81,testing_3,j2x,au,j2x_au,j2x_1_aujau.wav,j2x_1_aujau.wav,,TRUE,FALSE,,,,,,,,,,,,,,f,0.077,space,0.468,,,,,,,,0,44,44,80,1,,
631f2effe49a1006c782c115,2023-06-16_10h01.46.171,phx_ver10,2022.2.5,MacIntel,62.5,,,,,,,,,,,,5,testing_1,zh2x,e,zh2x_e,zh2x_1_ezhe.wav,zh2x_1_ezhe_copy.wav,,TRUE,TRUE,,,,,,,,,,,,,,j,0.448,space,0.815,,,,,,,,0,45,45,4,1,,
631f2effe49a1006c782c115,2023-06-16_10h01.46.171,phx_ver10,2022.2.5,MacIntel,62.5,,,,,,,,,,,,85,testing_3,j2x,e,j2x_e,j2x_1_eje.wav,j2x_1_eje.wav,,TRUE,FALSE,,,,,,,,,,,,,,j,0.218,space,0.667,,,,,,,,0,46,46,84,1,,
631f2effe49a1006c782c115,2023-06-16_10h01.46.171,phx_ver10,2022.2.5,MacIntel,62.5,,,,,,,,,,,,55,testing_3,zh2j,ai,zh2j_ai,zh2j_1_aizhai.wav,zh2j_8_aijai.wav,,FALSE,FALSE,,,,,,,,,,,,,,j,0.321,space,1.933,,,,,,,,0,47,47,54,1,,
631f2effe49a1006c782c115,2023-06-16_10h01.46.171,phx_ver10,2022.2.5,MacIntel,62.5,,,,,,,,,,,,47,testing_3,zh2sh,i,zh2sh_i,zh2sh_1_izhi.wav,zh2sh_8_ishi.wav,,FALSE,FALSE,,,,,,,,,,,,,,j,0.339,space,1.704,,,,,,,,0,48,48,46,1,,
631f2effe49a1006c782c115,2023-06-16_10h01.46.171,phx_ver10,2022.2.5,MacIntel,62.5,,,,,,,,,,,,102,testing_3,sh2x,ai,sh2x_ai,sh2x_8_aixai.wav,sh2x_8_aixai.wav,,TRUE,FALSE,,,,,,,,,,,,,,j,0.257,space,0.81,,,,,,,,0,49,49,101,1,,
631f2effe49a1006c782c115,2023-06-16_10h01.46.171,phx_ver10,2022.2.5,MacIntel,62.5,,,,,,,,,,,,42,testing_3,zh2sh,ei,zh2sh_ei,zh2sh_8_eishei.wav,zh2sh_8_eishei.wav,,TRUE,FALSE,,,,,,,,,,,,,,f,0.405,space,0.691,,,,,,,,0,50,50,41,1,,
631f2effe49a1006c782c115,2023-06-16_10h01.46.171,phx_ver10,2022.2.5,MacIntel,62.5,,,,,,,,,,,,72,testing_3,zh2j,i,zh2j_i,zh2j_8_iji.wav,zh2j_1_izhi.wav,,FALSE,FALSE,,,,,,,,,,,,,,f,3.118,space,5.095,,,,,,,,0,51,51,71,1,,
631f2effe49a1006c782c115,2023-06-16_10h01.46.171,phx_ver10,2022.2.5,MacIntel,62.5,,,,,,,,,,,,2,testing_1,zh2x,a,zh2x_a,zh2x_8_axa.wav,zh2x_8_axa_copy.wav,,TRUE,TRUE,,,,,,,,,,,,,,f,0.223,space,0.655,,,,,,,,0,52,52,1,1,,
631f2effe49a1006c782c115,2023-06-16_10h01.46.171,phx_ver10,2022.2.5,MacIntel,62.5,,,,,,,,,,,,31,testing_3,zh2sh,ai,zh2sh_ai,zh2sh_1_aizhai.wav,zh2sh_8_aishai.wav,,FALSE,FALSE,,,,,,,,,,,,,,f,27.786,space,28.285,,,,,,,,0,53,53,30,1,,
631f2effe49a1006c782c115,2023-06-16_10h01.46.171,phx_ver10,2022.2.5,MacIntel,62.5,,,,,,,,,,,,10,testing_1,zh2x,i,zh2x_i,zh2x_8_ixi.wav,zh2x_8_ixi_copy.wav,,TRUE,TRUE,,,,,,,,,,,,,,f,0.586,space,1.04,,,,,,,,0,54,54,9,1,,
631f2effe49a1006c782c115,2023-06-16_10h01.46.171,phx_ver10,2022.2.5,MacIntel,62.5,,,,,,,,,,,,15,testing_2,zh2x,ai,zh2x_ai,zh2x_1_aizhai.wav,zh2x_8_aixai.wav,,FALSE,FALSE,,,,,,,,,,,,,,f,4.247,space,4.881,,,,,,,,0,55,55,14,1,,
631f2effe49a1006c782c115,2023-06-16_10h01.46.171,phx_ver10,2022.2.5,MacIntel,62.5,,,,,,,,,,,,24,testing_2,zh2x,ei,zh2x_ei,zh2x_8_eixei.wav,zh2x_1_eizhei.wav,,FALSE,FALSE,,,,,,,,,,,,,,j,4.38,space,5.099,,,,,,,,0,56,56,23,1,,
631f2effe49a1006c782c115,2023-06-16_10h01.46.171,phx_ver10,2022.2.5,MacIntel,62.5,,,,,,,,,,,,1,testing_1,zh2x,a,zh2x_a,zh2x_1_azha.wav,zh2x_1_azha_copy.wav,,TRUE,TRUE,,,,,,,,,,,,,,f,2.422,space,3.069,,,,,,,,0,57,57,0,1,,
631f2effe49a1006c782c115,2023-06-16_10h01.46.171,phx_ver10,2022.2.5,MacIntel,62.5,,,,,,,,,,,,65,testing_3,zh2j,ei,zh2j_ei,zh2j_1_eizhei.wav,zh2j_1_eizhei.wav,,TRUE,FALSE,,,,,,,,,,,,,,j,1.12,space,1.533,,,,,,,,0,58,58,64,1,,
631f2effe49a1006c782c115,2023-06-16_10h01.46.171,phx_ver10,2022.2.5,MacIntel,62.5,,,,,,,,,,,,30,testing_3,zh2sh,ai,zh2sh_ai,zh2sh_8_aishai.wav,zh2sh_8_aishai.wav,,TRUE,FALSE,,,,,,,,,,,,,,f,1.521,space,3.754,,,,,,,,0,59,59,29,1,,
631f2effe49a1006c782c115,2023-06-16_10h01.46.171,phx_ver10,2022.2.5,MacIntel,62.5,,,,,,,,,,,,71,testing_3,zh2j,i,zh2j_i,zh2j_1_izhi.wav,zh2j_8_iji.wav,,FALSE,FALSE,,,,,,,,,,,,,,f,1.149,space,1.479,,,,,,,,0,60,60,70,1,,
631f2effe49a1006c782c115,2023-06-16_10h01.46.171,phx_ver10,2022.2.5,MacIntel,62.5,,,,,,,,,,,,14,testing_2,zh2x,ai,zh2x_ai,zh2x_8_aixai.wav,zh2x_8_aixai.wav,,TRUE,FALSE,,,,,,,,,,,,,,f,0.582,space,1.249,,,,,,,,0,61,61,13,1,,
631f2effe49a1006c782c115,2023-06-16_10h01.46.171,phx_ver10,2022.2.5,MacIntel,62.5,,,,,,,,,,,,143,testing_3,sh2j,i,sh2j_i,sh2j_1_ishi.wav,sh2j_8_iji.wav,,FALSE,FALSE,,,,,,,,,,,,,,j,1.255,space,1.582,,,,,,,,0,62,62,142,1,,
631f2effe49a1006c782c115,2023-06-16_10h01.46.171,phx_ver10,2022.2.5,MacIntel,62.5,,,,,,,,,,,,26,testing_3,zh2sh,a,zh2sh_a,zh2sh_8_asha.wav,zh2sh_8_asha.wav,,TRUE,FALSE,,,,,,,,,,,,,,f,0.178,space,0.504,,,,,,,,0,63,63,25,1,,
631f2effe49a1006c782c115,2023-06-16_10h01.46.171,phx_ver10,2022.2.5,MacIntel,62.5,,,,,,,,,,,,122,testing_3,sh2j,a,sh2j_a,sh2j_8_aja.wav,sh2j_8_aja.wav,,TRUE,FALSE,,,,,,,,,,,,,,j,0.701,space,0.978,,,,,,,,0,64,64,121,1,,
631f2effe49a1006c782c115,2023-06-16_10h01.46.171,phx_ver10,2022.2.5,MacIntel,62.5,,,,,,,,,,,,99,testing_3,sh2x,a,sh2x_a,sh2x_1_asha.wav,sh2x_8_axa.wav,,FALSE,FALSE,,,,,,,,,,,,,,f,0.344,space,0.651,,,,,,,,0,65,65,98,1,,
631f2effe49a1006c782c115,2023-06-16_10h01.46.171,phx_ver10,2022.2.5,MacIntel,62.5,,,,,,,,,,,,141,testing_3,sh2j,i,sh2j_i,sh2j_1_ishi.wav,sh2j_1_ishi.wav,,TRUE,FALSE,,,,,,,,,,,,,,f,0.021,space,0.383,,,,,,,,0,66,66,140,1,,
631f2effe49a1006c782c115,2023-06-16_10h01.46.171,phx_ver10,2022.2.5,MacIntel,62.5,,,,,,,,,,,,60,testing_3,zh2j,au,zh2j_au,zh2j_8_aujau.wav,zh2j_1_auzhau.wav,,FALSE,FALSE,,,,,,,,,,,,,,f,0.711,space,1.019,,,,,,,,0,67,67,59,1,,
631f2effe49a1006c782c115,2023-06-16_10h01.46.171,phx_ver10,2022.2.5,MacIntel,62.5,,,,,,,,,,,,94,testing_3,j2x,i,j2x_i,j2x_8_ixi.wav,j2x_8_ixi.wav,,TRUE,FALSE,,,,,,,,,,,,,,f,0.376,space,0.761,,,,,,,,0,68,68,93,1,,
631f2effe49a1006c782c115,2023-06-16_10h01.46.171,phx_ver10,2022.2.5,MacIntel,62.5,,,,,,,,,,,,105,testing_3,sh2x,au,sh2x_au,sh2x_1_aushau.wav,sh2x_1_aushau.wav,,TRUE,FALSE,,,,,,,,,,,,,,f,5.52,space,6.011,,,,,,,,0,69,69,104,1,,
631f2effe49a1006c782c115,2023-06-16_10h01.46.171,phx_ver10,2022.2.5,MacIntel,62.5,,,,,,,,,,,,67,testing_3,zh2j,ei,zh2j_ei,zh2j_1_eizhei.wav,zh2j_8_eijei.wav,,FALSE,FALSE,,,,,,,,,,,,,,j,3.134,space,3.5,,,,,,,,0,70,70,66,1,,
631f2effe49a1006c782c115,2023-06-16_10h01.46.171,phx_ver10,2022.2.5,MacIntel,62.5,,,,,,,,,,,,27,testing_3,zh2sh,a,zh2sh_a,zh2sh_1_azha.wav,zh2sh_8_asha.wav,,FALSE,FALSE,,,,,,,,,,,,,,j,0.616,space,0.994,,,,,,,,0,71,71,26,1,,
631f2effe49a1006c782c115,2023-06-16_10h01.46.171,phx_ver10,2022.2.5,MacIntel,62.5,,,,,,,,,,,,50,testing_3,zh2j,a,zh2j_a,zh2j_8_aja.wav,zh2j_8_aja.wav,,TRUE,FALSE,,,,,,,,,,,,,,f,0.526,space,0.975,,,,,,,,0,72,72,49,1,,
631f2effe49a1006c782c115,2023-06-16_10h01.46.171,phx_ver10,2022.2.5,MacIntel,62.5,,,,,,,,,,,,125,testing_3,sh2j,ai,sh2j_ai,sh2j_1_aishai.wav,sh2j_1_aishai.wav,,TRUE,FALSE,,,,,,,,,,,,,,j,0.791,space,1.623,,,,,,,,0,73,73,124,1,,
631f2effe49a1006c782c115,2023-06-16_10h01.46.171,phx_ver10,2022.2.5,MacIntel,62.5,,,,,,,,,,,,129,testing_3,sh2j,au,sh2j_au,sh2j_1_aushau.wav,sh2j_1_aushau.wav,,TRUE,FALSE,,,,,,,,,,,,,,j,6.838,space,7.155,,,,,,,,0,74,74,128,1,,
631f2effe49a1006c782c115,2023-06-16_10h01.46.171,phx_ver10,2022.2.5,MacIntel,62.5,,,,,,,,,,,,58,testing_3,zh2j,au,zh2j_au,zh2j_8_aujau.wav,zh2j_8_aujau.wav,,TRUE,FALSE,,,,,,,,,,,,,,j,0.205,space,0.557,,,,,,,,0,75,75,57,1,,
631f2effe49a1006c782c115,2023-06-16_10h01.46.171,phx_ver10,2022.2.5,MacIntel,62.5,,,,,,,,,,,,98,testing_3,sh2x,a,sh2x_a,sh2x_8_axa.wav,sh2x_8_axa.wav,,TRUE,FALSE,,,,,,,,,,,,,,j,0.344,space,0.642,,,,,,,,0,76,76,97,1,,
631f2effe49a1006c782c115,2023-06-16_10h01.46.171,phx_ver10,2022.2.5,MacIntel,62.5,,,,,,,,,,,,37,testing_3,zh2sh,e,zh2sh_e,zh2sh_1_ezhe.wav,zh2sh_1_ezhe.wav,,TRUE,FALSE,,,,,,,,,,,,,,j,0.99,space,1.94,,,,,,,,0,77,77,36,1,,
631f2effe49a1006c782c115,2023-06-16_10h01.46.171,phx_ver10,2022.2.5,MacIntel,62.5,,,,,,,,,,,,109,testing_3,sh2x,e,sh2x_e,sh2x_1_eshe.wav,sh2x_1_eshe.wav,,TRUE,FALSE,,,,,,,,,,,,,,j,0.575,space,0.942,,,,,,,,0,78,78,108,1,,
631f2effe49a1006c782c115,2023-06-16_10h01.46.171,phx_ver10,2022.2.5,MacIntel,62.5,,,,,,,,,,,,34,testing_3,zh2sh,au,zh2sh_au,zh2sh_8_aushau.wav,zh2sh_8_aushau.wav,,TRUE,FALSE,,,,,,,,,,,,,,j,0.157,space,0.591,,,,,,,,0,79,79,33,1,,
631f2effe49a1006c782c115,2023-06-16_10h01.46.171,phx_ver10,2022.2.5,MacIntel,62.5,,,,,,,,,,,,137,testing_3,sh2j,ei,sh2j_ei,sh2j_1_eishei.wav,sh2j_1_eishei.wav,,TRUE,FALSE,,,,,,,,,,,,,,j,1.042,space,1.273,,,,,,,,0,80,80,136,1,,
631f2effe49a1006c782c115,2023-06-16_10h01.46.171,phx_ver10,2022.2.5,MacIntel,62.5,,,,,,,,,,,,20,testing_2,zh2x,au,zh2x_au,zh2x_8_auxau.wav,zh2x_1_auzhau.wav,,FALSE,FALSE,,,,,,,,,,,,,,j,0.092,space,0.373,,,,,,,,0,81,81,19,1,,
631f2effe49a1006c782c115,2023-06-16_10h01.46.171,phx_ver10,2022.2.5,MacIntel,62.5,,,,,,,,,,,,7,testing_1,zh2x,e,zh2x_e,zh2x_1_ezhe.wav,zh2x_8_exe.wav,,FALSE,TRUE,,,,,,,,,,,,,,j,0.423,space,0.688,,,,,,,,0,82,82,6,1,,
631f2effe49a1006c782c115,2023-06-16_10h01.46.171,phx_ver10,2022.2.5,MacIntel,62.5,,,,,,,,,,,,63,testing_3,zh2j,e,zh2j_e,zh2j_1_ezhe.wav,zh2j_8_eje.wav,,FALSE,FALSE,,,,,,,,,,,,,,j,0.338,space,0.507,,,,,,,,0,83,83,62,1,,
631f2effe49a1006c782c115,2023-06-16_10h01.46.171,phx_ver10,2022.2.5,MacIntel,62.5,,,,,,,,,,,,78,testing_3,j2x,ai,j2x_ai,j2x_8_aixai.wav,j2x_8_aixai.wav,,TRUE,FALSE,,,,,,,,,,,,,,j,0.354,space,0.671,,,,,,,,0,84,84,77,1,,
631f2effe49a1006c782c115,2023-06-16_10h01.46.171,phx_ver10,2022.2.5,MacIntel,62.5,,,,,,,,,,,,70,testing_3,zh2j,i,zh2j_i,zh2j_8_iji.wav,zh2j_8_iji.wav,,TRUE,FALSE,,,,,,,,,,,,,,j,0.333,space,0.7,,,,,,,,0,85,85,69,1,,
631f2effe49a1006c782c115,2023-06-16_10h01.46.171,phx_ver10,2022.2.5,MacIntel,62.5,,,,,,,,,,,,115,testing_3,sh2x,ei,sh2x_ei,sh2x_1_eishei.wav,sh2x_8_eixei.wav,,FALSE,FALSE,,,,,,,,,,,,,,j,0.274,space,0.551,,,,,,,,0,86,86,114,1,,
631f2effe49a1006c782c115,2023-06-16_10h01.46.171,phx_ver10,2022.2.5,MacIntel,62.5,,,,,,,,,,,,22,testing_2,zh2x,ei,zh2x_ei,zh2x_8_eixei.wav,zh2x_8_eixei.wav,,TRUE,FALSE,,,,,,,,,,,,,,j,0.271,space,0.454,,,,,,,,0,87,87,21,1,,
631f2effe49a1006c782c115,2023-06-16_10h01.46.171,phx_ver10,2022.2.5,MacIntel,62.5,,,,,,,,,,,,124,testing_3,sh2j,a,sh2j_a,sh2j_8_aja.wav,sh2j_1_asha.wav,,FALSE,FALSE,,,,,,,,,,,,,,j,0.304,space,0.499,,,,,,,,0,88,88,123,1,,
631f2effe49a1006c782c115,2023-06-16_10h01.46.171,phx_ver10,2022.2.5,MacIntel,62.5,,,,,,,,,,,,66,testing_3,zh2j,ei,zh2j_ei,zh2j_8_eijei.wav,zh2j_8_eijei.wav,,TRUE,FALSE,,,,,,,,,,,,,,j,0.384,space,0.599,,,,,,,,0,89,89,65,1,,
631f2effe49a1006c782c115,2023-06-16_10h01.46.171,phx_ver10,2022.2.5,MacIntel,62.5,,,,,,,,,,,,29,testing_3,zh2sh,ai,zh2sh_ai,zh2sh_1_aizhai.wav,zh2sh_1_aizhai.wav,,TRUE,FALSE,,,,,,,,,,,,,,j,0.085,space,0.35,,,,,,,,0,90,90,28,1,,
631f2effe49a1006c782c115,2023-06-16_10h01.46.171,phx_ver10,2022.2.5,MacIntel,62.5,,,,,,,,,,,,64,testing_3,zh2j,e,zh2j_e,zh2j_8_eje.wav,zh2j_1_ezhe.wav,,FALSE,FALSE,,,,,,,,,,,,,,j,0.288,space,0.465,,,,,,,,0,91,91,63,1,,
631f2effe49a1006c782c115,2023-06-16_10h01.46.171,phx_ver10,2022.2.5,MacIntel,62.5,,,,,,,,,,,,61,testing_3,zh2j,e,zh2j_e,zh2j_1_ezhe.wav,zh2j_1_ezhe.wav,,TRUE,FALSE,,,,,,,,,,,,,,j,0.333,space,0.533,,,,,,,,0,92,92,60,1,,
631f2effe49a1006c782c115,2023-06-16_10h01.46.171,phx_ver10,2022.2.5,MacIntel,62.5,,,,,,,,,,,,142,testing_3,sh2j,i,sh2j_i,sh2j_8_iji.wav,sh2j_8_iji.wav,,TRUE,FALSE,,,,,,,,,,,,,,j,0.582,space,0.782,,,,,,,,0,93,93,141,1,,
631f2effe49a1006c782c115,2023-06-16_10h01.46.171,phx_ver10,2022.2.5,MacIntel,62.5,,,,,,,,,,,,52,testing_3,zh2j,a,zh2j_a,zh2j_8_aja.wav,zh2j_1_azha.wav,,FALSE,FALSE,,,,,,,,,,,,,,j,0.167,space,0.381,,,,,,,,0,94,94,51,1,,
631f2effe49a1006c782c115,2023-06-16_10h01.46.171,phx_ver10,2022.2.5,MacIntel,62.5,,,,,,,,,,,,118,testing_3,sh2x,i,sh2x_i,sh2x_8_ixi.wav,sh2x_8_ixi.wav,,TRUE,FALSE,,,,,,,,,,,,,,j,0.099,space,0.352,,,,,,,,0,95,95,117,1,,
631f2effe49a1006c782c115,2023-06-16_10h01.46.171,phx_ver10,2022.2.5,MacIntel,62.5,,,,,,,,,,,,77,testing_3,j2x,ai,j2x_ai,j2x_1_aijai.wav,j2x_1_aijai.wav,,TRUE,FALSE,,,,,,,,,,,,,,f,0.284,space,0.9,,,,,,,,0,96,96,76,1,,
631f2effe49a1006c782c115,2023-06-16_10h01.46.171,phx_ver10,2022.2.5,MacIntel,62.5,,,,,,,,,,,,104,testing_3,sh2x,ai,sh2x_ai,sh2x_8_aixai.wav,sh2x_1_aishai.wav,,FALSE,FALSE,,,,,,,,,,,,,,j,0.42,space,1.015,,,,,,,,0,97,97,103,1,,
631f2effe49a1006c782c115,2023-06-16_10h01.46.171,phx_ver10,2022.2.5,MacIntel,62.5,,,,,,,,,,,,91,testing_3,j2x,ei,j2x_ei,j2x_1_eijei.wav,j2x_8_eixei.wav,,FALSE,FALSE,,,,,,,,,,,,,,f,0.149,space,0.682,,,,,,,,0,98,98,90,1,,
631f2effe49a1006c782c115,2023-06-16_10h01.46.171,phx_ver10,2022.2.5,MacIntel,62.5,,,,,,,,,,,,3,testing_1,zh2x,a,zh2x_a,zh2x_1_azha.wav,zh2x_8_axa.wav,,FALSE,TRUE,,,,,,,,,,,,,,f,0.386,space,0.999,,,,,,,,0,99,99,2,1,,
631f2effe49a1006c782c115,2023-06-16_10h01.46.171,phx_ver10,2022.2.5,MacIntel,62.5,,,,,,,,,,,,117,testing_3,sh2x,i,sh2x_i,sh2x_1_ishi.wav,sh2x_1_ishi.wav,,TRUE,FALSE,,,,,,,,,,,,,,f,0.601,space,1.054,,,,,,,,0,100,100,116,1,,
631f2effe49a1006c782c115,2023-06-16_10h01.46.171,phx_ver10,2022.2.5,MacIntel,62.5,,,,,,,,,,,,53,testing_3,zh2j,ai,zh2j_ai,zh2j_1_aizhai.wav,zh2j_1_aizhai.wav,,TRUE,FALSE,,,,,,,,,,,,,,f,0.382,space,0.682,,,,,,,,0,101,101,52,1,,
631f2effe49a1006c782c115,2023-06-16_10h01.46.171,phx_ver10,2022.2.5,MacIntel,62.5,,,,,,,,,,,,97,testing_3,sh2x,a,sh2x_a,sh2x_1_asha.wav,sh2x_1_asha.wav,,TRUE,FALSE,,,,,,,,,,,,,,f,0.233,space,0.546,,,,,,,,0,102,102,96,1,,
631f2effe49a1006c782c115,2023-06-16_10h01.46.171,phx_ver10,2022.2.5,MacIntel,62.5,,,,,,,,,,,,88,testing_3,j2x,e,j2x_e,j2x_8_exe.wav,j2x_1_eje.wav,,FALSE,FALSE,,,,,,,,,,,,,,f,0.532,space,0.976,,,,,,,,0,103,103,87,1,,
631f2effe49a1006c782c115,2023-06-16_10h01.46.171,phx_ver10,2022.2.5,MacIntel,62.5,,,,,,,,,,,,127,testing_3,sh2j,ai,sh2j_ai,sh2j_1_aishai.wav,sh2j_8_aijai.wav,,FALSE,FALSE,,,,,,,,,,,,,,f,0.483,space,0.902,,,,,,,,0,104,104,126,1,,
631f2effe49a1006c782c115,2023-06-16_10h01.46.171,phx_ver10,2022.2.5,MacIntel,62.5,,,,,,,,,,,,33,testing_3,zh2sh,au,zh2sh_au,zh2sh_1_auzhau.wav,zh2sh_1_auzhau.wav,,TRUE,FALSE,,,,,,,,,,,,,,f,0.003,space,0.604,,,,,,,,0,105,105,32,1,,
631f2effe49a1006c782c115,2023-06-16_10h01.46.171,phx_ver10,2022.2.5,MacIntel,62.5,,,,,,,,,,,,90,testing_3,j2x,ei,j2x_ei,j2x_8_eixei.wav,j2x_8_eixei.wav,,TRUE,FALSE,,,,,,,,,,,,,,f,0.085,space,0.601,,,,,,,,0,106,106,89,1,,
631f2effe49a1006c782c115,2023-06-16_10h01.46.171,phx_ver10,2022.2.5,MacIntel,62.5,,,,,,,,,,,,83,testing_3,j2x,au,j2x_au,j2x_1_aujau.wav,j2x_8_auxau.wav,,FALSE,FALSE,,,,,,,,,,,,,,f,0.478,space,0.8,,,,,,,,0,107,107,82,1,,
631f2effe49a1006c782c115,2023-06-16_10h01.46.171,phx_ver10,2022.2.5,MacIntel,62.5,,,,,,,,,,,,8,testing_1,zh2x,e,zh2x_e,zh2x_8_exe.wav,zh2x_1_ezhe.wav,,FALSE,TRUE,,,,,,,,,,,,,,f,0.31,space,0.793,,,,,,,,0,108,108,7,1,,
631f2effe49a1006c782c115,2023-06-16_10h01.46.171,phx_ver10,2022.2.5,MacIntel,62.5,,,,,,,,,,,,49,testing_3,zh2j,a,zh2j_a,zh2j_1_azha.wav,zh2j_1_azha.wav,,TRUE,FALSE,,,,,,,,,,,,,,f,0.383,space,1.151,,,,,,,,0,109,109,48,1,,
631f2effe49a1006c782c115,2023-06-16_10h01.46.171,phx_ver10,2022.2.5,MacIntel,62.5,,,,,,,,,,,,76,testing_3,j2x,a,j2x_a,j2x_8_axa.wav,j2x_1_aja.wav,,FALSE,FALSE,,,,,,,,,,,,,,f,0.436,space,1.183,,,,,,,,0,110,110,75,1,,
631f2effe49a1006c782c115,2023-06-16_10h01.46.171,phx_ver10,2022.2.5,MacIntel,62.5,,,,,,,,,,,,111,testing_3,sh2x,e,sh2x_e,sh2x_1_eshe.wav,sh2x_8_exe.wav,,FALSE,FALSE,,,,,,,,,,,,,,f,0.932,space,1.568,,,,,,,,0,111,111,110,1,,
631f2effe49a1006c782c115,2023-06-16_10h01.46.171,phx_ver10,2022.2.5,MacIntel,62.5,,,,,,,,,,,,19,testing_2,zh2x,au,zh2x_au,zh2x_1_auzhau.wav,zh2x_8_auxau.wav,,FALSE,FALSE,,,,,,,,,,,,,,f,0.712,space,1.405,,,,,,,,0,112,112,18,1,,
631f2effe49a1006c782c115,2023-06-16_10h01.46.171,phx_ver10,2022.2.5,MacIntel,62.5,,,,,,,,,,,,110,testing_3,sh2x,e,sh2x_e,sh2x_8_exe.wav,sh2x_8_exe.wav,,TRUE,FALSE,,,,,,,,,,,,,,f,0.829,space,1.344,,,,,,,,0,113,113,109,1,,
631f2effe49a1006c782c115,2023-06-16_10h01.46.171,phx_ver10,2022.2.5,MacIntel,62.5,,,,,,,,,,,,18,testing_2,zh2x,au,zh2x_au,zh2x_8_auxau.wav,zh2x_8_auxau.wav,,TRUE,FALSE,,,,,,,,,,,,,,f,0.016,space,0.399,,,,,,,,0,114,114,17,1,,
631f2effe49a1006c782c115,2023-06-16_10h01.46.171,phx_ver10,2022.2.5,MacIntel,62.5,,,,,,,,,,,,131,testing_3,sh2j,au,sh2j_au,sh2j_1_aushau.wav,sh2j_8_aujau.wav,,FALSE,FALSE,,,,,,,,,,,,,,f,0.006,space,0.349,,,,,,,,0,115,115,130,1,,
631f2effe49a1006c782c115,2023-06-16_10h01.46.171,phx_ver10,2022.2.5,MacIntel,62.5,,,,,,,,,,,,84,testing_3,j2x,au,j2x_au,j2x_8_auxau.wav,j2x_1_aujau.wav,,FALSE,FALSE,,,,,,,,,,,,,,f,0.085,space,0.475,,,,,,,,0,116,116,83,1,,
631f2effe49a1006c782c115,2023-06-16_10h01.46.171,phx_ver10,2022.2.5,MacIntel,62.5,,,,,,,,,,,,59,testing_3,zh2j,au,zh2j_au,zh2j_1_auzhau.wav,zh2j_8_aujau.wav,,FALSE,FALSE,,,,,,,,,,,,,,f,0.046,space,0.478,,,,,,,,0,117,117,58,1,,
631f2effe49a1006c782c115,2023-06-16_10h01.46.171,phx_ver10,2022.2.5,MacIntel,62.5,,,,,,,,,,,,101,testing_3,sh2x,ai,sh2x_ai,sh2x_1_aishai.wav,sh2x_1_aishai.wav,,TRUE,FALSE,,,,,,,,,,,,,,j,0.022,space,0.61,,,,,,,,0,118,118,100,1,,
631f2effe49a1006c782c115,2023-06-16_10h01.46.171,phx_ver10,2022.2.5,MacIntel,62.5,,,,,,,,,,,,32,testing_3,zh2sh,ai,zh2sh_ai,zh2sh_8_aishai.wav,zh2sh_1_aizhai.wav,,FALSE,FALSE,,,,,,,,,,,,,,j,0.248,space,0.743,,,,,,,,0,119,119,31,1,,
631f2effe49a1006c782c115,2023-06-16_10h01.46.171,phx_ver10,2022.2.5,MacIntel,62.5,,,,,,,,,,,,38,testing_3,zh2sh,e,zh2sh_e,zh2sh_8_eshe.wav,zh2sh_8_eshe.wav,,TRUE,FALSE,,,,,,,,,,,,,,j,0.689,space,1.024,,,,,,,,0,120,120,37,1,,
631f2effe49a1006c782c115,2023-06-16_10h01.46.171,phx_ver10,2022.2.5,MacIntel,62.5,,,,,,,,,,,,45,testing_3,zh2sh,i,zh2sh_i,zh2sh_1_izhi.wav,zh2sh_1_izhi.wav,,TRUE,FALSE,,,,,,,,,,,,,,j,0.194,space,0.778,,,,,,,,0,121,121,44,1,,
631f2effe49a1006c782c115,2023-06-16_10h01.46.171,phx_ver10,2022.2.5,MacIntel,62.5,,,,,,,,,,,,56,testing_3,zh2j,ai,zh2j_ai,zh2j_8_aijai.wav,zh2j_1_aizhai.wav,,FALSE,FALSE,,,,,,,,,,,,,,j,0.257,space,0.715,,,,,,,,0,122,122,55,1,,
631f2effe49a1006c782c115,2023-06-16_10h01.46.171,phx_ver10,2022.2.5,MacIntel,62.5,,,,,,,,,,,,28,testing_3,zh2sh,a,zh2sh_a,zh2sh_8_asha.wav,zh2sh_1_azha.wav,,FALSE,FALSE,,,,,,,,,,,,,,f,0.689,space,1.274,,,,,,,,0,123,123,27,1,,
631f2effe49a1006c782c115,2023-06-16_10h01.46.171,phx_ver10,2022.2.5,MacIntel,62.5,,,,,,,,,,,,136,testing_3,sh2j,e,sh2j_e,sh2j_8_eje.wav,sh2j_1_eshe.wav,,FALSE,FALSE,,,,,,,,,,,,,,f,0.373,space,0.716,,,,,,,,0,124,124,135,1,,
631f2effe49a1006c782c115,2023-06-16_10h01.46.171,phx_ver10,2022.2.5,MacIntel,62.5,,,,,,,,,,,,75,testing_3,j2x,a,j2x_a,j2x_1_aja.wav,j2x_8_axa.wav,,FALSE,FALSE,,,,,,,,,,,,,,f,0.342,space,0.683,,,,,,,,0,125,125,74,1,,
631f2effe49a1006c782c115,2023-06-16_10h01.46.171,phx_ver10,2022.2.5,MacIntel,62.5,,,,,,,,,,,,40,testing_3,zh2sh,e,zh2sh_e,zh2sh_8_eshe.wav,zh2sh_1_ezhe.wav,,FALSE,FALSE,,,,,,,,,,,,,,f,0.374,space,0.693,,,,,,,,0,126,126,39,1,,
631f2effe49a1006c782c115,2023-06-16_10h01.46.171,phx_ver10,2022.2.5,MacIntel,62.5,,,,,,,,,,,,36,testing_3,zh2sh,au,zh2sh_au,zh2sh_8_aushau.wav,zh2sh_1_auzhau.wav,,FALSE,FALSE,,,,,,,,,,,,,,f,0.327,space,0.656,,,,,,,,0,127,127,35,1,,
631f2effe49a1006c782c115,2023-06-16_10h01.46.171,phx_ver10,2022.2.5,MacIntel,62.5,,,,,,,,,,,,9,testing_1,zh2x,i,zh2x_i,zh2x_1_izhi.wav,zh2x_1_izhi_copy.wav,,TRUE,TRUE,,,,,,,,,,,,,,f,0.156,space,0.475,,,,,,,,0,128,128,8,1,,
631f2effe49a1006c782c115,2023-06-16_10h01.46.171,phx_ver10,2022.2.5,MacIntel,62.5,,,,,,,,,,,,13,testing_2,zh2x,ai,zh2x_ai,zh2x_1_aizhai.wav,zh2x_1_aizhai.wav,,TRUE,FALSE,,,,,,,,,,,,,,f,0.372,space,0.667,,,,,,,,0,129,129,12,1,,
631f2effe49a1006c782c115,2023-06-16_10h01.46.171,phx_ver10,2022.2.5,MacIntel,62.5,,,,,,,,,,,,74,testing_3,j2x,a,j2x_a,j2x_8_axa.wav,j2x_8_axa.wav,,TRUE,FALSE,,,,,,,,,,,,,,f,0.782,space,0.972,,,,,,,,0,130,130,73,1,,
631f2effe49a1006c782c115,2023-06-16_10h01.46.171,phx_ver10,2022.2.5,MacIntel,62.5,,,,,,,,,,,,128,testing_3,sh2j,ai,sh2j_ai,sh2j_8_aijai.wav,sh2j_1_aishai.wav,,FALSE,FALSE,,,,,,,,,,,,,,j,0.434,space,0.699,,,,,,,,0,131,131,127,1,,
631f2effe49a1006c782c115,2023-06-16_10h01.46.171,phx_ver10,2022.2.5,MacIntel,62.5,,,,,,,,,,,,82,testing_3,j2x,au,j2x_au,j2x_8_auxau.wav,j2x_8_auxau.wav,,TRUE,FALSE,,,,,,,,,,,,,,f,0.041,space,0.401,,,,,,,,0,132,132,81,1,,
631f2effe49a1006c782c115,2023-06-16_10h01.46.171,phx_ver10,2022.2.5,MacIntel,62.5,,,,,,,,,,,,51,testing_3,zh2j,a,zh2j_a,zh2j_1_azha.wav,zh2j_8_aja.wav,,FALSE,FALSE,,,,,,,,,,,,,,j,0.149,space,0.455,,,,,,,,0,133,133,50,1,,
631f2effe49a1006c782c115,2023-06-16_10h01.46.171,phx_ver10,2022.2.5,MacIntel,62.5,,,,,,,,,,,,25,testing_3,zh2sh,a,zh2sh_a,zh2sh_1_azha.wav,zh2sh_1_azha.wav,,TRUE,FALSE,,,,,,,,,,,,,,f,0.19,space,0.566,,,,,,,,0,134,134,24,1,,
631f2effe49a1006c782c115,2023-06-16_10h01.46.171,phx_ver10,2022.2.5,MacIntel,62.5,,,,,,,,,,,,6,testing_1,zh2x,e,zh2x_e,zh2x_8_exe.wav,zh2x_8_exe_copy.wav,,TRUE,TRUE,,,,,,,,,,,,,,f,0.166,space,0.538,,,,,,,,0,135,135,5,1,,
631f2effe49a1006c782c115,2023-06-16_10h01.46.171,phx_ver10,2022.2.5,MacIntel,62.5,,,,,,,,,,,,112,testing_3,sh2x,e,sh2x_e,sh2x_8_exe.wav,sh2x_1_eshe.wav,,FALSE,FALSE,,,,,,,,,,,,,,f,0.316,space,0.622,,,,,,,,0,136,136,111,1,,
631f2effe49a1006c782c115,2023-06-16_10h01.46.171,phx_ver10,2022.2.5,MacIntel,62.5,,,,,,,,,,,,135,testing_3,sh2j,e,sh2j_e,sh2j_1_eshe.wav,sh2j_8_eje.wav,,FALSE,FALSE,,,,,,,,,,,,,,f,0.152,space,0.515,,,,,,,,0,137,137,134,1,,
631f2effe49a1006c782c115,2023-06-16_10h01.46.171,phx_ver10,2022.2.5,MacIntel,62.5,,,,,,,,,,,,39,testing_3,zh2sh,e,zh2sh_e,zh2sh_1_ezhe.wav,zh2sh_8_eshe.wav,,FALSE,FALSE,,,,,,,,,,,,,,f,0.332,space,0.681,,,,,,,,0,138,138,38,1,,
631f2effe49a1006c782c115,2023-06-16_10h01.46.171,phx_ver10,2022.2.5,MacIntel,62.5,,,,,,,,,,,,103,testing_3,sh2x,ai,sh2x_ai,sh2x_1_aishai.wav,sh2x_8_aixai.wav,,FALSE,FALSE,,,,,,,,,,,,,,j,0.333,space,0.932,,,,,,,,0,139,139,102,1,,
631f2effe49a1006c782c115,2023-06-16_10h01.46.171,phx_ver10,2022.2.5,MacIntel,62.5,,,,,,,,,,,,4,testing_1,zh2x,a,zh2x_a,zh2x_8_axa.wav,zh2x_1_azha.wav,,FALSE,TRUE,,,,,,,,,,,,,,j,0.233,space,0.767,,,,,,,,0,140,140,3,1,,
631f2effe49a1006c782c115,2023-06-16_10h01.46.171,phx_ver10,2022.2.5,MacIntel,62.5,,,,,,,,,,,,106,testing_3,sh2x,au,sh2x_au,sh2x_8_auxau.wav,sh2x_8_auxau.wav,,TRUE,FALSE,,,,,,,,,,,,,,j,0.051,space,0.382,,,,,,,,0,141,141,105,1,,
631f2effe49a1006c782c115,2023-06-16_10h01.46.171,phx_ver10,2022.2.5,MacIntel,62.5,,,,,,,,,,,,121,testing_3,sh2j,a,sh2j_a,sh2j_1_asha.wav,sh2j_1_asha.wav,,TRUE,FALSE,,,,,,,,,,,,,,j,0.285,space,0.568,,,,,,,,0,142,142,120,1,,
631f2effe49a1006c782c115,2023-06-16_10h01.46.171,phx_ver10,2022.2.5,MacIntel,62.5,,,,,,,,,,,,126,testing_3,sh2j,ai,sh2j_ai,sh2j_8_aijai.wav,sh2j_8_aijai.wav,,TRUE,FALSE,,,,,,,,,,,,,,j,0.365,space,0.648,,,,,,,,0,143,143,125,1,,
631f2effe49a1006c782c115,2023-06-16_10h01.46.171,phx_ver10,2022.2.5,MacIntel,62.5,,,,,,,,,,,,,,,,,,,,,,,,,,,,,,,,,,,,,,,,,,,,,,,,,,,space,1.875
