participant,date,expName,psychopyVersion,OS,frameRate,space_1.keys,space_1.rt,space_2.keys,space_2.rt,space_train.keys,space_train.rt,training.thisRepN,training.thisTrialN,training.thisN,training.thisIndex,training.ran,token_id,task,continuum,vowel,series,sound_1,sound_2,img,same,trained,FJ_attn.keys,FJ_attn.rt,space_attn.keys,space_attn.rt,if_attn_test.thisRepN,if_attn_test.thisTrialN,if_attn_test.thisN,if_attn_test.thisIndex,if_attn_test.ran,space_trans_1.keys,space_trans_1.rt,space_trans_11.keys,space_trans_11.rt,FJ_test.keys,FJ_test.rt,space_test.keys,space_test.rt,testing_pre.thisRepN,testing_pre.thisTrialN,testing_pre.thisN,testing_pre.thisIndex,testing_pre.ran,space_trans_2.keys,space_trans_2.rt,testing_all.thisRepN,testing_all.thisTrialN,testing_all.thisN,testing_all.thisIndex,testing_all.ran,space_ending.keys,space_ending.rt
6368e3f48413ec73f1962b8a,2023-06-16_10h20.13.738,phx_ver10,2022.2.5,Win32,60.03121623,,,,,,,,,,,,,,,,,,,,,,,,,,,,,,,,,,,,,,,,,,,,,,,,,,,,
6368e3f48413ec73f1962b8a,2023-06-16_10h20.13.738,phx_ver10,2022.2.5,Win32,60.03121623,space,3.177,,,,,,,,,,,,,,,,,,,,,,,,,,,,,,,,,,,,,,,,,,,,,,,,,,
6368e3f48413ec73f1962b8a,2023-06-16_10h20.13.738,phx_ver10,2022.2.5,Win32,60.03121623,,,space,1.7638,,,,,,,,,,,,,,,,,,,,,,,,,,,,,,,,,,,,,,,,,,,,,,,,
6368e3f48413ec73f1962b8a,2023-06-16_10h20.13.738,phx_ver10,2022.2.5,Win32,60.03121623,,,,,space,1.587,0,0,0,16,1,17,training,zh2x,e,zh2x_e,zh2x_1_ezhe.wav,,ezhe.jpg,,,,,,,,,,,,,,,,,,,,,,,,,,,,,,,,,
6368e3f48413ec73f1962b8a,2023-06-16_10h20.13.738,phx_ver10,2022.2.5,Win32,60.03121623,,,,,space,1.2092,0,1,1,28,1,29,training,zh2x,e,zh2x_e,zh2x_7_exe.wav,,exe.jpg,,,,,,,,,,,,,,,,,,,,,,,,,,,,,,,,,
6368e3f48413ec73f1962b8a,2023-06-16_10h20.13.738,phx_ver10,2022.2.5,Win32,60.03121623,,,,,space,0.7417,0,2,2,34,1,35,training,zh2x,i,zh2x_i,zh2x_2_izhi.wav,,izhi.jpg,,,,,,,,,,,,,,,,,,,,,,,,,,,,,,,,,
6368e3f48413ec73f1962b8a,2023-06-16_10h20.13.738,phx_ver10,2022.2.5,Win32,60.03121623,,,,,space,0.0725,0,3,3,46,1,47,training,zh2x,i,zh2x_i,zh2x_7_ixi.wav,,ixi.jpg,,,,,,,,,,,,,,,,,,,,,,,,,,,,,,,,,
6368e3f48413ec73f1962b8a,2023-06-16_10h20.13.738,phx_ver10,2022.2.5,Win32,60.03121623,,,,,space,0.5674,0,4,4,17,1,18,training,zh2x,e,zh2x_e,zh2x_2_ezhe.wav,,ezhe.jpg,,,,,,,,,,,,,,,,,,,,,,,,,,,,,,,,,
6368e3f48413ec73f1962b8a,2023-06-16_10h20.13.738,phx_ver10,2022.2.5,Win32,60.03121623,,,,,space,0.3822,0,5,5,44,1,45,training,zh2x,i,zh2x_i,zh2x_7_ixi.wav,,ixi.jpg,,,,,,,,,,,,,,,,,,,,,,,,,,,,,,,,,
6368e3f48413ec73f1962b8a,2023-06-16_10h20.13.738,phx_ver10,2022.2.5,Win32,60.03121623,,,,,,,,,,,,,attn_test,,,,zh2x_1_izhi.wav,zh2x_1_ezhe.wav,ezhe.jpg,RIGHT,,f,7.1909,space,7.6157,0,0,0,0,1,,,,,,,,,,,,,,,,,,,,,,
6368e3f48413ec73f1962b8a,2023-06-16_10h20.13.738,phx_ver10,2022.2.5,Win32,60.03121623,,,,,space,1.2517,0,6,6,12,1,13,training,zh2x,a,zh2x_a,zh2x_7_axa.wav,,axa.jpg,,,,,,,,,,,,,,,,,,,,,,,,,,,,,,,,,
6368e3f48413ec73f1962b8a,2023-06-16_10h20.13.738,phx_ver10,2022.2.5,Win32,60.03121623,,,,,space,0.3427,0,7,7,25,1,26,training,zh2x,e,zh2x_e,zh2x_6_exe.wav,,exe.jpg,,,,,,,,,,,,,,,,,,,,,,,,,,,,,,,,,
6368e3f48413ec73f1962b8a,2023-06-16_10h20.13.738,phx_ver10,2022.2.5,Win32,60.03121623,,,,,space,0.315,0,8,8,14,1,15,training,zh2x,a,zh2x_a,zh2x_7_axa.wav,,axa.jpg,,,,,,,,,,,,,,,,,,,,,,,,,,,,,,,,,
6368e3f48413ec73f1962b8a,2023-06-16_10h20.13.738,phx_ver10,2022.2.5,Win32,60.03121623,,,,,space,0.167,0,9,9,24,1,25,training,zh2x,e,zh2x_e,zh2x_5_exe.wav,,exe.jpg,,,,,,,,,,,,,,,,,,,,,,,,,,,,,,,,,
6368e3f48413ec73f1962b8a,2023-06-16_10h20.13.738,phx_ver10,2022.2.5,Win32,60.03121623,,,,,space,0.1013,0,10,10,1,1,2,training,zh2x,a,zh2x_a,zh2x_2_azha.wav,,azha.jpg,,,,,,,,,,,,,,,,,,,,,,,,,,,,,,,,,
6368e3f48413ec73f1962b8a,2023-06-16_10h20.13.738,phx_ver10,2022.2.5,Win32,60.03121623,,,,,space,0.2085,0,11,11,26,1,27,training,zh2x,e,zh2x_e,zh2x_6_exe.wav,,exe.jpg,,,,,,,,,,,,,,,,,,,,,,,,,,,,,,,,,
6368e3f48413ec73f1962b8a,2023-06-16_10h20.13.738,phx_ver10,2022.2.5,Win32,60.03121623,,,,,,,,,,,,,attn_test,,,,zh2x_8_axa.wav,zh2x_8_exe.wav,axa.jpg,LEFT,,f,0.5158,space,1.6161,0,0,0,0,1,,,,,,,,,,,,,,,,,,,,,,
6368e3f48413ec73f1962b8a,2023-06-16_10h20.13.738,phx_ver10,2022.2.5,Win32,60.03121623,,,,,space,0.8271,0,12,12,7,1,8,training,zh2x,a,zh2x_a,zh2x_4_azha.wav,,azha.jpg,,,,,,,,,,,,,,,,,,,,,,,,,,,,,,,,,
6368e3f48413ec73f1962b8a,2023-06-16_10h20.13.738,phx_ver10,2022.2.5,Win32,60.03121623,,,,,space,0.3227,0,13,13,5,1,6,training,zh2x,a,zh2x_a,zh2x_3_azha.wav,,azha.jpg,,,,,,,,,,,,,,,,,,,,,,,,,,,,,,,,,
6368e3f48413ec73f1962b8a,2023-06-16_10h20.13.738,phx_ver10,2022.2.5,Win32,60.03121623,,,,,space,0.3539,0,14,14,11,1,12,training,zh2x,a,zh2x_a,zh2x_7_axa.wav,,axa.jpg,,,,,,,,,,,,,,,,,,,,,,,,,,,,,,,,,
6368e3f48413ec73f1962b8a,2023-06-16_10h20.13.738,phx_ver10,2022.2.5,Win32,60.03121623,,,,,space,1.5162,0,15,15,19,1,20,training,zh2x,e,zh2x_e,zh2x_2_ezhe.wav,,ezhe.jpg,,,,,,,,,,,,,,,,,,,,,,,,,,,,,,,,,
6368e3f48413ec73f1962b8a,2023-06-16_10h20.13.738,phx_ver10,2022.2.5,Win32,60.03121623,,,,,space,0.4498,0,16,16,41,1,42,training,zh2x,i,zh2x_i,zh2x_6_ixi.wav,,ixi.jpg,,,,,,,,,,,,,,,,,,,,,,,,,,,,,,,,,
6368e3f48413ec73f1962b8a,2023-06-16_10h20.13.738,phx_ver10,2022.2.5,Win32,60.03121623,,,,,space,0.0461,0,17,17,15,1,16,training,zh2x,a,zh2x_a,zh2x_8_axa.wav,,axa.jpg,,,,,,,,,,,,,,,,,,,,,,,,,,,,,,,,,
6368e3f48413ec73f1962b8a,2023-06-16_10h20.13.738,phx_ver10,2022.2.5,Win32,60.03121623,,,,,,,,,,,,,attn_test,,,,zh2x_1_ezhe.wav,zh2x_1_izhi.wav,ezhe.jpg,LEFT,,f,2.8645,space,3.2525,0,0,0,0,1,,,,,,,,,,,,,,,,,,,,,,
6368e3f48413ec73f1962b8a,2023-06-16_10h20.13.738,phx_ver10,2022.2.5,Win32,60.03121623,,,,,space,0.4868,0,18,18,2,1,3,training,zh2x,a,zh2x_a,zh2x_2_azha.wav,,azha.jpg,,,,,,,,,,,,,,,,,,,,,,,,,,,,,,,,,
6368e3f48413ec73f1962b8a,2023-06-16_10h20.13.738,phx_ver10,2022.2.5,Win32,60.03121623,,,,,space,0.3841,0,19,19,40,1,41,training,zh2x,i,zh2x_i,zh2x_5_ixi.wav,,ixi.jpg,,,,,,,,,,,,,,,,,,,,,,,,,,,,,,,,,
6368e3f48413ec73f1962b8a,2023-06-16_10h20.13.738,phx_ver10,2022.2.5,Win32,60.03121623,,,,,space,0.1301,0,20,20,3,1,4,training,zh2x,a,zh2x_a,zh2x_2_azha.wav,,azha.jpg,,,,,,,,,,,,,,,,,,,,,,,,,,,,,,,,,
6368e3f48413ec73f1962b8a,2023-06-16_10h20.13.738,phx_ver10,2022.2.5,Win32,60.03121623,,,,,space,0.8624,0,21,21,43,1,44,training,zh2x,i,zh2x_i,zh2x_7_ixi.wav,,ixi.jpg,,,,,,,,,,,,,,,,,,,,,,,,,,,,,,,,,
6368e3f48413ec73f1962b8a,2023-06-16_10h20.13.738,phx_ver10,2022.2.5,Win32,60.03121623,,,,,space,0.2864,0,22,22,8,1,9,training,zh2x,a,zh2x_a,zh2x_5_axa.wav,,axa.jpg,,,,,,,,,,,,,,,,,,,,,,,,,,,,,,,,,
6368e3f48413ec73f1962b8a,2023-06-16_10h20.13.738,phx_ver10,2022.2.5,Win32,60.03121623,,,,,space,0.2806,0,23,23,36,1,37,training,zh2x,i,zh2x_i,zh2x_2_izhi.wav,,izhi.jpg,,,,,,,,,,,,,,,,,,,,,,,,,,,,,,,,,
6368e3f48413ec73f1962b8a,2023-06-16_10h20.13.738,phx_ver10,2022.2.5,Win32,60.03121623,,,,,,,,,,,,,attn_test,,,,zh2x_1_ezhe.wav,zh2x_8_ixi.wav,ixi.jpg,RIGHT,,j,0.0786,space,0.3678,0,0,0,0,1,,,,,,,,,,,,,,,,,,,,,,
6368e3f48413ec73f1962b8a,2023-06-16_10h20.13.738,phx_ver10,2022.2.5,Win32,60.03121623,,,,,space,0.153,0,24,24,31,1,32,training,zh2x,e,zh2x_e,zh2x_8_exe.wav,,exe.jpg,,,,,,,,,,,,,,,,,,,,,,,,,,,,,,,,,
6368e3f48413ec73f1962b8a,2023-06-16_10h20.13.738,phx_ver10,2022.2.5,Win32,60.03121623,,,,,space,0.0322,0,25,25,10,1,11,training,zh2x,a,zh2x_a,zh2x_6_axa.wav,,axa.jpg,,,,,,,,,,,,,,,,,,,,,,,,,,,,,,,,,
6368e3f48413ec73f1962b8a,2023-06-16_10h20.13.738,phx_ver10,2022.2.5,Win32,60.03121623,,,,,space,0.0856,0,26,26,47,1,48,training,zh2x,i,zh2x_i,zh2x_8_ixi.wav,,ixi.jpg,,,,,,,,,,,,,,,,,,,,,,,,,,,,,,,,,
6368e3f48413ec73f1962b8a,2023-06-16_10h20.13.738,phx_ver10,2022.2.5,Win32,60.03121623,,,,,space,0.0704,0,27,27,0,1,1,training,zh2x,a,zh2x_a,zh2x_1_azha.wav,,azha.jpg,,,,,,,,,,,,,,,,,,,,,,,,,,,,,,,,,
6368e3f48413ec73f1962b8a,2023-06-16_10h20.13.738,phx_ver10,2022.2.5,Win32,60.03121623,,,,,space,0.4077,0,28,28,39,1,40,training,zh2x,i,zh2x_i,zh2x_4_izhi.wav,,izhi.jpg,,,,,,,,,,,,,,,,,,,,,,,,,,,,,,,,,
6368e3f48413ec73f1962b8a,2023-06-16_10h20.13.738,phx_ver10,2022.2.5,Win32,60.03121623,,,,,space,0.1741,0,29,29,22,1,23,training,zh2x,e,zh2x_e,zh2x_3_ezhe.wav,,ezhe.jpg,,,,,,,,,,,,,,,,,,,,,,,,,,,,,,,,,
6368e3f48413ec73f1962b8a,2023-06-16_10h20.13.738,phx_ver10,2022.2.5,Win32,60.03121623,,,,,,,,,,,,,attn_test,,,,zh2x_1_ezhe.wav,zh2x_8_axa.wav,ezhe.jpg,LEFT,,f,0.2092,space,0.5175,0,0,0,0,1,,,,,,,,,,,,,,,,,,,,,,
6368e3f48413ec73f1962b8a,2023-06-16_10h20.13.738,phx_ver10,2022.2.5,Win32,60.03121623,,,,,space,0.5199,0,30,30,27,1,28,training,zh2x,e,zh2x_e,zh2x_7_exe.wav,,exe.jpg,,,,,,,,,,,,,,,,,,,,,,,,,,,,,,,,,
6368e3f48413ec73f1962b8a,2023-06-16_10h20.13.738,phx_ver10,2022.2.5,Win32,60.03121623,,,,,space,0.2336,0,31,31,32,1,33,training,zh2x,i,zh2x_i,zh2x_1_izhi.wav,,izhi.jpg,,,,,,,,,,,,,,,,,,,,,,,,,,,,,,,,,
6368e3f48413ec73f1962b8a,2023-06-16_10h20.13.738,phx_ver10,2022.2.5,Win32,60.03121623,,,,,space,0.282,0,32,32,33,1,34,training,zh2x,i,zh2x_i,zh2x_2_izhi.wav,,izhi.jpg,,,,,,,,,,,,,,,,,,,,,,,,,,,,,,,,,
6368e3f48413ec73f1962b8a,2023-06-16_10h20.13.738,phx_ver10,2022.2.5,Win32,60.03121623,,,,,space,0.2747,0,33,33,29,1,30,training,zh2x,e,zh2x_e,zh2x_7_exe.wav,,exe.jpg,,,,,,,,,,,,,,,,,,,,,,,,,,,,,,,,,
6368e3f48413ec73f1962b8a,2023-06-16_10h20.13.738,phx_ver10,2022.2.5,Win32,60.03121623,,,,,space,0.8598,0,34,34,45,1,46,training,zh2x,i,zh2x_i,zh2x_7_ixi.wav,,ixi.jpg,,,,,,,,,,,,,,,,,,,,,,,,,,,,,,,,,
6368e3f48413ec73f1962b8a,2023-06-16_10h20.13.738,phx_ver10,2022.2.5,Win32,60.03121623,,,,,space,0.0418,0,35,35,13,1,14,training,zh2x,a,zh2x_a,zh2x_7_axa.wav,,axa.jpg,,,,,,,,,,,,,,,,,,,,,,,,,,,,,,,,,
6368e3f48413ec73f1962b8a,2023-06-16_10h20.13.738,phx_ver10,2022.2.5,Win32,60.03121623,,,,,,,,,,,,,attn_test,,,,zh2x_1_izhi.wav,zh2x_1_ezhe.wav,izhi.jpg,LEFT,,f,0.1117,space,0.4652,0,0,0,0,1,,,,,,,,,,,,,,,,,,,,,,
6368e3f48413ec73f1962b8a,2023-06-16_10h20.13.738,phx_ver10,2022.2.5,Win32,60.03121623,,,,,space,0.3126,0,36,36,6,1,7,training,zh2x,a,zh2x_a,zh2x_3_azha.wav,,azha.jpg,,,,,,,,,,,,,,,,,,,,,,,,,,,,,,,,,
6368e3f48413ec73f1962b8a,2023-06-16_10h20.13.738,phx_ver10,2022.2.5,Win32,60.03121623,,,,,space,0.3332,0,37,37,9,1,10,training,zh2x,a,zh2x_a,zh2x_6_axa.wav,,axa.jpg,,,,,,,,,,,,,,,,,,,,,,,,,,,,,,,,,
6368e3f48413ec73f1962b8a,2023-06-16_10h20.13.738,phx_ver10,2022.2.5,Win32,60.03121623,,,,,space,0.3282,0,38,38,21,1,22,training,zh2x,e,zh2x_e,zh2x_3_ezhe.wav,,ezhe.jpg,,,,,,,,,,,,,,,,,,,,,,,,,,,,,,,,,
6368e3f48413ec73f1962b8a,2023-06-16_10h20.13.738,phx_ver10,2022.2.5,Win32,60.03121623,,,,,space,0.3335,0,39,39,37,1,38,training,zh2x,i,zh2x_i,zh2x_3_izhi.wav,,izhi.jpg,,,,,,,,,,,,,,,,,,,,,,,,,,,,,,,,,
6368e3f48413ec73f1962b8a,2023-06-16_10h20.13.738,phx_ver10,2022.2.5,Win32,60.03121623,,,,,space,0.1669,0,40,40,30,1,31,training,zh2x,e,zh2x_e,zh2x_7_exe.wav,,exe.jpg,,,,,,,,,,,,,,,,,,,,,,,,,,,,,,,,,
6368e3f48413ec73f1962b8a,2023-06-16_10h20.13.738,phx_ver10,2022.2.5,Win32,60.03121623,,,,,space,0.288,0,41,41,35,1,36,training,zh2x,i,zh2x_i,zh2x_2_izhi.wav,,izhi.jpg,,,,,,,,,,,,,,,,,,,,,,,,,,,,,,,,,
6368e3f48413ec73f1962b8a,2023-06-16_10h20.13.738,phx_ver10,2022.2.5,Win32,60.03121623,,,,,,,,,,,,,attn_test,,,,zh2x_1_izhi.wav,zh2x_8_axa.wav,izhi.jpg,LEFT,,f,0.2511,space,0.5169,0,0,0,0,1,,,,,,,,,,,,,,,,,,,,,,
6368e3f48413ec73f1962b8a,2023-06-16_10h20.13.738,phx_ver10,2022.2.5,Win32,60.03121623,,,,,space,0.1669,0,42,42,4,1,5,training,zh2x,a,zh2x_a,zh2x_2_azha.wav,,azha.jpg,,,,,,,,,,,,,,,,,,,,,,,,,,,,,,,,,
6368e3f48413ec73f1962b8a,2023-06-16_10h20.13.738,phx_ver10,2022.2.5,Win32,60.03121623,,,,,space,0.3095,0,43,43,23,1,24,training,zh2x,e,zh2x_e,zh2x_4_ezhe.wav,,ezhe.jpg,,,,,,,,,,,,,,,,,,,,,,,,,,,,,,,,,
6368e3f48413ec73f1962b8a,2023-06-16_10h20.13.738,phx_ver10,2022.2.5,Win32,60.03121623,,,,,space,0.3904,0,44,44,20,1,21,training,zh2x,e,zh2x_e,zh2x_2_ezhe.wav,,ezhe.jpg,,,,,,,,,,,,,,,,,,,,,,,,,,,,,,,,,
6368e3f48413ec73f1962b8a,2023-06-16_10h20.13.738,phx_ver10,2022.2.5,Win32,60.03121623,,,,,space,0.106,0,45,45,42,1,43,training,zh2x,i,zh2x_i,zh2x_6_ixi.wav,,ixi.jpg,,,,,,,,,,,,,,,,,,,,,,,,,,,,,,,,,
6368e3f48413ec73f1962b8a,2023-06-16_10h20.13.738,phx_ver10,2022.2.5,Win32,60.03121623,,,,,space,0.4296,0,46,46,18,1,19,training,zh2x,e,zh2x_e,zh2x_2_ezhe.wav,,ezhe.jpg,,,,,,,,,,,,,,,,,,,,,,,,,,,,,,,,,
6368e3f48413ec73f1962b8a,2023-06-16_10h20.13.738,phx_ver10,2022.2.5,Win32,60.03121623,,,,,space,0.325,0,47,47,38,1,39,training,zh2x,i,zh2x_i,zh2x_3_izhi.wav,,izhi.jpg,,,,,,,,,,,,,,,,,,,,,,,,,,,,,,,,,
6368e3f48413ec73f1962b8a,2023-06-16_10h20.13.738,phx_ver10,2022.2.5,Win32,60.03121623,,,,,,,,,,,,,attn_test,,,,zh2x_1_azha.wav,zh2x_1_ezhe.wav,azha.jpg,LEFT,,f,1.6589,space,2.1997,,,,,,,,,,,,,,,,,,,,,,,,,,,
6368e3f48413ec73f1962b8a,2023-06-16_10h20.13.738,phx_ver10,2022.2.5,Win32,60.03121623,,,,,,,,,,,,,,,,,,,,,,,,,,,,,,,space,1.1922,,,,,,,,,,,,,,,,,,,,
6368e3f48413ec73f1962b8a,2023-06-16_10h20.13.738,phx_ver10,2022.2.5,Win32,60.03121623,,,,,,,,,,,,,,,,,,,,,,,,,,,,,,,,,space,4.7502,,,,,,,,,,,,,,,,,,
6368e3f48413ec73f1962b8a,2023-06-16_10h20.13.738,phx_ver10,2022.2.5,Win32,60.03121623,,,,,,,,,,,,4,testing_pre,,,,eihei.wav,eihei.wav,,TRUE,,,,,,,,,,,,,,,f,0.5304,space,0.8689,0,0,0,3,1,,,,,,,,,
6368e3f48413ec73f1962b8a,2023-06-16_10h20.13.738,phx_ver10,2022.2.5,Win32,60.03121623,,,,,,,,,,,,5,testing_pre,,,,ihi.wav,ifi.wav,,FALSE,,,,,,,,,,,,,,,j,0.35,space,0.6089,0,1,1,4,1,,,,,,,,,
6368e3f48413ec73f1962b8a,2023-06-16_10h20.13.738,phx_ver10,2022.2.5,Win32,60.03121623,,,,,,,,,,,,2,testing_pre,,,,auhau.wav,aufau.wav,,FALSE,,,,,,,,,,,,,,,j,0.0131,space,0.2669,0,2,2,1,1,,,,,,,,,
6368e3f48413ec73f1962b8a,2023-06-16_10h20.13.738,phx_ver10,2022.2.5,Win32,60.03121623,,,,,,,,,,,,1,testing_pre,,,,ifi.wav,ifi.wav,,TRUE,,,,,,,,,,,,,,,f,0.395,space,0.6852,0,3,3,0,1,,,,,,,,,
6368e3f48413ec73f1962b8a,2023-06-16_10h20.13.738,phx_ver10,2022.2.5,Win32,60.03121623,,,,,,,,,,,,3,testing_pre,,,,afa.wav,aha.wav,,FALSE,,,,,,,,,,,,,,,j,0.1788,space,0.4762,0,4,4,2,1,,,,,,,,,
6368e3f48413ec73f1962b8a,2023-06-16_10h20.13.738,phx_ver10,2022.2.5,Win32,60.03121623,,,,,,,,,,,,,,,,,,,,,,,,,,,,,,,,,,,,,,,,,,,,space,0.4671,,,,,,,
6368e3f48413ec73f1962b8a,2023-06-16_10h20.13.738,phx_ver10,2022.2.5,Win32,60.03121623,,,,,,,,,,,,138,testing_3,sh2j,ei,sh2j_ei,sh2j_8_eijei.wav,sh2j_8_eijei.wav,,TRUE,FALSE,,,,,,,,,,,,,,f,0.191,space,0.5593,,,,,,,,0,0,0,137,1,,
6368e3f48413ec73f1962b8a,2023-06-16_10h20.13.738,phx_ver10,2022.2.5,Win32,60.03121623,,,,,,,,,,,,118,testing_3,sh2x,i,sh2x_i,sh2x_8_ixi.wav,sh2x_8_ixi.wav,,TRUE,FALSE,,,,,,,,,,,,,,f,0.395,space,0.6372,,,,,,,,0,1,1,117,1,,
6368e3f48413ec73f1962b8a,2023-06-16_10h20.13.738,phx_ver10,2022.2.5,Win32,60.03121623,,,,,,,,,,,,117,testing_3,sh2x,i,sh2x_i,sh2x_1_ishi.wav,sh2x_1_ishi.wav,,TRUE,FALSE,,,,,,,,,,,,,,f,1.8193,space,2.069,,,,,,,,0,2,2,116,1,,
6368e3f48413ec73f1962b8a,2023-06-16_10h20.13.738,phx_ver10,2022.2.5,Win32,60.03121623,,,,,,,,,,,,116,testing_3,sh2x,ei,sh2x_ei,sh2x_8_eixei.wav,sh2x_1_eishei.wav,,FALSE,FALSE,,,,,,,,,,,,,,f,0.2917,space,0.5853,,,,,,,,0,3,3,115,1,,
6368e3f48413ec73f1962b8a,2023-06-16_10h20.13.738,phx_ver10,2022.2.5,Win32,60.03121623,,,,,,,,,,,,44,testing_3,zh2sh,ei,zh2sh_ei,zh2sh_8_eishei.wav,zh2sh_1_eizhei.wav,,FALSE,FALSE,,,,,,,,,,,,,,j,0.2681,space,0.5863,,,,,,,,0,4,4,43,1,,
6368e3f48413ec73f1962b8a,2023-06-16_10h20.13.738,phx_ver10,2022.2.5,Win32,60.03121623,,,,,,,,,,,,42,testing_3,zh2sh,ei,zh2sh_ei,zh2sh_8_eishei.wav,zh2sh_8_eishei.wav,,TRUE,FALSE,,,,,,,,,,,,,,f,0.2117,space,0.4928,,,,,,,,0,5,5,41,1,,
6368e3f48413ec73f1962b8a,2023-06-16_10h20.13.738,phx_ver10,2022.2.5,Win32,60.03121623,,,,,,,,,,,,21,testing_2,zh2x,ei,zh2x_ei,zh2x_1_eizhei.wav,zh2x_1_eizhei.wav,,TRUE,FALSE,,,,,,,,,,,,,,f,0.1656,space,0.4412,,,,,,,,0,6,6,20,1,,
6368e3f48413ec73f1962b8a,2023-06-16_10h20.13.738,phx_ver10,2022.2.5,Win32,60.03121623,,,,,,,,,,,,58,testing_3,zh2j,au,zh2j_au,zh2j_8_aujau.wav,zh2j_8_aujau.wav,,TRUE,FALSE,,,,,,,,,,,,,,f,0.0156,space,0.319,,,,,,,,0,7,7,57,1,,
6368e3f48413ec73f1962b8a,2023-06-16_10h20.13.738,phx_ver10,2022.2.5,Win32,60.03121623,,,,,,,,,,,,86,testing_3,j2x,e,j2x_e,j2x_8_exe.wav,j2x_8_exe.wav,,TRUE,FALSE,,,,,,,,,,,,,,f,0.2699,space,0.5905,,,,,,,,0,8,8,85,1,,
6368e3f48413ec73f1962b8a,2023-06-16_10h20.13.738,phx_ver10,2022.2.5,Win32,60.03121623,,,,,,,,,,,,25,testing_3,zh2sh,a,zh2sh_a,zh2sh_1_azha.wav,zh2sh_1_azha.wav,,TRUE,FALSE,,,,,,,,,,,,,,f,0.0513,space,0.3501,,,,,,,,0,9,9,24,1,,
6368e3f48413ec73f1962b8a,2023-06-16_10h20.13.738,phx_ver10,2022.2.5,Win32,60.03121623,,,,,,,,,,,,62,testing_3,zh2j,e,zh2j_e,zh2j_8_eje.wav,zh2j_8_eje.wav,,TRUE,FALSE,,,,,,,,,,,,,,f,0.2345,space,0.5174,,,,,,,,0,10,10,61,1,,
6368e3f48413ec73f1962b8a,2023-06-16_10h20.13.738,phx_ver10,2022.2.5,Win32,60.03121623,,,,,,,,,,,,49,testing_3,zh2j,a,zh2j_a,zh2j_1_azha.wav,zh2j_1_azha.wav,,TRUE,FALSE,,,,,,,,,,,,,,f,0.0656,space,0.3551,,,,,,,,0,11,11,48,1,,
6368e3f48413ec73f1962b8a,2023-06-16_10h20.13.738,phx_ver10,2022.2.5,Win32,60.03121623,,,,,,,,,,,,11,testing_1,zh2x,i,zh2x_i,zh2x_1_izhi.wav,zh2x_8_ixi.wav,,FALSE,TRUE,,,,,,,,,,,,,,j,0.3209,space,0.584,,,,,,,,0,12,12,10,1,,
6368e3f48413ec73f1962b8a,2023-06-16_10h20.13.738,phx_ver10,2022.2.5,Win32,60.03121623,,,,,,,,,,,,135,testing_3,sh2j,e,sh2j_e,sh2j_1_eshe.wav,sh2j_8_eje.wav,,FALSE,FALSE,,,,,,,,,,,,,,j,0.0658,space,0.4049,,,,,,,,0,13,13,134,1,,
6368e3f48413ec73f1962b8a,2023-06-16_10h20.13.738,phx_ver10,2022.2.5,Win32,60.03121623,,,,,,,,,,,,64,testing_3,zh2j,e,zh2j_e,zh2j_8_eje.wav,zh2j_1_ezhe.wav,,FALSE,FALSE,,,,,,,,,,,,,,f,0.2836,space,0.5123,,,,,,,,0,14,14,63,1,,
6368e3f48413ec73f1962b8a,2023-06-16_10h20.13.738,phx_ver10,2022.2.5,Win32,60.03121623,,,,,,,,,,,,15,testing_2,zh2x,ai,zh2x_ai,zh2x_1_aizhai.wav,zh2x_8_aixai.wav,,FALSE,FALSE,,,,,,,,,,,,,,j,0.2075,space,0.5171,,,,,,,,0,15,15,14,1,,
6368e3f48413ec73f1962b8a,2023-06-16_10h20.13.738,phx_ver10,2022.2.5,Win32,60.03121623,,,,,,,,,,,,13,testing_2,zh2x,ai,zh2x_ai,zh2x_1_aizhai.wav,zh2x_1_aizhai.wav,,TRUE,FALSE,,,,,,,,,,,,,,f,0.1958,space,0.5057,,,,,,,,0,16,16,12,1,,
6368e3f48413ec73f1962b8a,2023-06-16_10h20.13.738,phx_ver10,2022.2.5,Win32,60.03121623,,,,,,,,,,,,40,testing_3,zh2sh,e,zh2sh_e,zh2sh_8_eshe.wav,zh2sh_1_ezhe.wav,,FALSE,FALSE,,,,,,,,,,,,,,j,0.3123,space,0.683,,,,,,,,0,17,17,39,1,,
6368e3f48413ec73f1962b8a,2023-06-16_10h20.13.738,phx_ver10,2022.2.5,Win32,60.03121623,,,,,,,,,,,,47,testing_3,zh2sh,i,zh2sh_i,zh2sh_1_izhi.wav,zh2sh_8_ishi.wav,,FALSE,FALSE,,,,,,,,,,,,,,j,0.1066,space,0.3998,,,,,,,,0,18,18,46,1,,
6368e3f48413ec73f1962b8a,2023-06-16_10h20.13.738,phx_ver10,2022.2.5,Win32,60.03121623,,,,,,,,,,,,75,testing_3,j2x,a,j2x_a,j2x_1_aja.wav,j2x_8_axa.wav,,FALSE,FALSE,,,,,,,,,,,,,,j,0.1687,space,0.4911,,,,,,,,0,19,19,74,1,,
6368e3f48413ec73f1962b8a,2023-06-16_10h20.13.738,phx_ver10,2022.2.5,Win32,60.03121623,,,,,,,,,,,,38,testing_3,zh2sh,e,zh2sh_e,zh2sh_8_eshe.wav,zh2sh_8_eshe.wav,,TRUE,FALSE,,,,,,,,,,,,,,f,0.2018,space,0.5117,,,,,,,,0,20,20,37,1,,
6368e3f48413ec73f1962b8a,2023-06-16_10h20.13.738,phx_ver10,2022.2.5,Win32,60.03121623,,,,,,,,,,,,69,testing_3,zh2j,i,zh2j_i,zh2j_1_izhi.wav,zh2j_1_izhi.wav,,TRUE,FALSE,,,,,,,,,,,,,,f,0.0414,space,0.3282,,,,,,,,0,21,21,68,1,,
6368e3f48413ec73f1962b8a,2023-06-16_10h20.13.738,phx_ver10,2022.2.5,Win32,60.03121623,,,,,,,,,,,,72,testing_3,zh2j,i,zh2j_i,zh2j_8_iji.wav,zh2j_1_izhi.wav,,FALSE,FALSE,,,,,,,,,,,,,,f,0.2236,space,0.5004,,,,,,,,0,22,22,71,1,,
6368e3f48413ec73f1962b8a,2023-06-16_10h20.13.738,phx_ver10,2022.2.5,Win32,60.03121623,,,,,,,,,,,,131,testing_3,sh2j,au,sh2j_au,sh2j_1_aushau.wav,sh2j_8_aujau.wav,,FALSE,FALSE,,,,,,,,,,,,,,j,0.2577,space,0.5616,,,,,,,,0,23,23,130,1,,
6368e3f48413ec73f1962b8a,2023-06-16_10h20.13.738,phx_ver10,2022.2.5,Win32,60.03121623,,,,,,,,,,,,130,testing_3,sh2j,au,sh2j_au,sh2j_8_aujau.wav,sh2j_8_aujau.wav,,TRUE,FALSE,,,,,,,,,,,,,,f,0.2832,space,0.5843,,,,,,,,0,24,24,129,1,,
6368e3f48413ec73f1962b8a,2023-06-16_10h20.13.738,phx_ver10,2022.2.5,Win32,60.03121623,,,,,,,,,,,,125,testing_3,sh2j,ai,sh2j_ai,sh2j_1_aishai.wav,sh2j_1_aishai.wav,,TRUE,FALSE,,,,,,,,,,,,,,f,0.0939,space,0.4103,,,,,,,,0,25,25,124,1,,
6368e3f48413ec73f1962b8a,2023-06-16_10h20.13.738,phx_ver10,2022.2.5,Win32,60.03121623,,,,,,,,,,,,115,testing_3,sh2x,ei,sh2x_ei,sh2x_1_eishei.wav,sh2x_8_eixei.wav,,FALSE,FALSE,,,,,,,,,,,,,,f,0.0825,space,0.3677,,,,,,,,0,26,26,114,1,,
6368e3f48413ec73f1962b8a,2023-06-16_10h20.13.738,phx_ver10,2022.2.5,Win32,60.03121623,,,,,,,,,,,,89,testing_3,j2x,ei,j2x_ei,j2x_1_eijei.wav,j2x_1_eijei.wav,,TRUE,FALSE,,,,,,,,,,,,,,f,0.0403,space,0.3501,,,,,,,,0,27,27,88,1,,
6368e3f48413ec73f1962b8a,2023-06-16_10h20.13.738,phx_ver10,2022.2.5,Win32,60.03121623,,,,,,,,,,,,112,testing_3,sh2x,e,sh2x_e,sh2x_8_exe.wav,sh2x_1_eshe.wav,,FALSE,FALSE,,,,,,,,,,,,,,f,0.2838,space,0.6226,,,,,,,,0,28,28,111,1,,
6368e3f48413ec73f1962b8a,2023-06-16_10h20.13.738,phx_ver10,2022.2.5,Win32,60.03121623,,,,,,,,,,,,99,testing_3,sh2x,a,sh2x_a,sh2x_1_asha.wav,sh2x_8_axa.wav,,FALSE,FALSE,,,,,,,,,,,,,,f,0.3884,space,0.6506,,,,,,,,0,29,29,98,1,,
6368e3f48413ec73f1962b8a,2023-06-16_10h20.13.738,phx_ver10,2022.2.5,Win32,60.03121623,,,,,,,,,,,,79,testing_3,j2x,ai,j2x_ai,j2x_1_aijai.wav,j2x_8_aixai.wav,,FALSE,FALSE,,,,,,,,,,,,,,j,0.3494,space,0.4599,,,,,,,,0,30,30,78,1,,
6368e3f48413ec73f1962b8a,2023-06-16_10h20.13.738,phx_ver10,2022.2.5,Win32,60.03121623,,,,,,,,,,,,90,testing_3,j2x,ei,j2x_ei,j2x_8_eixei.wav,j2x_8_eixei.wav,,TRUE,FALSE,,,,,,,,,,,,,,f,0.0752,space,0.4075,,,,,,,,0,31,31,89,1,,
6368e3f48413ec73f1962b8a,2023-06-16_10h20.13.738,phx_ver10,2022.2.5,Win32,60.03121623,,,,,,,,,,,,65,testing_3,zh2j,ei,zh2j_ei,zh2j_1_eizhei.wav,zh2j_1_eizhei.wav,,TRUE,FALSE,,,,,,,,,,,,,,f,0.2498,space,0.5164,,,,,,,,0,32,32,64,1,,
6368e3f48413ec73f1962b8a,2023-06-16_10h20.13.738,phx_ver10,2022.2.5,Win32,60.03121623,,,,,,,,,,,,122,testing_3,sh2j,a,sh2j_a,sh2j_8_aja.wav,sh2j_8_aja.wav,,TRUE,FALSE,,,,,,,,,,,,,,f,0.2184,space,0.4256,,,,,,,,0,33,33,121,1,,
6368e3f48413ec73f1962b8a,2023-06-16_10h20.13.738,phx_ver10,2022.2.5,Win32,60.03121623,,,,,,,,,,,,26,testing_3,zh2sh,a,zh2sh_a,zh2sh_8_asha.wav,zh2sh_8_asha.wav,,TRUE,FALSE,,,,,,,,,,,,,,f,0.1558,space,0.4001,,,,,,,,0,34,34,25,1,,
6368e3f48413ec73f1962b8a,2023-06-16_10h20.13.738,phx_ver10,2022.2.5,Win32,60.03121623,,,,,,,,,,,,92,testing_3,j2x,ei,j2x_ei,j2x_8_eixei.wav,j2x_1_eijei.wav,,FALSE,FALSE,,,,,,,,,,,,,,j,0.1996,space,0.4521,,,,,,,,0,35,35,91,1,,
6368e3f48413ec73f1962b8a,2023-06-16_10h20.13.738,phx_ver10,2022.2.5,Win32,60.03121623,,,,,,,,,,,,63,testing_3,zh2j,e,zh2j_e,zh2j_1_ezhe.wav,zh2j_8_eje.wav,,FALSE,FALSE,,,,,,,,,,,,,,f,0.1829,space,0.4707,,,,,,,,0,36,36,62,1,,
6368e3f48413ec73f1962b8a,2023-06-16_10h20.13.738,phx_ver10,2022.2.5,Win32,60.03121623,,,,,,,,,,,,45,testing_3,zh2sh,i,zh2sh_i,zh2sh_1_izhi.wav,zh2sh_1_izhi.wav,,TRUE,FALSE,,,,,,,,,,,,,,f,0.2451,space,0.5054,,,,,,,,0,37,37,44,1,,
6368e3f48413ec73f1962b8a,2023-06-16_10h20.13.738,phx_ver10,2022.2.5,Win32,60.03121623,,,,,,,,,,,,51,testing_3,zh2j,a,zh2j_a,zh2j_1_azha.wav,zh2j_8_aja.wav,,FALSE,FALSE,,,,,,,,,,,,,,f,0.3872,space,0.6352,,,,,,,,0,38,38,50,1,,
6368e3f48413ec73f1962b8a,2023-06-16_10h20.13.738,phx_ver10,2022.2.5,Win32,60.03121623,,,,,,,,,,,,134,testing_3,sh2j,e,sh2j_e,sh2j_8_eje.wav,sh2j_8_eje.wav,,TRUE,FALSE,,,,,,,,,,,,,,f,0.232,space,0.5545,,,,,,,,0,39,39,133,1,,
6368e3f48413ec73f1962b8a,2023-06-16_10h20.13.738,phx_ver10,2022.2.5,Win32,60.03121623,,,,,,,,,,,,103,testing_3,sh2x,ai,sh2x_ai,sh2x_1_aishai.wav,sh2x_8_aixai.wav,,FALSE,FALSE,,,,,,,,,,,,,,f,0.1509,space,0.4932,,,,,,,,0,40,40,102,1,,
6368e3f48413ec73f1962b8a,2023-06-16_10h20.13.738,phx_ver10,2022.2.5,Win32,60.03121623,,,,,,,,,,,,22,testing_2,zh2x,ei,zh2x_ei,zh2x_8_eixei.wav,zh2x_8_eixei.wav,,TRUE,FALSE,,,,,,,,,,,,,,f,0.2465,space,0.5406,,,,,,,,0,41,41,21,1,,
6368e3f48413ec73f1962b8a,2023-06-16_10h20.13.738,phx_ver10,2022.2.5,Win32,60.03121623,,,,,,,,,,,,108,testing_3,sh2x,au,sh2x_au,sh2x_8_auxau.wav,sh2x_1_aushau.wav,,FALSE,FALSE,,,,,,,,,,,,,,f,0.1683,space,0.4852,,,,,,,,0,42,42,107,1,,
6368e3f48413ec73f1962b8a,2023-06-16_10h20.13.738,phx_ver10,2022.2.5,Win32,60.03121623,,,,,,,,,,,,43,testing_3,zh2sh,ei,zh2sh_ei,zh2sh_1_eizhei.wav,zh2sh_8_eishei.wav,,FALSE,FALSE,,,,,,,,,,,,,,j,0.2,space,0.77,,,,,,,,0,43,43,42,1,,
6368e3f48413ec73f1962b8a,2023-06-16_10h20.13.738,phx_ver10,2022.2.5,Win32,60.03121623,,,,,,,,,,,,16,testing_2,zh2x,ai,zh2x_ai,zh2x_8_aixai.wav,zh2x_1_aizhai.wav,,FALSE,FALSE,,,,,,,,,,,,,,j,0.263,space,0.4681,,,,,,,,0,44,44,15,1,,
6368e3f48413ec73f1962b8a,2023-06-16_10h20.13.738,phx_ver10,2022.2.5,Win32,60.03121623,,,,,,,,,,,,104,testing_3,sh2x,ai,sh2x_ai,sh2x_8_aixai.wav,sh2x_1_aishai.wav,,FALSE,FALSE,,,,,,,,,,,,,,f,0.0423,space,0.3678,,,,,,,,0,45,45,103,1,,
6368e3f48413ec73f1962b8a,2023-06-16_10h20.13.738,phx_ver10,2022.2.5,Win32,60.03121623,,,,,,,,,,,,129,testing_3,sh2j,au,sh2j_au,sh2j_1_aushau.wav,sh2j_1_aushau.wav,,TRUE,FALSE,,,,,,,,,,,,,,f,0.2463,space,0.5041,,,,,,,,0,46,46,128,1,,
6368e3f48413ec73f1962b8a,2023-06-16_10h20.13.738,phx_ver10,2022.2.5,Win32,60.03121623,,,,,,,,,,,,67,testing_3,zh2j,ei,zh2j_ei,zh2j_1_eizhei.wav,zh2j_8_eijei.wav,,FALSE,FALSE,,,,,,,,,,,,,,f,0.1695,space,0.4244,,,,,,,,0,47,47,66,1,,
6368e3f48413ec73f1962b8a,2023-06-16_10h20.13.738,phx_ver10,2022.2.5,Win32,60.03121623,,,,,,,,,,,,93,testing_3,j2x,i,j2x_i,j2x_1_iji.wav,j2x_1_iji.wav,,TRUE,FALSE,,,,,,,,,,,,,,f,0.0882,space,0.4173,,,,,,,,0,48,48,92,1,,
6368e3f48413ec73f1962b8a,2023-06-16_10h20.13.738,phx_ver10,2022.2.5,Win32,60.03121623,,,,,,,,,,,,68,testing_3,zh2j,ei,zh2j_ei,zh2j_8_eijei.wav,zh2j_1_eizhei.wav,,FALSE,FALSE,,,,,,,,,,,,,,f,0.1594,space,0.4775,,,,,,,,0,49,49,67,1,,
6368e3f48413ec73f1962b8a,2023-06-16_10h20.13.738,phx_ver10,2022.2.5,Win32,60.03121623,,,,,,,,,,,,78,testing_3,j2x,ai,j2x_ai,j2x_8_aixai.wav,j2x_8_aixai.wav,,TRUE,FALSE,,,,,,,,,,,,,,f,0.2497,space,0.482,,,,,,,,0,50,50,77,1,,
6368e3f48413ec73f1962b8a,2023-06-16_10h20.13.738,phx_ver10,2022.2.5,Win32,60.03121623,,,,,,,,,,,,29,testing_3,zh2sh,ai,zh2sh_ai,zh2sh_1_aizhai.wav,zh2sh_1_aizhai.wav,,TRUE,FALSE,,,,,,,,,,,,,,f,0.0959,space,0.3501,,,,,,,,0,51,51,28,1,,
6368e3f48413ec73f1962b8a,2023-06-16_10h20.13.738,phx_ver10,2022.2.5,Win32,60.03121623,,,,,,,,,,,,53,testing_3,zh2j,ai,zh2j_ai,zh2j_1_aizhai.wav,zh2j_1_aizhai.wav,,TRUE,FALSE,,,,,,,,,,,,,,f,0.0274,space,0.3261,,,,,,,,0,52,52,52,1,,
6368e3f48413ec73f1962b8a,2023-06-16_10h20.13.738,phx_ver10,2022.2.5,Win32,60.03121623,,,,,,,,,,,,141,testing_3,sh2j,i,sh2j_i,sh2j_1_ishi.wav,sh2j_1_ishi.wav,,TRUE,FALSE,,,,,,,,,,,,,,f,0.2892,space,0.504,,,,,,,,0,53,53,140,1,,
6368e3f48413ec73f1962b8a,2023-06-16_10h20.13.738,phx_ver10,2022.2.5,Win32,60.03121623,,,,,,,,,,,,127,testing_3,sh2j,ai,sh2j_ai,sh2j_1_aishai.wav,sh2j_8_aijai.wav,,FALSE,FALSE,,,,,,,,,,,,,,j,0.0166,space,0.3321,,,,,,,,0,54,54,126,1,,
6368e3f48413ec73f1962b8a,2023-06-16_10h20.13.738,phx_ver10,2022.2.5,Win32,60.03121623,,,,,,,,,,,,111,testing_3,sh2x,e,sh2x_e,sh2x_1_eshe.wav,sh2x_8_exe.wav,,FALSE,FALSE,,,,,,,,,,,,,,f,0.1941,space,0.4516,,,,,,,,0,55,55,110,1,,
6368e3f48413ec73f1962b8a,2023-06-16_10h20.13.738,phx_ver10,2022.2.5,Win32,60.03121623,,,,,,,,,,,,126,testing_3,sh2j,ai,sh2j_ai,sh2j_8_aijai.wav,sh2j_8_aijai.wav,,TRUE,FALSE,,,,,,,,,,,,,,f,0.2601,space,0.474,,,,,,,,0,56,56,125,1,,
6368e3f48413ec73f1962b8a,2023-06-16_10h20.13.738,phx_ver10,2022.2.5,Win32,60.03121623,,,,,,,,,,,,82,testing_3,j2x,au,j2x_au,j2x_8_auxau.wav,j2x_8_auxau.wav,,TRUE,FALSE,,,,,,,,,,,,,,f,0.1864,space,0.4682,,,,,,,,0,57,57,81,1,,
6368e3f48413ec73f1962b8a,2023-06-16_10h20.13.738,phx_ver10,2022.2.5,Win32,60.03121623,,,,,,,,,,,,102,testing_3,sh2x,ai,sh2x_ai,sh2x_8_aixai.wav,sh2x_8_aixai.wav,,TRUE,FALSE,,,,,,,,,,,,,,f,0.1296,space,0.4172,,,,,,,,0,58,58,101,1,,
6368e3f48413ec73f1962b8a,2023-06-16_10h20.13.738,phx_ver10,2022.2.5,Win32,60.03121623,,,,,,,,,,,,18,testing_2,zh2x,au,zh2x_au,zh2x_8_auxau.wav,zh2x_8_auxau.wav,,TRUE,FALSE,,,,,,,,,,,,,,f,0.191,space,0.4938,,,,,,,,0,59,59,17,1,,
6368e3f48413ec73f1962b8a,2023-06-16_10h20.13.738,phx_ver10,2022.2.5,Win32,60.03121623,,,,,,,,,,,,101,testing_3,sh2x,ai,sh2x_ai,sh2x_1_aishai.wav,sh2x_1_aishai.wav,,TRUE,FALSE,,,,,,,,,,,,,,f,0.1287,space,0.3963,,,,,,,,0,60,60,100,1,,
6368e3f48413ec73f1962b8a,2023-06-16_10h20.13.738,phx_ver10,2022.2.5,Win32,60.03121623,,,,,,,,,,,,24,testing_2,zh2x,ei,zh2x_ei,zh2x_8_eixei.wav,zh2x_1_eizhei.wav,,FALSE,FALSE,,,,,,,,,,,,,,j,0.2683,space,0.4731,,,,,,,,0,61,61,23,1,,
6368e3f48413ec73f1962b8a,2023-06-16_10h20.13.738,phx_ver10,2022.2.5,Win32,60.03121623,,,,,,,,,,,,37,testing_3,zh2sh,e,zh2sh_e,zh2sh_1_ezhe.wav,zh2sh_1_ezhe.wav,,TRUE,FALSE,,,,,,,,,,,,,,f,0.2536,space,0.5027,,,,,,,,0,62,62,36,1,,
6368e3f48413ec73f1962b8a,2023-06-16_10h20.13.738,phx_ver10,2022.2.5,Win32,60.03121623,,,,,,,,,,,,46,testing_3,zh2sh,i,zh2sh_i,zh2sh_8_ishi.wav,zh2sh_8_ishi.wav,,TRUE,FALSE,,,,,,,,,,,,,,f,0.0017,space,0.2846,,,,,,,,0,63,63,45,1,,
6368e3f48413ec73f1962b8a,2023-06-16_10h20.13.738,phx_ver10,2022.2.5,Win32,60.03121623,,,,,,,,,,,,97,testing_3,sh2x,a,sh2x_a,sh2x_1_asha.wav,sh2x_1_asha.wav,,TRUE,FALSE,,,,,,,,,,,,,,f,0.1068,space,0.3942,,,,,,,,0,64,64,96,1,,
6368e3f48413ec73f1962b8a,2023-06-16_10h20.13.738,phx_ver10,2022.2.5,Win32,60.03121623,,,,,,,,,,,,95,testing_3,j2x,i,j2x_i,j2x_1_iji.wav,j2x_8_ixi.wav,,FALSE,FALSE,,,,,,,,,,,,,,j,0.2792,space,0.6995,,,,,,,,0,65,65,94,1,,
6368e3f48413ec73f1962b8a,2023-06-16_10h20.13.738,phx_ver10,2022.2.5,Win32,60.03121623,,,,,,,,,,,,87,testing_3,j2x,e,j2x_e,j2x_1_eje.wav,j2x_8_exe.wav,,FALSE,FALSE,,,,,,,,,,,,,,j,0.389,space,0.5696,,,,,,,,0,66,66,86,1,,
6368e3f48413ec73f1962b8a,2023-06-16_10h20.13.738,phx_ver10,2022.2.5,Win32,60.03121623,,,,,,,,,,,,1,testing_1,zh2x,a,zh2x_a,zh2x_1_azha.wav,zh2x_1_azha_copy.wav,,TRUE,TRUE,,,,,,,,,,,,,,f,0.3174,space,0.5243,,,,,,,,0,67,67,0,1,,
6368e3f48413ec73f1962b8a,2023-06-16_10h20.13.738,phx_ver10,2022.2.5,Win32,60.03121623,,,,,,,,,,,,39,testing_3,zh2sh,e,zh2sh_e,zh2sh_1_ezhe.wav,zh2sh_8_eshe.wav,,FALSE,FALSE,,,,,,,,,,,,,,j,0.1726,space,0.5031,,,,,,,,0,68,68,38,1,,
6368e3f48413ec73f1962b8a,2023-06-16_10h20.13.738,phx_ver10,2022.2.5,Win32,60.03121623,,,,,,,,,,,,48,testing_3,zh2sh,i,zh2sh_i,zh2sh_8_ishi.wav,zh2sh_1_izhi.wav,,FALSE,FALSE,,,,,,,,,,,,,,j,0.1512,space,0.476,,,,,,,,0,69,69,47,1,,
6368e3f48413ec73f1962b8a,2023-06-16_10h20.13.738,phx_ver10,2022.2.5,Win32,60.03121623,,,,,,,,,,,,94,testing_3,j2x,i,j2x_i,j2x_8_ixi.wav,j2x_8_ixi.wav,,TRUE,FALSE,,,,,,,,,,,,,,f,0.3204,space,0.5707,,,,,,,,0,70,70,93,1,,
6368e3f48413ec73f1962b8a,2023-06-16_10h20.13.738,phx_ver10,2022.2.5,Win32,60.03121623,,,,,,,,,,,,36,testing_3,zh2sh,au,zh2sh_au,zh2sh_8_aushau.wav,zh2sh_1_auzhau.wav,,FALSE,FALSE,,,,,,,,,,,,,,j,0.1626,space,0.6423,,,,,,,,0,71,71,35,1,,
6368e3f48413ec73f1962b8a,2023-06-16_10h20.13.738,phx_ver10,2022.2.5,Win32,60.03121623,,,,,,,,,,,,85,testing_3,j2x,e,j2x_e,j2x_1_eje.wav,j2x_1_eje.wav,,TRUE,FALSE,,,,,,,,,,,,,,f,0.0512,space,0.4101,,,,,,,,0,72,72,84,1,,
6368e3f48413ec73f1962b8a,2023-06-16_10h20.13.738,phx_ver10,2022.2.5,Win32,60.03121623,,,,,,,,,,,,91,testing_3,j2x,ei,j2x_ei,j2x_1_eijei.wav,j2x_8_eixei.wav,,FALSE,FALSE,,,,,,,,,,,,,,j,0.0934,space,0.4094,,,,,,,,0,73,73,90,1,,
6368e3f48413ec73f1962b8a,2023-06-16_10h20.13.738,phx_ver10,2022.2.5,Win32,60.03121623,,,,,,,,,,,,113,testing_3,sh2x,ei,sh2x_ei,sh2x_1_eishei.wav,sh2x_1_eishei.wav,,TRUE,FALSE,,,,,,,,,,,,,,f,0.2569,space,0.5081,,,,,,,,0,74,74,112,1,,
6368e3f48413ec73f1962b8a,2023-06-16_10h20.13.738,phx_ver10,2022.2.5,Win32,60.03121623,,,,,,,,,,,,54,testing_3,zh2j,ai,zh2j_ai,zh2j_8_aijai.wav,zh2j_8_aijai.wav,,TRUE,FALSE,,,,,,,,,,,,,,f,0.4955,space,0.7014,,,,,,,,0,75,75,53,1,,
6368e3f48413ec73f1962b8a,2023-06-16_10h20.13.738,phx_ver10,2022.2.5,Win32,60.03121623,,,,,,,,,,,,119,testing_3,sh2x,i,sh2x_i,sh2x_1_ishi.wav,sh2x_8_ixi.wav,,FALSE,FALSE,,,,,,,,,,,,,,f,0.2442,space,0.4841,,,,,,,,0,76,76,118,1,,
6368e3f48413ec73f1962b8a,2023-06-16_10h20.13.738,phx_ver10,2022.2.5,Win32,60.03121623,,,,,,,,,,,,9,testing_1,zh2x,i,zh2x_i,zh2x_1_izhi.wav,zh2x_1_izhi_copy.wav,,TRUE,TRUE,,,,,,,,,,,,,,f,0.0088,space,0.3403,,,,,,,,0,77,77,8,1,,
6368e3f48413ec73f1962b8a,2023-06-16_10h20.13.738,phx_ver10,2022.2.5,Win32,60.03121623,,,,,,,,,,,,70,testing_3,zh2j,i,zh2j_i,zh2j_8_iji.wav,zh2j_8_iji.wav,,TRUE,FALSE,,,,,,,,,,,,,,f,0.0498,space,0.3832,,,,,,,,0,78,78,69,1,,
6368e3f48413ec73f1962b8a,2023-06-16_10h20.13.738,phx_ver10,2022.2.5,Win32,60.03121623,,,,,,,,,,,,66,testing_3,zh2j,ei,zh2j_ei,zh2j_8_eijei.wav,zh2j_8_eijei.wav,,TRUE,FALSE,,,,,,,,,,,,,,f,0.2434,space,0.3957,,,,,,,,0,79,79,65,1,,
6368e3f48413ec73f1962b8a,2023-06-16_10h20.13.738,phx_ver10,2022.2.5,Win32,60.03121623,,,,,,,,,,,,5,testing_1,zh2x,e,zh2x_e,zh2x_1_ezhe.wav,zh2x_1_ezhe_copy.wav,,TRUE,TRUE,,,,,,,,,,,,,,f,0.2484,space,0.4398,,,,,,,,0,80,80,4,1,,
6368e3f48413ec73f1962b8a,2023-06-16_10h20.13.738,phx_ver10,2022.2.5,Win32,60.03121623,,,,,,,,,,,,120,testing_3,sh2x,i,sh2x_i,sh2x_8_ixi.wav,sh2x_1_ishi.wav,,FALSE,FALSE,,,,,,,,,,,,,,f,0.2958,space,0.4817,,,,,,,,0,81,81,119,1,,
6368e3f48413ec73f1962b8a,2023-06-16_10h20.13.738,phx_ver10,2022.2.5,Win32,60.03121623,,,,,,,,,,,,41,testing_3,zh2sh,ei,zh2sh_ei,zh2sh_1_eizhei.wav,zh2sh_1_eizhei.wav,,TRUE,FALSE,,,,,,,,,,,,,,f,0.2371,space,0.4521,,,,,,,,0,82,82,40,1,,
6368e3f48413ec73f1962b8a,2023-06-16_10h20.13.738,phx_ver10,2022.2.5,Win32,60.03121623,,,,,,,,,,,,81,testing_3,j2x,au,j2x_au,j2x_1_aujau.wav,j2x_1_aujau.wav,,TRUE,FALSE,,,,,,,,,,,,,,f,0.2233,space,0.3676,,,,,,,,0,83,83,80,1,,
6368e3f48413ec73f1962b8a,2023-06-16_10h20.13.738,phx_ver10,2022.2.5,Win32,60.03121623,,,,,,,,,,,,98,testing_3,sh2x,a,sh2x_a,sh2x_8_axa.wav,sh2x_8_axa.wav,,TRUE,FALSE,,,,,,,,,,,,,,f,0.1499,space,0.3201,,,,,,,,0,84,84,97,1,,
6368e3f48413ec73f1962b8a,2023-06-16_10h20.13.738,phx_ver10,2022.2.5,Win32,60.03121623,,,,,,,,,,,,132,testing_3,sh2j,au,sh2j_au,sh2j_8_aujau.wav,sh2j_1_aushau.wav,,FALSE,FALSE,,,,,,,,,,,,,,j,0.207,space,0.4671,,,,,,,,0,85,85,131,1,,
6368e3f48413ec73f1962b8a,2023-06-16_10h20.13.738,phx_ver10,2022.2.5,Win32,60.03121623,,,,,,,,,,,,34,testing_3,zh2sh,au,zh2sh_au,zh2sh_8_aushau.wav,zh2sh_8_aushau.wav,,TRUE,FALSE,,,,,,,,,,,,,,f,0.2378,space,0.4424,,,,,,,,0,86,86,33,1,,
6368e3f48413ec73f1962b8a,2023-06-16_10h20.13.738,phx_ver10,2022.2.5,Win32,60.03121623,,,,,,,,,,,,139,testing_3,sh2j,ei,sh2j_ei,sh2j_1_eishei.wav,sh2j_8_eijei.wav,,FALSE,FALSE,,,,,,,,,,,,,,j,0.1373,space,0.6359,,,,,,,,0,87,87,138,1,,
6368e3f48413ec73f1962b8a,2023-06-16_10h20.13.738,phx_ver10,2022.2.5,Win32,60.03121623,,,,,,,,,,,,142,testing_3,sh2j,i,sh2j_i,sh2j_8_iji.wav,sh2j_8_iji.wav,,TRUE,FALSE,,,,,,,,,,,,,,f,0.4932,space,0.7181,,,,,,,,0,88,88,141,1,,
6368e3f48413ec73f1962b8a,2023-06-16_10h20.13.738,phx_ver10,2022.2.5,Win32,60.03121623,,,,,,,,,,,,8,testing_1,zh2x,e,zh2x_e,zh2x_8_exe.wav,zh2x_1_ezhe.wav,,FALSE,TRUE,,,,,,,,,,,,,,j,0.2197,space,0.3694,,,,,,,,0,89,89,7,1,,
6368e3f48413ec73f1962b8a,2023-06-16_10h20.13.738,phx_ver10,2022.2.5,Win32,60.03121623,,,,,,,,,,,,7,testing_1,zh2x,e,zh2x_e,zh2x_1_ezhe.wav,zh2x_8_exe.wav,,FALSE,TRUE,,,,,,,,,,,,,,j,0.2271,space,0.3967,,,,,,,,0,90,90,6,1,,
6368e3f48413ec73f1962b8a,2023-06-16_10h20.13.738,phx_ver10,2022.2.5,Win32,60.03121623,,,,,,,,,,,,133,testing_3,sh2j,e,sh2j_e,sh2j_1_eshe.wav,sh2j_1_eshe.wav,,TRUE,FALSE,,,,,,,,,,,,,,f,0.1585,space,0.3743,,,,,,,,0,91,91,132,1,,
6368e3f48413ec73f1962b8a,2023-06-16_10h20.13.738,phx_ver10,2022.2.5,Win32,60.03121623,,,,,,,,,,,,2,testing_1,zh2x,a,zh2x_a,zh2x_8_axa.wav,zh2x_8_axa_copy.wav,,TRUE,TRUE,,,,,,,,,,,,,,f,0.2683,space,0.3564,,,,,,,,0,92,92,1,1,,
6368e3f48413ec73f1962b8a,2023-06-16_10h20.13.738,phx_ver10,2022.2.5,Win32,60.03121623,,,,,,,,,,,,123,testing_3,sh2j,a,sh2j_a,sh2j_1_asha.wav,sh2j_8_aja.wav,,FALSE,FALSE,,,,,,,,,,,,,,j,0.124,space,0.4288,,,,,,,,0,93,93,122,1,,
6368e3f48413ec73f1962b8a,2023-06-16_10h20.13.738,phx_ver10,2022.2.5,Win32,60.03121623,,,,,,,,,,,,17,testing_2,zh2x,au,zh2x_au,zh2x_1_auzhau.wav,zh2x_1_auzhau.wav,,TRUE,FALSE,,,,,,,,,,,,,,f,0.0505,space,0.3515,,,,,,,,0,94,94,16,1,,
6368e3f48413ec73f1962b8a,2023-06-16_10h20.13.738,phx_ver10,2022.2.5,Win32,60.03121623,,,,,,,,,,,,100,testing_3,sh2x,a,sh2x_a,sh2x_8_axa.wav,sh2x_1_asha.wav,,FALSE,FALSE,,,,,,,,,,,,,,f,0.0199,space,0.2956,,,,,,,,0,95,95,99,1,,
6368e3f48413ec73f1962b8a,2023-06-16_10h20.13.738,phx_ver10,2022.2.5,Win32,60.03121623,,,,,,,,,,,,73,testing_3,j2x,a,j2x_a,j2x_1_aja.wav,j2x_1_aja.wav,,TRUE,FALSE,,,,,,,,,,,,,,f,0.1425,space,0.3327,,,,,,,,0,96,96,72,1,,
6368e3f48413ec73f1962b8a,2023-06-16_10h20.13.738,phx_ver10,2022.2.5,Win32,60.03121623,,,,,,,,,,,,32,testing_3,zh2sh,ai,zh2sh_ai,zh2sh_8_aishai.wav,zh2sh_1_aizhai.wav,,FALSE,FALSE,,,,,,,,,,,,,,j,0.2854,space,0.4436,,,,,,,,0,97,97,31,1,,
6368e3f48413ec73f1962b8a,2023-06-16_10h20.13.738,phx_ver10,2022.2.5,Win32,60.03121623,,,,,,,,,,,,50,testing_3,zh2j,a,zh2j_a,zh2j_8_aja.wav,zh2j_8_aja.wav,,TRUE,FALSE,,,,,,,,,,,,,,f,0.0004,space,0.1876,,,,,,,,0,98,98,49,1,,
6368e3f48413ec73f1962b8a,2023-06-16_10h20.13.738,phx_ver10,2022.2.5,Win32,60.03121623,,,,,,,,,,,,74,testing_3,j2x,a,j2x_a,j2x_8_axa.wav,j2x_8_axa.wav,,TRUE,FALSE,,,,,,,,,,,,,,f,0.181,space,0.4143,,,,,,,,0,99,99,73,1,,
6368e3f48413ec73f1962b8a,2023-06-16_10h20.13.738,phx_ver10,2022.2.5,Win32,60.03121623,,,,,,,,,,,,83,testing_3,j2x,au,j2x_au,j2x_1_aujau.wav,j2x_8_auxau.wav,,FALSE,FALSE,,,,,,,,,,,,,,j,0.087,space,0.4155,,,,,,,,0,100,100,82,1,,
6368e3f48413ec73f1962b8a,2023-06-16_10h20.13.738,phx_ver10,2022.2.5,Win32,60.03121623,,,,,,,,,,,,77,testing_3,j2x,ai,j2x_ai,j2x_1_aijai.wav,j2x_1_aijai.wav,,TRUE,FALSE,,,,,,,,,,,,,,f,0.3418,space,0.5216,,,,,,,,0,101,101,76,1,,
6368e3f48413ec73f1962b8a,2023-06-16_10h20.13.738,phx_ver10,2022.2.5,Win32,60.03121623,,,,,,,,,,,,106,testing_3,sh2x,au,sh2x_au,sh2x_8_auxau.wav,sh2x_8_auxau.wav,,TRUE,FALSE,,,,,,,,,,,,,,f,0.217,space,0.2878,,,,,,,,0,102,102,105,1,,
6368e3f48413ec73f1962b8a,2023-06-16_10h20.13.738,phx_ver10,2022.2.5,Win32,60.03121623,,,,,,,,,,,,57,testing_3,zh2j,au,zh2j_au,zh2j_1_auzhau.wav,zh2j_1_auzhau.wav,,TRUE,FALSE,,,,,,,,,,,,,,f,0.0726,space,0.3751,,,,,,,,0,103,103,56,1,,
6368e3f48413ec73f1962b8a,2023-06-16_10h20.13.738,phx_ver10,2022.2.5,Win32,60.03121623,,,,,,,,,,,,76,testing_3,j2x,a,j2x_a,j2x_8_axa.wav,j2x_1_aja.wav,,FALSE,FALSE,,,,,,,,,,,,,,j,0.103,space,0.3389,,,,,,,,0,104,104,75,1,,
6368e3f48413ec73f1962b8a,2023-06-16_10h20.13.738,phx_ver10,2022.2.5,Win32,60.03121623,,,,,,,,,,,,59,testing_3,zh2j,au,zh2j_au,zh2j_1_auzhau.wav,zh2j_8_aujau.wav,,FALSE,FALSE,,,,,,,,,,,,,,f,0.2285,space,0.4379,,,,,,,,0,105,105,58,1,,
6368e3f48413ec73f1962b8a,2023-06-16_10h20.13.738,phx_ver10,2022.2.5,Win32,60.03121623,,,,,,,,,,,,71,testing_3,zh2j,i,zh2j_i,zh2j_1_izhi.wav,zh2j_8_iji.wav,,FALSE,FALSE,,,,,,,,,,,,,,f,0.2008,space,0.3797,,,,,,,,0,106,106,70,1,,
6368e3f48413ec73f1962b8a,2023-06-16_10h20.13.738,phx_ver10,2022.2.5,Win32,60.03121623,,,,,,,,,,,,23,testing_2,zh2x,ei,zh2x_ei,zh2x_1_eizhei.wav,zh2x_8_eixei.wav,,FALSE,FALSE,,,,,,,,,,,,,,j,0.244,space,0.4188,,,,,,,,0,107,107,22,1,,
6368e3f48413ec73f1962b8a,2023-06-16_10h20.13.738,phx_ver10,2022.2.5,Win32,60.03121623,,,,,,,,,,,,121,testing_3,sh2j,a,sh2j_a,sh2j_1_asha.wav,sh2j_1_asha.wav,,TRUE,FALSE,,,,,,,,,,,,,,f,0.2032,space,0.4355,,,,,,,,0,108,108,120,1,,
6368e3f48413ec73f1962b8a,2023-06-16_10h20.13.738,phx_ver10,2022.2.5,Win32,60.03121623,,,,,,,,,,,,3,testing_1,zh2x,a,zh2x_a,zh2x_1_azha.wav,zh2x_8_axa.wav,,FALSE,TRUE,,,,,,,,,,,,,,j,0.1233,space,0.3936,,,,,,,,0,109,109,2,1,,
6368e3f48413ec73f1962b8a,2023-06-16_10h20.13.738,phx_ver10,2022.2.5,Win32,60.03121623,,,,,,,,,,,,109,testing_3,sh2x,e,sh2x_e,sh2x_1_eshe.wav,sh2x_1_eshe.wav,,TRUE,FALSE,,,,,,,,,,,,,,f,0.0605,space,0.383,,,,,,,,0,110,110,108,1,,
6368e3f48413ec73f1962b8a,2023-06-16_10h20.13.738,phx_ver10,2022.2.5,Win32,60.03121623,,,,,,,,,,,,33,testing_3,zh2sh,au,zh2sh_au,zh2sh_1_auzhau.wav,zh2sh_1_auzhau.wav,,TRUE,FALSE,,,,,,,,,,,,,,f,0.0021,space,0.283,,,,,,,,0,111,111,32,1,,
6368e3f48413ec73f1962b8a,2023-06-16_10h20.13.738,phx_ver10,2022.2.5,Win32,60.03121623,,,,,,,,,,,,28,testing_3,zh2sh,a,zh2sh_a,zh2sh_8_asha.wav,zh2sh_1_azha.wav,,FALSE,FALSE,,,,,,,,,,,,,,j,0.3957,space,0.4903,,,,,,,,0,112,112,27,1,,
6368e3f48413ec73f1962b8a,2023-06-16_10h20.13.738,phx_ver10,2022.2.5,Win32,60.03121623,,,,,,,,,,,,110,testing_3,sh2x,e,sh2x_e,sh2x_8_exe.wav,sh2x_8_exe.wav,,TRUE,FALSE,,,,,,,,,,,,,,f,0.0512,space,0.3671,,,,,,,,0,113,113,109,1,,
6368e3f48413ec73f1962b8a,2023-06-16_10h20.13.738,phx_ver10,2022.2.5,Win32,60.03121623,,,,,,,,,,,,12,testing_1,zh2x,i,zh2x_i,zh2x_8_ixi.wav,zh2x_1_izhi.wav,,FALSE,TRUE,,,,,,,,,,,,,,j,0.6022,space,1.206,,,,,,,,0,114,114,11,1,,
6368e3f48413ec73f1962b8a,2023-06-16_10h20.13.738,phx_ver10,2022.2.5,Win32,60.03121623,,,,,,,,,,,,52,testing_3,zh2j,a,zh2j_a,zh2j_8_aja.wav,zh2j_1_azha.wav,,FALSE,FALSE,,,,,,,,,,,,,,f,0.2515,space,0.5833,,,,,,,,0,115,115,51,1,,
6368e3f48413ec73f1962b8a,2023-06-16_10h20.13.738,phx_ver10,2022.2.5,Win32,60.03121623,,,,,,,,,,,,88,testing_3,j2x,e,j2x_e,j2x_8_exe.wav,j2x_1_eje.wav,,FALSE,FALSE,,,,,,,,,,,,,,j,0.2374,space,0.3875,,,,,,,,0,116,116,87,1,,
6368e3f48413ec73f1962b8a,2023-06-16_10h20.13.738,phx_ver10,2022.2.5,Win32,60.03121623,,,,,,,,,,,,84,testing_3,j2x,au,j2x_au,j2x_8_auxau.wav,j2x_1_aujau.wav,,FALSE,FALSE,,,,,,,,,,,,,,j,0.3158,space,0.4338,,,,,,,,0,117,117,83,1,,
6368e3f48413ec73f1962b8a,2023-06-16_10h20.13.738,phx_ver10,2022.2.5,Win32,60.03121623,,,,,,,,,,,,128,testing_3,sh2j,ai,sh2j_ai,sh2j_8_aijai.wav,sh2j_1_aishai.wav,,FALSE,FALSE,,,,,,,,,,,,,,j,0.1718,space,0.5663,,,,,,,,0,118,118,127,1,,
6368e3f48413ec73f1962b8a,2023-06-16_10h20.13.738,phx_ver10,2022.2.5,Win32,60.03121623,,,,,,,,,,,,27,testing_3,zh2sh,a,zh2sh_a,zh2sh_1_azha.wav,zh2sh_8_asha.wav,,FALSE,FALSE,,,,,,,,,,,,,,j,0.1843,space,0.4329,,,,,,,,0,119,119,26,1,,
6368e3f48413ec73f1962b8a,2023-06-16_10h20.13.738,phx_ver10,2022.2.5,Win32,60.03121623,,,,,,,,,,,,124,testing_3,sh2j,a,sh2j_a,sh2j_8_aja.wav,sh2j_1_asha.wav,,FALSE,FALSE,,,,,,,,,,,,,,j,0.484,space,0.6263,,,,,,,,0,120,120,123,1,,
6368e3f48413ec73f1962b8a,2023-06-16_10h20.13.738,phx_ver10,2022.2.5,Win32,60.03121623,,,,,,,,,,,,56,testing_3,zh2j,ai,zh2j_ai,zh2j_8_aijai.wav,zh2j_1_aizhai.wav,,FALSE,FALSE,,,,,,,,,,,,,,f,0.0257,space,0.337,,,,,,,,0,121,121,55,1,,
6368e3f48413ec73f1962b8a,2023-06-16_10h20.13.738,phx_ver10,2022.2.5,Win32,60.03121623,,,,,,,,,,,,136,testing_3,sh2j,e,sh2j_e,sh2j_8_eje.wav,sh2j_1_eshe.wav,,FALSE,FALSE,,,,,,,,,,,,,,j,0.1933,space,0.3168,,,,,,,,0,122,122,135,1,,
6368e3f48413ec73f1962b8a,2023-06-16_10h20.13.738,phx_ver10,2022.2.5,Win32,60.03121623,,,,,,,,,,,,96,testing_3,j2x,i,j2x_i,j2x_8_ixi.wav,j2x_1_iji.wav,,FALSE,FALSE,,,,,,,,,,,,,,j,0.2567,space,0.4355,,,,,,,,0,123,123,95,1,,
6368e3f48413ec73f1962b8a,2023-06-16_10h20.13.738,phx_ver10,2022.2.5,Win32,60.03121623,,,,,,,,,,,,137,testing_3,sh2j,ei,sh2j_ei,sh2j_1_eishei.wav,sh2j_1_eishei.wav,,TRUE,FALSE,,,,,,,,,,,,,,f,0.1842,space,0.3217,,,,,,,,0,124,124,136,1,,
6368e3f48413ec73f1962b8a,2023-06-16_10h20.13.738,phx_ver10,2022.2.5,Win32,60.03121623,,,,,,,,,,,,19,testing_2,zh2x,au,zh2x_au,zh2x_1_auzhau.wav,zh2x_8_auxau.wav,,FALSE,FALSE,,,,,,,,,,,,,,j,0.2213,space,0.566,,,,,,,,0,125,125,18,1,,
6368e3f48413ec73f1962b8a,2023-06-16_10h20.13.738,phx_ver10,2022.2.5,Win32,60.03121623,,,,,,,,,,,,143,testing_3,sh2j,i,sh2j_i,sh2j_1_ishi.wav,sh2j_8_iji.wav,,FALSE,FALSE,,,,,,,,,,,,,,j,0.0568,space,0.3008,,,,,,,,0,126,126,142,1,,
6368e3f48413ec73f1962b8a,2023-06-16_10h20.13.738,phx_ver10,2022.2.5,Win32,60.03121623,,,,,,,,,,,,35,testing_3,zh2sh,au,zh2sh_au,zh2sh_1_auzhau.wav,zh2sh_8_aushau.wav,,FALSE,FALSE,,,,,,,,,,,,,,j,0.2994,space,0.5422,,,,,,,,0,127,127,34,1,,
6368e3f48413ec73f1962b8a,2023-06-16_10h20.13.738,phx_ver10,2022.2.5,Win32,60.03121623,,,,,,,,,,,,4,testing_1,zh2x,a,zh2x_a,zh2x_8_axa.wav,zh2x_1_azha.wav,,FALSE,TRUE,,,,,,,,,,,,,,j,0.1946,space,0.3822,,,,,,,,0,128,128,3,1,,
6368e3f48413ec73f1962b8a,2023-06-16_10h20.13.738,phx_ver10,2022.2.5,Win32,60.03121623,,,,,,,,,,,,107,testing_3,sh2x,au,sh2x_au,sh2x_1_aushau.wav,sh2x_8_auxau.wav,,FALSE,FALSE,,,,,,,,,,,,,,f,0.1573,space,0.4411,,,,,,,,0,129,129,106,1,,
6368e3f48413ec73f1962b8a,2023-06-16_10h20.13.738,phx_ver10,2022.2.5,Win32,60.03121623,,,,,,,,,,,,6,testing_1,zh2x,e,zh2x_e,zh2x_8_exe.wav,zh2x_8_exe_copy.wav,,TRUE,TRUE,,,,,,,,,,,,,,f,0.3497,space,0.5445,,,,,,,,0,130,130,5,1,,
6368e3f48413ec73f1962b8a,2023-06-16_10h20.13.738,phx_ver10,2022.2.5,Win32,60.03121623,,,,,,,,,,,,61,testing_3,zh2j,e,zh2j_e,zh2j_1_ezhe.wav,zh2j_1_ezhe.wav,,TRUE,FALSE,,,,,,,,,,,,,,j,4.5489,space,4.6842,,,,,,,,0,131,131,60,1,,
6368e3f48413ec73f1962b8a,2023-06-16_10h20.13.738,phx_ver10,2022.2.5,Win32,60.03121623,,,,,,,,,,,,140,testing_3,sh2j,ei,sh2j_ei,sh2j_8_eijei.wav,sh2j_1_eishei.wav,,FALSE,FALSE,,,,,,,,,,,,,,j,0.0647,space,0.3675,,,,,,,,0,132,132,139,1,,
6368e3f48413ec73f1962b8a,2023-06-16_10h20.13.738,phx_ver10,2022.2.5,Win32,60.03121623,,,,,,,,,,,,20,testing_2,zh2x,au,zh2x_au,zh2x_8_auxau.wav,zh2x_1_auzhau.wav,,FALSE,FALSE,,,,,,,,,,,,,,j,0.1288,space,0.3602,,,,,,,,0,133,133,19,1,,
6368e3f48413ec73f1962b8a,2023-06-16_10h20.13.738,phx_ver10,2022.2.5,Win32,60.03121623,,,,,,,,,,,,31,testing_3,zh2sh,ai,zh2sh_ai,zh2sh_1_aizhai.wav,zh2sh_8_aishai.wav,,FALSE,FALSE,,,,,,,,,,,,,,j,0.0467,space,0.2582,,,,,,,,0,134,134,30,1,,
6368e3f48413ec73f1962b8a,2023-06-16_10h20.13.738,phx_ver10,2022.2.5,Win32,60.03121623,,,,,,,,,,,,60,testing_3,zh2j,au,zh2j_au,zh2j_8_aujau.wav,zh2j_1_auzhau.wav,,FALSE,FALSE,,,,,,,,,,,,,,f,0.1512,space,0.2849,,,,,,,,0,135,135,59,1,,
6368e3f48413ec73f1962b8a,2023-06-16_10h20.13.738,phx_ver10,2022.2.5,Win32,60.03121623,,,,,,,,,,,,105,testing_3,sh2x,au,sh2x_au,sh2x_1_aushau.wav,sh2x_1_aushau.wav,,TRUE,FALSE,,,,,,,,,,,,,,f,0.119,space,0.3169,,,,,,,,0,136,136,104,1,,
6368e3f48413ec73f1962b8a,2023-06-16_10h20.13.738,phx_ver10,2022.2.5,Win32,60.03121623,,,,,,,,,,,,30,testing_3,zh2sh,ai,zh2sh_ai,zh2sh_8_aishai.wav,zh2sh_8_aishai.wav,,TRUE,FALSE,,,,,,,,,,,,,,f,0.5415,space,0.6881,,,,,,,,0,137,137,29,1,,
6368e3f48413ec73f1962b8a,2023-06-16_10h20.13.738,phx_ver10,2022.2.5,Win32,60.03121623,,,,,,,,,,,,80,testing_3,j2x,ai,j2x_ai,j2x_8_aixai.wav,j2x_1_aijai.wav,,FALSE,FALSE,,,,,,,,,,,,,,j,0.1057,space,0.2904,,,,,,,,0,138,138,79,1,,
6368e3f48413ec73f1962b8a,2023-06-16_10h20.13.738,phx_ver10,2022.2.5,Win32,60.03121623,,,,,,,,,,,,144,testing_3,sh2j,i,sh2j_i,sh2j_8_iji.wav,sh2j_1_ishi.wav,,FALSE,FALSE,,,,,,,,,,,,,,j,0.2091,space,0.3331,,,,,,,,0,139,139,143,1,,
6368e3f48413ec73f1962b8a,2023-06-16_10h20.13.738,phx_ver10,2022.2.5,Win32,60.03121623,,,,,,,,,,,,114,testing_3,sh2x,ei,sh2x_ei,sh2x_8_eixei.wav,sh2x_8_eixei.wav,,TRUE,FALSE,,,,,,,,,,,,,,f,0.472,space,0.6629,,,,,,,,0,140,140,113,1,,
6368e3f48413ec73f1962b8a,2023-06-16_10h20.13.738,phx_ver10,2022.2.5,Win32,60.03121623,,,,,,,,,,,,55,testing_3,zh2j,ai,zh2j_ai,zh2j_1_aizhai.wav,zh2j_8_aijai.wav,,FALSE,FALSE,,,,,,,,,,,,,,f,0.1165,space,0.441,,,,,,,,0,141,141,54,1,,
6368e3f48413ec73f1962b8a,2023-06-16_10h20.13.738,phx_ver10,2022.2.5,Win32,60.03121623,,,,,,,,,,,,14,testing_2,zh2x,ai,zh2x_ai,zh2x_8_aixai.wav,zh2x_8_aixai.wav,,TRUE,FALSE,,,,,,,,,,,,,,f,0.2428,space,0.2768,,,,,,,,0,142,142,13,1,,
6368e3f48413ec73f1962b8a,2023-06-16_10h20.13.738,phx_ver10,2022.2.5,Win32,60.03121623,,,,,,,,,,,,10,testing_1,zh2x,i,zh2x_i,zh2x_8_ixi.wav,zh2x_8_ixi_copy.wav,,TRUE,TRUE,,,,,,,,,,,,,,f,0.2098,space,0.4237,,,,,,,,0,143,143,9,1,,
6368e3f48413ec73f1962b8a,2023-06-16_10h20.13.738,phx_ver10,2022.2.5,Win32,60.03121623,,,,,,,,,,,,,,,,,,,,,,,,,,,,,,,,,,,,,,,,,,,,,,,,,,,space,4.2548
