participant,date,expName,psychopyVersion,OS,frameRate,space_1.keys,space_1.rt,space_2.keys,space_2.rt,space_train.keys,space_train.rt,training.thisRepN,training.thisTrialN,training.thisN,training.thisIndex,training.ran,token_id,task,continuum,vowel,series,sound_1,sound_2,img,same,trained,FJ_attn.keys,FJ_attn.rt,space_attn.keys,space_attn.rt,if_attn_test.thisRepN,if_attn_test.thisTrialN,if_attn_test.thisN,if_attn_test.thisIndex,if_attn_test.ran,space_trans_1.keys,space_trans_1.rt,space_trans_11.keys,space_trans_11.rt,FJ_test.keys,FJ_test.rt,space_test.keys,space_test.rt,testing_pre.thisRepN,testing_pre.thisTrialN,testing_pre.thisN,testing_pre.thisIndex,testing_pre.ran,space_trans_2.keys,space_trans_2.rt,testing_all.thisRepN,testing_all.thisTrialN,testing_all.thisN,testing_all.thisIndex,testing_all.ran,space_ending.keys,space_ending.rt
6385d65534631eaaa70c6f33,2023-06-16_09h45.22.733,phx_ver10,2022.2.5,Win32,61.36098668,,,,,,,,,,,,,,,,,,,,,,,,,,,,,,,,,,,,,,,,,,,,,,,,,,,,
6385d65534631eaaa70c6f33,2023-06-16_09h45.22.733,phx_ver10,2022.2.5,Win32,61.36098668,space,7.1674,,,,,,,,,,,,,,,,,,,,,,,,,,,,,,,,,,,,,,,,,,,,,,,,,,
6385d65534631eaaa70c6f33,2023-06-16_09h45.22.733,phx_ver10,2022.2.5,Win32,61.36098668,,,space,0.4996,,,,,,,,,,,,,,,,,,,,,,,,,,,,,,,,,,,,,,,,,,,,,,,,
6385d65534631eaaa70c6f33,2023-06-16_09h45.22.733,phx_ver10,2022.2.5,Win32,61.36098668,,,,,space,4.7317,0,0,0,13,1,14,training,zh2x,a,zh2x_a,zh2x_7_axa.wav,,axa.jpg,,,,,,,,,,,,,,,,,,,,,,,,,,,,,,,,,
6385d65534631eaaa70c6f33,2023-06-16_09h45.22.733,phx_ver10,2022.2.5,Win32,61.36098668,,,,,space,1.0344,0,1,1,35,1,36,training,zh2x,i,zh2x_i,zh2x_2_izhi.wav,,izhi.jpg,,,,,,,,,,,,,,,,,,,,,,,,,,,,,,,,,
6385d65534631eaaa70c6f33,2023-06-16_09h45.22.733,phx_ver10,2022.2.5,Win32,61.36098668,,,,,space,1.3511,0,2,2,20,1,21,training,zh2x,e,zh2x_e,zh2x_2_ezhe.wav,,ezhe.jpg,,,,,,,,,,,,,,,,,,,,,,,,,,,,,,,,,
6385d65534631eaaa70c6f33,2023-06-16_09h45.22.733,phx_ver10,2022.2.5,Win32,61.36098668,,,,,space,0.7368,0,3,3,31,1,32,training,zh2x,e,zh2x_e,zh2x_8_exe.wav,,exe.jpg,,,,,,,,,,,,,,,,,,,,,,,,,,,,,,,,,
6385d65534631eaaa70c6f33,2023-06-16_09h45.22.733,phx_ver10,2022.2.5,Win32,61.36098668,,,,,space,0.8841,0,4,4,44,1,45,training,zh2x,i,zh2x_i,zh2x_7_ixi.wav,,ixi.jpg,,,,,,,,,,,,,,,,,,,,,,,,,,,,,,,,,
6385d65534631eaaa70c6f33,2023-06-16_09h45.22.733,phx_ver10,2022.2.5,Win32,61.36098668,,,,,space,0.4504,0,5,5,1,1,2,training,zh2x,a,zh2x_a,zh2x_2_azha.wav,,azha.jpg,,,,,,,,,,,,,,,,,,,,,,,,,,,,,,,,,
6385d65534631eaaa70c6f33,2023-06-16_09h45.22.733,phx_ver10,2022.2.5,Win32,61.36098668,,,,,,,,,,,,,attn_test,,,,zh2x_1_ezhe.wav,zh2x_1_izhi.wav,ezhe.jpg,LEFT,,f,4.7325,space,5.1657,0,0,0,0,1,,,,,,,,,,,,,,,,,,,,,,
6385d65534631eaaa70c6f33,2023-06-16_09h45.22.733,phx_ver10,2022.2.5,Win32,61.36098668,,,,,space,0.8254,0,6,6,14,1,15,training,zh2x,a,zh2x_a,zh2x_7_axa.wav,,axa.jpg,,,,,,,,,,,,,,,,,,,,,,,,,,,,,,,,,
6385d65534631eaaa70c6f33,2023-06-16_09h45.22.733,phx_ver10,2022.2.5,Win32,61.36098668,,,,,space,0.3737,0,7,7,12,1,13,training,zh2x,a,zh2x_a,zh2x_7_axa.wav,,axa.jpg,,,,,,,,,,,,,,,,,,,,,,,,,,,,,,,,,
6385d65534631eaaa70c6f33,2023-06-16_09h45.22.733,phx_ver10,2022.2.5,Win32,61.36098668,,,,,space,4.6679,0,8,8,17,1,18,training,zh2x,e,zh2x_e,zh2x_2_ezhe.wav,,ezhe.jpg,,,,,,,,,,,,,,,,,,,,,,,,,,,,,,,,,
6385d65534631eaaa70c6f33,2023-06-16_09h45.22.733,phx_ver10,2022.2.5,Win32,61.36098668,,,,,space,1.2381,0,9,9,40,1,41,training,zh2x,i,zh2x_i,zh2x_5_ixi.wav,,ixi.jpg,,,,,,,,,,,,,,,,,,,,,,,,,,,,,,,,,
6385d65534631eaaa70c6f33,2023-06-16_09h45.22.733,phx_ver10,2022.2.5,Win32,61.36098668,,,,,space,0.4832,0,10,10,34,1,35,training,zh2x,i,zh2x_i,zh2x_2_izhi.wav,,izhi.jpg,,,,,,,,,,,,,,,,,,,,,,,,,,,,,,,,,
6385d65534631eaaa70c6f33,2023-06-16_09h45.22.733,phx_ver10,2022.2.5,Win32,61.36098668,,,,,space,0.1836,0,11,11,45,1,46,training,zh2x,i,zh2x_i,zh2x_7_ixi.wav,,ixi.jpg,,,,,,,,,,,,,,,,,,,,,,,,,,,,,,,,,
6385d65534631eaaa70c6f33,2023-06-16_09h45.22.733,phx_ver10,2022.2.5,Win32,61.36098668,,,,,,,,,,,,,attn_test,,,,zh2x_8_axa.wav,zh2x_8_exe.wav,axa.jpg,LEFT,,f,0.7344,space,1.0798,0,0,0,0,1,,,,,,,,,,,,,,,,,,,,,,
6385d65534631eaaa70c6f33,2023-06-16_09h45.22.733,phx_ver10,2022.2.5,Win32,61.36098668,,,,,space,0.5004,0,12,12,15,1,16,training,zh2x,a,zh2x_a,zh2x_8_axa.wav,,axa.jpg,,,,,,,,,,,,,,,,,,,,,,,,,,,,,,,,,
6385d65534631eaaa70c6f33,2023-06-16_09h45.22.733,phx_ver10,2022.2.5,Win32,61.36098668,,,,,space,0.3734,0,13,13,23,1,24,training,zh2x,e,zh2x_e,zh2x_4_ezhe.wav,,ezhe.jpg,,,,,,,,,,,,,,,,,,,,,,,,,,,,,,,,,
6385d65534631eaaa70c6f33,2023-06-16_09h45.22.733,phx_ver10,2022.2.5,Win32,61.36098668,,,,,space,0.0227,0,14,14,0,1,1,training,zh2x,a,zh2x_a,zh2x_1_azha.wav,,azha.jpg,,,,,,,,,,,,,,,,,,,,,,,,,,,,,,,,,
6385d65534631eaaa70c6f33,2023-06-16_09h45.22.733,phx_ver10,2022.2.5,Win32,61.36098668,,,,,space,0.2174,0,15,15,29,1,30,training,zh2x,e,zh2x_e,zh2x_7_exe.wav,,exe.jpg,,,,,,,,,,,,,,,,,,,,,,,,,,,,,,,,,
6385d65534631eaaa70c6f33,2023-06-16_09h45.22.733,phx_ver10,2022.2.5,Win32,61.36098668,,,,,space,0.1842,0,16,16,36,1,37,training,zh2x,i,zh2x_i,zh2x_2_izhi.wav,,izhi.jpg,,,,,,,,,,,,,,,,,,,,,,,,,,,,,,,,,
6385d65534631eaaa70c6f33,2023-06-16_09h45.22.733,phx_ver10,2022.2.5,Win32,61.36098668,,,,,space,0.4168,0,17,17,11,1,12,training,zh2x,a,zh2x_a,zh2x_7_axa.wav,,axa.jpg,,,,,,,,,,,,,,,,,,,,,,,,,,,,,,,,,
6385d65534631eaaa70c6f33,2023-06-16_09h45.22.733,phx_ver10,2022.2.5,Win32,61.36098668,,,,,,,,,,,,,attn_test,,,,zh2x_1_izhi.wav,zh2x_1_azha.wav,azha.jpg,RIGHT,,j,1.0849,space,1.4831,0,0,0,0,1,,,,,,,,,,,,,,,,,,,,,,
6385d65534631eaaa70c6f33,2023-06-16_09h45.22.733,phx_ver10,2022.2.5,Win32,61.36098668,,,,,space,0.4058,0,18,18,30,1,31,training,zh2x,e,zh2x_e,zh2x_7_exe.wav,,exe.jpg,,,,,,,,,,,,,,,,,,,,,,,,,,,,,,,,,
6385d65534631eaaa70c6f33,2023-06-16_09h45.22.733,phx_ver10,2022.2.5,Win32,61.36098668,,,,,space,0.1006,0,19,19,41,1,42,training,zh2x,i,zh2x_i,zh2x_6_ixi.wav,,ixi.jpg,,,,,,,,,,,,,,,,,,,,,,,,,,,,,,,,,
6385d65534631eaaa70c6f33,2023-06-16_09h45.22.733,phx_ver10,2022.2.5,Win32,61.36098668,,,,,space,0.1354,0,20,20,2,1,3,training,zh2x,a,zh2x_a,zh2x_2_azha.wav,,azha.jpg,,,,,,,,,,,,,,,,,,,,,,,,,,,,,,,,,
6385d65534631eaaa70c6f33,2023-06-16_09h45.22.733,phx_ver10,2022.2.5,Win32,61.36098668,,,,,space,0.1344,0,21,21,19,1,20,training,zh2x,e,zh2x_e,zh2x_2_ezhe.wav,,ezhe.jpg,,,,,,,,,,,,,,,,,,,,,,,,,,,,,,,,,
6385d65534631eaaa70c6f33,2023-06-16_09h45.22.733,phx_ver10,2022.2.5,Win32,61.36098668,,,,,space,0.334,0,22,22,22,1,23,training,zh2x,e,zh2x_e,zh2x_3_ezhe.wav,,ezhe.jpg,,,,,,,,,,,,,,,,,,,,,,,,,,,,,,,,,
6385d65534631eaaa70c6f33,2023-06-16_09h45.22.733,phx_ver10,2022.2.5,Win32,61.36098668,,,,,space,0.3509,0,23,23,16,1,17,training,zh2x,e,zh2x_e,zh2x_1_ezhe.wav,,ezhe.jpg,,,,,,,,,,,,,,,,,,,,,,,,,,,,,,,,,
6385d65534631eaaa70c6f33,2023-06-16_09h45.22.733,phx_ver10,2022.2.5,Win32,61.36098668,,,,,,,,,,,,,attn_test,,,,zh2x_1_ezhe.wav,zh2x_8_axa.wav,ezhe.jpg,LEFT,,f,0.117,space,0.4672,0,0,0,0,1,,,,,,,,,,,,,,,,,,,,,,
6385d65534631eaaa70c6f33,2023-06-16_09h45.22.733,phx_ver10,2022.2.5,Win32,61.36098668,,,,,space,0.0758,0,24,24,27,1,28,training,zh2x,e,zh2x_e,zh2x_7_exe.wav,,exe.jpg,,,,,,,,,,,,,,,,,,,,,,,,,,,,,,,,,
6385d65534631eaaa70c6f33,2023-06-16_09h45.22.733,phx_ver10,2022.2.5,Win32,61.36098668,,,,,space,0.1748,0,25,25,32,1,33,training,zh2x,i,zh2x_i,zh2x_1_izhi.wav,,izhi.jpg,,,,,,,,,,,,,,,,,,,,,,,,,,,,,,,,,
6385d65534631eaaa70c6f33,2023-06-16_09h45.22.733,phx_ver10,2022.2.5,Win32,61.36098668,,,,,space,0.037,0,26,26,6,1,7,training,zh2x,a,zh2x_a,zh2x_3_azha.wav,,azha.jpg,,,,,,,,,,,,,,,,,,,,,,,,,,,,,,,,,
6385d65534631eaaa70c6f33,2023-06-16_09h45.22.733,phx_ver10,2022.2.5,Win32,61.36098668,,,,,space,0.2506,0,27,27,42,1,43,training,zh2x,i,zh2x_i,zh2x_6_ixi.wav,,ixi.jpg,,,,,,,,,,,,,,,,,,,,,,,,,,,,,,,,,
6385d65534631eaaa70c6f33,2023-06-16_09h45.22.733,phx_ver10,2022.2.5,Win32,61.36098668,,,,,space,0.1006,0,28,28,8,1,9,training,zh2x,a,zh2x_a,zh2x_5_axa.wav,,axa.jpg,,,,,,,,,,,,,,,,,,,,,,,,,,,,,,,,,
6385d65534631eaaa70c6f33,2023-06-16_09h45.22.733,phx_ver10,2022.2.5,Win32,61.36098668,,,,,space,0.2339,0,29,29,39,1,40,training,zh2x,i,zh2x_i,zh2x_4_izhi.wav,,izhi.jpg,,,,,,,,,,,,,,,,,,,,,,,,,,,,,,,,,
6385d65534631eaaa70c6f33,2023-06-16_09h45.22.733,phx_ver10,2022.2.5,Win32,61.36098668,,,,,,,,,,,,,attn_test,,,,zh2x_8_exe.wav,zh2x_1_ezhe.wav,exe.jpg,LEFT,,j,1.2001,space,1.5166,0,0,0,0,1,,,,,,,,,,,,,,,,,,,,,,
6385d65534631eaaa70c6f33,2023-06-16_09h45.22.733,phx_ver10,2022.2.5,Win32,61.36098668,,,,,space,0.2675,0,30,30,26,1,27,training,zh2x,e,zh2x_e,zh2x_6_exe.wav,,exe.jpg,,,,,,,,,,,,,,,,,,,,,,,,,,,,,,,,,
6385d65534631eaaa70c6f33,2023-06-16_09h45.22.733,phx_ver10,2022.2.5,Win32,61.36098668,,,,,space,0.0884,0,31,31,4,1,5,training,zh2x,a,zh2x_a,zh2x_2_azha.wav,,azha.jpg,,,,,,,,,,,,,,,,,,,,,,,,,,,,,,,,,
6385d65534631eaaa70c6f33,2023-06-16_09h45.22.733,phx_ver10,2022.2.5,Win32,61.36098668,,,,,space,0.1169,0,32,32,18,1,19,training,zh2x,e,zh2x_e,zh2x_2_ezhe.wav,,ezhe.jpg,,,,,,,,,,,,,,,,,,,,,,,,,,,,,,,,,
6385d65534631eaaa70c6f33,2023-06-16_09h45.22.733,phx_ver10,2022.2.5,Win32,61.36098668,,,,,space,0.1409,0,33,33,28,1,29,training,zh2x,e,zh2x_e,zh2x_7_exe.wav,,exe.jpg,,,,,,,,,,,,,,,,,,,,,,,,,,,,,,,,,
6385d65534631eaaa70c6f33,2023-06-16_09h45.22.733,phx_ver10,2022.2.5,Win32,61.36098668,,,,,space,0.337,0,34,34,5,1,6,training,zh2x,a,zh2x_a,zh2x_3_azha.wav,,azha.jpg,,,,,,,,,,,,,,,,,,,,,,,,,,,,,,,,,
6385d65534631eaaa70c6f33,2023-06-16_09h45.22.733,phx_ver10,2022.2.5,Win32,61.36098668,,,,,space,0.0342,0,35,35,47,1,48,training,zh2x,i,zh2x_i,zh2x_8_ixi.wav,,ixi.jpg,,,,,,,,,,,,,,,,,,,,,,,,,,,,,,,,,
6385d65534631eaaa70c6f33,2023-06-16_09h45.22.733,phx_ver10,2022.2.5,Win32,61.36098668,,,,,,,,,,,,,attn_test,,,,zh2x_1_ezhe.wav,zh2x_8_exe.wav,ezhe.jpg,LEFT,,f,0.5506,space,0.9173,0,0,0,0,1,,,,,,,,,,,,,,,,,,,,,,
6385d65534631eaaa70c6f33,2023-06-16_09h45.22.733,phx_ver10,2022.2.5,Win32,61.36098668,,,,,space,0.3005,0,36,36,43,1,44,training,zh2x,i,zh2x_i,zh2x_7_ixi.wav,,ixi.jpg,,,,,,,,,,,,,,,,,,,,,,,,,,,,,,,,,
6385d65534631eaaa70c6f33,2023-06-16_09h45.22.733,phx_ver10,2022.2.5,Win32,61.36098668,,,,,space,0.0004,0,37,37,25,1,26,training,zh2x,e,zh2x_e,zh2x_6_exe.wav,,exe.jpg,,,,,,,,,,,,,,,,,,,,,,,,,,,,,,,,,
6385d65534631eaaa70c6f33,2023-06-16_09h45.22.733,phx_ver10,2022.2.5,Win32,61.36098668,,,,,space,0.4337,0,38,38,7,1,8,training,zh2x,a,zh2x_a,zh2x_4_azha.wav,,azha.jpg,,,,,,,,,,,,,,,,,,,,,,,,,,,,,,,,,
6385d65534631eaaa70c6f33,2023-06-16_09h45.22.733,phx_ver10,2022.2.5,Win32,61.36098668,,,,,space,0.198,0,39,39,10,1,11,training,zh2x,a,zh2x_a,zh2x_6_axa.wav,,axa.jpg,,,,,,,,,,,,,,,,,,,,,,,,,,,,,,,,,
6385d65534631eaaa70c6f33,2023-06-16_09h45.22.733,phx_ver10,2022.2.5,Win32,61.36098668,,,,,space,0.2081,0,40,40,33,1,34,training,zh2x,i,zh2x_i,zh2x_2_izhi.wav,,izhi.jpg,,,,,,,,,,,,,,,,,,,,,,,,,,,,,,,,,
6385d65534631eaaa70c6f33,2023-06-16_09h45.22.733,phx_ver10,2022.2.5,Win32,61.36098668,,,,,space,0.29,0,41,41,37,1,38,training,zh2x,i,zh2x_i,zh2x_3_izhi.wav,,izhi.jpg,,,,,,,,,,,,,,,,,,,,,,,,,,,,,,,,,
6385d65534631eaaa70c6f33,2023-06-16_09h45.22.733,phx_ver10,2022.2.5,Win32,61.36098668,,,,,,,,,,,,,attn_test,,,,zh2x_8_exe.wav,zh2x_1_azha.wav,exe.jpg,LEFT,,f,0.4511,space,0.7504,0,0,0,0,1,,,,,,,,,,,,,,,,,,,,,,
6385d65534631eaaa70c6f33,2023-06-16_09h45.22.733,phx_ver10,2022.2.5,Win32,61.36098668,,,,,space,0.1341,0,42,42,46,1,47,training,zh2x,i,zh2x_i,zh2x_7_ixi.wav,,ixi.jpg,,,,,,,,,,,,,,,,,,,,,,,,,,,,,,,,,
6385d65534631eaaa70c6f33,2023-06-16_09h45.22.733,phx_ver10,2022.2.5,Win32,61.36098668,,,,,space,0.0143,0,43,43,3,1,4,training,zh2x,a,zh2x_a,zh2x_2_azha.wav,,azha.jpg,,,,,,,,,,,,,,,,,,,,,,,,,,,,,,,,,
6385d65534631eaaa70c6f33,2023-06-16_09h45.22.733,phx_ver10,2022.2.5,Win32,61.36098668,,,,,space,0.3498,0,44,44,9,1,10,training,zh2x,a,zh2x_a,zh2x_6_axa.wav,,axa.jpg,,,,,,,,,,,,,,,,,,,,,,,,,,,,,,,,,
6385d65534631eaaa70c6f33,2023-06-16_09h45.22.733,phx_ver10,2022.2.5,Win32,61.36098668,,,,,space,0.3065,0,45,45,24,1,25,training,zh2x,e,zh2x_e,zh2x_5_exe.wav,,exe.jpg,,,,,,,,,,,,,,,,,,,,,,,,,,,,,,,,,
6385d65534631eaaa70c6f33,2023-06-16_09h45.22.733,phx_ver10,2022.2.5,Win32,61.36098668,,,,,space,0.1511,0,46,46,38,1,39,training,zh2x,i,zh2x_i,zh2x_3_izhi.wav,,izhi.jpg,,,,,,,,,,,,,,,,,,,,,,,,,,,,,,,,,
6385d65534631eaaa70c6f33,2023-06-16_09h45.22.733,phx_ver10,2022.2.5,Win32,61.36098668,,,,,space,0.0665,0,47,47,21,1,22,training,zh2x,e,zh2x_e,zh2x_3_ezhe.wav,,ezhe.jpg,,,,,,,,,,,,,,,,,,,,,,,,,,,,,,,,,
6385d65534631eaaa70c6f33,2023-06-16_09h45.22.733,phx_ver10,2022.2.5,Win32,61.36098668,,,,,,,,,,,,,attn_test,,,,zh2x_8_axa.wav,zh2x_8_exe.wav,exe.jpg,RIGHT,,j,0.217,space,0.5173,,,,,,,,,,,,,,,,,,,,,,,,,,,
6385d65534631eaaa70c6f33,2023-06-16_09h45.22.733,phx_ver10,2022.2.5,Win32,61.36098668,,,,,,,,,,,,,,,,,,,,,,,,,,,,,,,space,0.7883,,,,,,,,,,,,,,,,,,,,
6385d65534631eaaa70c6f33,2023-06-16_09h45.22.733,phx_ver10,2022.2.5,Win32,61.36098668,,,,,,,,,,,,,,,,,,,,,,,,,,,,,,,,,space,5.24,,,,,,,,,,,,,,,,,,
6385d65534631eaaa70c6f33,2023-06-16_09h45.22.733,phx_ver10,2022.2.5,Win32,61.36098668,,,,,,,,,,,,3,testing_pre,,,,afa.wav,aha.wav,,FALSE,,,,,,,,,,,,,,,j,0.7169,space,1.0835,0,0,0,2,1,,,,,,,,,
6385d65534631eaaa70c6f33,2023-06-16_09h45.22.733,phx_ver10,2022.2.5,Win32,61.36098668,,,,,,,,,,,,1,testing_pre,,,,ifi.wav,ifi.wav,,TRUE,,,,,,,,,,,,,,,f,0.2009,space,0.5177,0,1,1,0,1,,,,,,,,,
6385d65534631eaaa70c6f33,2023-06-16_09h45.22.733,phx_ver10,2022.2.5,Win32,61.36098668,,,,,,,,,,,,5,testing_pre,,,,ihi.wav,ifi.wav,,FALSE,,,,,,,,,,,,,,,f,0.1837,space,0.5672,0,2,2,4,1,,,,,,,,,
6385d65534631eaaa70c6f33,2023-06-16_09h45.22.733,phx_ver10,2022.2.5,Win32,61.36098668,,,,,,,,,,,,4,testing_pre,,,,eihei.wav,eihei.wav,,TRUE,,,,,,,,,,,,,,,f,0.157,space,0.4836,0,3,3,3,1,,,,,,,,,
6385d65534631eaaa70c6f33,2023-06-16_09h45.22.733,phx_ver10,2022.2.5,Win32,61.36098668,,,,,,,,,,,,2,testing_pre,,,,auhau.wav,aufau.wav,,FALSE,,,,,,,,,,,,,,,j,0.0504,space,0.3504,0,4,4,1,1,,,,,,,,,
6385d65534631eaaa70c6f33,2023-06-16_09h45.22.733,phx_ver10,2022.2.5,Win32,61.36098668,,,,,,,,,,,,,,,,,,,,,,,,,,,,,,,,,,,,,,,,,,,,space,0.4839,,,,,,,
6385d65534631eaaa70c6f33,2023-06-16_09h45.22.733,phx_ver10,2022.2.5,Win32,61.36098668,,,,,,,,,,,,60,testing_3,zh2j,au,zh2j_au,zh2j_8_aujau.wav,zh2j_1_auzhau.wav,,FALSE,FALSE,,,,,,,,,,,,,,f,2.6146,space,3.7857,,,,,,,,0,0,0,59,1,,
6385d65534631eaaa70c6f33,2023-06-16_09h45.22.733,phx_ver10,2022.2.5,Win32,61.36098668,,,,,,,,,,,,37,testing_3,zh2sh,e,zh2sh_e,zh2sh_1_ezhe.wav,zh2sh_1_ezhe.wav,,TRUE,FALSE,,,,,,,,,,,,,,f,0.0976,space,0.4835,,,,,,,,0,1,1,36,1,,
6385d65534631eaaa70c6f33,2023-06-16_09h45.22.733,phx_ver10,2022.2.5,Win32,61.36098668,,,,,,,,,,,,7,testing_1,zh2x,e,zh2x_e,zh2x_1_ezhe.wav,zh2x_8_exe.wav,,FALSE,TRUE,,,,,,,,,,,,,,j,0.4003,space,0.6672,,,,,,,,0,2,2,6,1,,
6385d65534631eaaa70c6f33,2023-06-16_09h45.22.733,phx_ver10,2022.2.5,Win32,61.36098668,,,,,,,,,,,,130,testing_3,sh2j,au,sh2j_au,sh2j_8_aujau.wav,sh2j_8_aujau.wav,,TRUE,FALSE,,,,,,,,,,,,,,f,0.1676,space,0.4902,,,,,,,,0,3,3,129,1,,
6385d65534631eaaa70c6f33,2023-06-16_09h45.22.733,phx_ver10,2022.2.5,Win32,61.36098668,,,,,,,,,,,,18,testing_2,zh2x,au,zh2x_au,zh2x_8_auxau.wav,zh2x_8_auxau.wav,,TRUE,FALSE,,,,,,,,,,,,,,f,0.0503,space,0.4034,,,,,,,,0,4,4,17,1,,
6385d65534631eaaa70c6f33,2023-06-16_09h45.22.733,phx_ver10,2022.2.5,Win32,61.36098668,,,,,,,,,,,,25,testing_3,zh2sh,a,zh2sh_a,zh2sh_1_azha.wav,zh2sh_1_azha.wav,,TRUE,FALSE,,,,,,,,,,,,,,f,0.0363,space,0.3845,,,,,,,,0,5,5,24,1,,
6385d65534631eaaa70c6f33,2023-06-16_09h45.22.733,phx_ver10,2022.2.5,Win32,61.36098668,,,,,,,,,,,,68,testing_3,zh2j,ei,zh2j_ei,zh2j_8_eijei.wav,zh2j_1_eizhei.wav,,FALSE,FALSE,,,,,,,,,,,,,,f,0.1521,space,0.4545,,,,,,,,0,6,6,67,1,,
6385d65534631eaaa70c6f33,2023-06-16_09h45.22.733,phx_ver10,2022.2.5,Win32,61.36098668,,,,,,,,,,,,117,testing_3,sh2x,i,sh2x_i,sh2x_1_ishi.wav,sh2x_1_ishi.wav,,TRUE,FALSE,,,,,,,,,,,,,,f,0.2507,space,0.5507,,,,,,,,0,7,7,116,1,,
6385d65534631eaaa70c6f33,2023-06-16_09h45.22.733,phx_ver10,2022.2.5,Win32,61.36098668,,,,,,,,,,,,103,testing_3,sh2x,ai,sh2x_ai,sh2x_1_aishai.wav,sh2x_8_aixai.wav,,FALSE,FALSE,,,,,,,,,,,,,,j,0.0089,space,0.337,,,,,,,,0,8,8,102,1,,
6385d65534631eaaa70c6f33,2023-06-16_09h45.22.733,phx_ver10,2022.2.5,Win32,61.36098668,,,,,,,,,,,,2,testing_1,zh2x,a,zh2x_a,zh2x_8_axa.wav,zh2x_8_axa_copy.wav,,TRUE,TRUE,,,,,,,,,,,,,,f,0.0342,space,0.3336,,,,,,,,0,9,9,1,1,,
6385d65534631eaaa70c6f33,2023-06-16_09h45.22.733,phx_ver10,2022.2.5,Win32,61.36098668,,,,,,,,,,,,122,testing_3,sh2j,a,sh2j_a,sh2j_8_aja.wav,sh2j_8_aja.wav,,TRUE,FALSE,,,,,,,,,,,,,,f,0.304,space,0.5669,,,,,,,,0,10,10,121,1,,
6385d65534631eaaa70c6f33,2023-06-16_09h45.22.733,phx_ver10,2022.2.5,Win32,61.36098668,,,,,,,,,,,,90,testing_3,j2x,ei,j2x_ei,j2x_8_eixei.wav,j2x_8_eixei.wav,,TRUE,FALSE,,,,,,,,,,,,,,f,0.0005,space,0.3004,,,,,,,,0,11,11,89,1,,
6385d65534631eaaa70c6f33,2023-06-16_09h45.22.733,phx_ver10,2022.2.5,Win32,61.36098668,,,,,,,,,,,,139,testing_3,sh2j,ei,sh2j_ei,sh2j_1_eishei.wav,sh2j_8_eijei.wav,,FALSE,FALSE,,,,,,,,,,,,,,j,0.3398,space,0.6035,,,,,,,,0,12,12,138,1,,
6385d65534631eaaa70c6f33,2023-06-16_09h45.22.733,phx_ver10,2022.2.5,Win32,61.36098668,,,,,,,,,,,,10,testing_1,zh2x,i,zh2x_i,zh2x_8_ixi.wav,zh2x_8_ixi_copy.wav,,TRUE,TRUE,,,,,,,,,,,,,,f,0.2839,space,0.5505,,,,,,,,0,13,13,9,1,,
6385d65534631eaaa70c6f33,2023-06-16_09h45.22.733,phx_ver10,2022.2.5,Win32,61.36098668,,,,,,,,,,,,142,testing_3,sh2j,i,sh2j_i,sh2j_8_iji.wav,sh2j_8_iji.wav,,TRUE,FALSE,,,,,,,,,,,,,,f,0.3887,space,0.698,,,,,,,,0,14,14,141,1,,
6385d65534631eaaa70c6f33,2023-06-16_09h45.22.733,phx_ver10,2022.2.5,Win32,61.36098668,,,,,,,,,,,,124,testing_3,sh2j,a,sh2j_a,sh2j_8_aja.wav,sh2j_1_asha.wav,,FALSE,FALSE,,,,,,,,,,,,,,j,0.1847,space,0.4673,,,,,,,,0,15,15,123,1,,
6385d65534631eaaa70c6f33,2023-06-16_09h45.22.733,phx_ver10,2022.2.5,Win32,61.36098668,,,,,,,,,,,,22,testing_2,zh2x,ei,zh2x_ei,zh2x_8_eixei.wav,zh2x_8_eixei.wav,,TRUE,FALSE,,,,,,,,,,,,,,f,0.2514,space,0.5181,,,,,,,,0,16,16,21,1,,
6385d65534631eaaa70c6f33,2023-06-16_09h45.22.733,phx_ver10,2022.2.5,Win32,61.36098668,,,,,,,,,,,,132,testing_3,sh2j,au,sh2j_au,sh2j_8_aujau.wav,sh2j_1_aushau.wav,,FALSE,FALSE,,,,,,,,,,,,,,j,0.0169,space,0.3999,,,,,,,,0,17,17,131,1,,
6385d65534631eaaa70c6f33,2023-06-16_09h45.22.733,phx_ver10,2022.2.5,Win32,61.36098668,,,,,,,,,,,,88,testing_3,j2x,e,j2x_e,j2x_8_exe.wav,j2x_1_eje.wav,,FALSE,FALSE,,,,,,,,,,,,,,j,0.0079,space,0.3701,,,,,,,,0,18,18,87,1,,
6385d65534631eaaa70c6f33,2023-06-16_09h45.22.733,phx_ver10,2022.2.5,Win32,61.36098668,,,,,,,,,,,,111,testing_3,sh2x,e,sh2x_e,sh2x_1_eshe.wav,sh2x_8_exe.wav,,FALSE,FALSE,,,,,,,,,,,,,,j,0.5889,space,0.8832,,,,,,,,0,19,19,110,1,,
6385d65534631eaaa70c6f33,2023-06-16_09h45.22.733,phx_ver10,2022.2.5,Win32,61.36098668,,,,,,,,,,,,107,testing_3,sh2x,au,sh2x_au,sh2x_1_aushau.wav,sh2x_8_auxau.wav,,FALSE,FALSE,,,,,,,,,,,,,,j,0.139,space,0.4344,,,,,,,,0,20,20,106,1,,
6385d65534631eaaa70c6f33,2023-06-16_09h45.22.733,phx_ver10,2022.2.5,Win32,61.36098668,,,,,,,,,,,,108,testing_3,sh2x,au,sh2x_au,sh2x_8_auxau.wav,sh2x_1_aushau.wav,,FALSE,FALSE,,,,,,,,,,,,,,j,0.0037,space,0.3008,,,,,,,,0,21,21,107,1,,
6385d65534631eaaa70c6f33,2023-06-16_09h45.22.733,phx_ver10,2022.2.5,Win32,61.36098668,,,,,,,,,,,,98,testing_3,sh2x,a,sh2x_a,sh2x_8_axa.wav,sh2x_8_axa.wav,,TRUE,FALSE,,,,,,,,,,,,,,f,0.2834,space,0.5166,,,,,,,,0,22,22,97,1,,
6385d65534631eaaa70c6f33,2023-06-16_09h45.22.733,phx_ver10,2022.2.5,Win32,61.36098668,,,,,,,,,,,,84,testing_3,j2x,au,j2x_au,j2x_8_auxau.wav,j2x_1_aujau.wav,,FALSE,FALSE,,,,,,,,,,,,,,j,0.3433,space,0.587,,,,,,,,0,23,23,83,1,,
6385d65534631eaaa70c6f33,2023-06-16_09h45.22.733,phx_ver10,2022.2.5,Win32,61.36098668,,,,,,,,,,,,78,testing_3,j2x,ai,j2x_ai,j2x_8_aixai.wav,j2x_8_aixai.wav,,TRUE,FALSE,,,,,,,,,,,,,,f,0.0217,space,0.4176,,,,,,,,0,24,24,77,1,,
6385d65534631eaaa70c6f33,2023-06-16_09h45.22.733,phx_ver10,2022.2.5,Win32,61.36098668,,,,,,,,,,,,6,testing_1,zh2x,e,zh2x_e,zh2x_8_exe.wav,zh2x_8_exe_copy.wav,,TRUE,TRUE,,,,,,,,,,,,,,f,0.186,space,0.4647,,,,,,,,0,25,25,5,1,,
6385d65534631eaaa70c6f33,2023-06-16_09h45.22.733,phx_ver10,2022.2.5,Win32,61.36098668,,,,,,,,,,,,13,testing_2,zh2x,ai,zh2x_ai,zh2x_1_aizhai.wav,zh2x_1_aizhai.wav,,TRUE,FALSE,,,,,,,,,,,,,,f,0.0677,space,0.401,,,,,,,,0,26,26,12,1,,
6385d65534631eaaa70c6f33,2023-06-16_09h45.22.733,phx_ver10,2022.2.5,Win32,61.36098668,,,,,,,,,,,,93,testing_3,j2x,i,j2x_i,j2x_1_iji.wav,j2x_1_iji.wav,,TRUE,FALSE,,,,,,,,,,,,,,f,0.0505,space,0.356,,,,,,,,0,27,27,92,1,,
6385d65534631eaaa70c6f33,2023-06-16_09h45.22.733,phx_ver10,2022.2.5,Win32,61.36098668,,,,,,,,,,,,55,testing_3,zh2j,ai,zh2j_ai,zh2j_1_aizhai.wav,zh2j_8_aijai.wav,,FALSE,FALSE,,,,,,,,,,,,,,f,0.7033,space,1.3598,,,,,,,,0,28,28,54,1,,
6385d65534631eaaa70c6f33,2023-06-16_09h45.22.733,phx_ver10,2022.2.5,Win32,61.36098668,,,,,,,,,,,,96,testing_3,j2x,i,j2x_i,j2x_8_ixi.wav,j2x_1_iji.wav,,FALSE,FALSE,,,,,,,,,,,,,,j,0.0005,space,0.2863,,,,,,,,0,29,29,95,1,,
6385d65534631eaaa70c6f33,2023-06-16_09h45.22.733,phx_ver10,2022.2.5,Win32,61.36098668,,,,,,,,,,,,95,testing_3,j2x,i,j2x_i,j2x_1_iji.wav,j2x_8_ixi.wav,,FALSE,FALSE,,,,,,,,,,,,,,j,0.8001,space,1.1197,,,,,,,,0,30,30,94,1,,
6385d65534631eaaa70c6f33,2023-06-16_09h45.22.733,phx_ver10,2022.2.5,Win32,61.36098668,,,,,,,,,,,,131,testing_3,sh2j,au,sh2j_au,sh2j_1_aushau.wav,sh2j_8_aujau.wav,,FALSE,FALSE,,,,,,,,,,,,,,j,0.0729,space,0.37,,,,,,,,0,31,31,130,1,,
6385d65534631eaaa70c6f33,2023-06-16_09h45.22.733,phx_ver10,2022.2.5,Win32,61.36098668,,,,,,,,,,,,69,testing_3,zh2j,i,zh2j_i,zh2j_1_izhi.wav,zh2j_1_izhi.wav,,TRUE,FALSE,,,,,,,,,,,,,,f,0.3041,space,0.6339,,,,,,,,0,32,32,68,1,,
6385d65534631eaaa70c6f33,2023-06-16_09h45.22.733,phx_ver10,2022.2.5,Win32,61.36098668,,,,,,,,,,,,125,testing_3,sh2j,ai,sh2j_ai,sh2j_1_aishai.wav,sh2j_1_aishai.wav,,TRUE,FALSE,,,,,,,,,,,,,,f,0.219,space,0.5508,,,,,,,,0,33,33,124,1,,
6385d65534631eaaa70c6f33,2023-06-16_09h45.22.733,phx_ver10,2022.2.5,Win32,61.36098668,,,,,,,,,,,,54,testing_3,zh2j,ai,zh2j_ai,zh2j_8_aijai.wav,zh2j_8_aijai.wav,,TRUE,FALSE,,,,,,,,,,,,,,f,0.3001,space,0.5678,,,,,,,,0,34,34,53,1,,
6385d65534631eaaa70c6f33,2023-06-16_09h45.22.733,phx_ver10,2022.2.5,Win32,61.36098668,,,,,,,,,,,,31,testing_3,zh2sh,ai,zh2sh_ai,zh2sh_1_aizhai.wav,zh2sh_8_aishai.wav,,FALSE,FALSE,,,,,,,,,,,,,,j,0.2337,space,0.5175,,,,,,,,0,35,35,30,1,,
6385d65534631eaaa70c6f33,2023-06-16_09h45.22.733,phx_ver10,2022.2.5,Win32,61.36098668,,,,,,,,,,,,46,testing_3,zh2sh,i,zh2sh_i,zh2sh_8_ishi.wav,zh2sh_8_ishi.wav,,TRUE,FALSE,,,,,,,,,,,,,,f,0.5315,space,0.8315,,,,,,,,0,36,36,45,1,,
6385d65534631eaaa70c6f33,2023-06-16_09h45.22.733,phx_ver10,2022.2.5,Win32,61.36098668,,,,,,,,,,,,26,testing_3,zh2sh,a,zh2sh_a,zh2sh_8_asha.wav,zh2sh_8_asha.wav,,TRUE,FALSE,,,,,,,,,,,,,,f,0.0665,space,0.3899,,,,,,,,0,37,37,25,1,,
6385d65534631eaaa70c6f33,2023-06-16_09h45.22.733,phx_ver10,2022.2.5,Win32,61.36098668,,,,,,,,,,,,41,testing_3,zh2sh,ei,zh2sh_ei,zh2sh_1_eizhei.wav,zh2sh_1_eizhei.wav,,TRUE,FALSE,,,,,,,,,,,,,,f,0.1377,space,0.8763,,,,,,,,0,38,38,40,1,,
6385d65534631eaaa70c6f33,2023-06-16_09h45.22.733,phx_ver10,2022.2.5,Win32,61.36098668,,,,,,,,,,,,58,testing_3,zh2j,au,zh2j_au,zh2j_8_aujau.wav,zh2j_8_aujau.wav,,TRUE,FALSE,,,,,,,,,,,,,,f,0.1534,space,0.3838,,,,,,,,0,39,39,57,1,,
6385d65534631eaaa70c6f33,2023-06-16_09h45.22.733,phx_ver10,2022.2.5,Win32,61.36098668,,,,,,,,,,,,66,testing_3,zh2j,ei,zh2j_ei,zh2j_8_eijei.wav,zh2j_8_eijei.wav,,TRUE,FALSE,,,,,,,,,,,,,,f,0.2006,space,0.4506,,,,,,,,0,40,40,65,1,,
6385d65534631eaaa70c6f33,2023-06-16_09h45.22.733,phx_ver10,2022.2.5,Win32,61.36098668,,,,,,,,,,,,74,testing_3,j2x,a,j2x_a,j2x_8_axa.wav,j2x_8_axa.wav,,TRUE,FALSE,,,,,,,,,,,,,,f,0.0981,space,0.3879,,,,,,,,0,41,41,73,1,,
6385d65534631eaaa70c6f33,2023-06-16_09h45.22.733,phx_ver10,2022.2.5,Win32,61.36098668,,,,,,,,,,,,77,testing_3,j2x,ai,j2x_ai,j2x_1_aijai.wav,j2x_1_aijai.wav,,TRUE,FALSE,,,,,,,,,,,,,,f,0.0863,space,0.3875,,,,,,,,0,42,42,76,1,,
6385d65534631eaaa70c6f33,2023-06-16_09h45.22.733,phx_ver10,2022.2.5,Win32,61.36098668,,,,,,,,,,,,56,testing_3,zh2j,ai,zh2j_ai,zh2j_8_aijai.wav,zh2j_1_aizhai.wav,,FALSE,FALSE,,,,,,,,,,,,,,f,0.2507,space,0.5334,,,,,,,,0,43,43,55,1,,
6385d65534631eaaa70c6f33,2023-06-16_09h45.22.733,phx_ver10,2022.2.5,Win32,61.36098668,,,,,,,,,,,,140,testing_3,sh2j,ei,sh2j_ei,sh2j_8_eijei.wav,sh2j_1_eishei.wav,,FALSE,FALSE,,,,,,,,,,,,,,j,0.1187,space,0.4475,,,,,,,,0,44,44,139,1,,
6385d65534631eaaa70c6f33,2023-06-16_09h45.22.733,phx_ver10,2022.2.5,Win32,61.36098668,,,,,,,,,,,,15,testing_2,zh2x,ai,zh2x_ai,zh2x_1_aizhai.wav,zh2x_8_aixai.wav,,FALSE,FALSE,,,,,,,,,,,,,,j,0.4168,space,0.7306,,,,,,,,0,45,45,14,1,,
6385d65534631eaaa70c6f33,2023-06-16_09h45.22.733,phx_ver10,2022.2.5,Win32,61.36098668,,,,,,,,,,,,33,testing_3,zh2sh,au,zh2sh_au,zh2sh_1_auzhau.wav,zh2sh_1_auzhau.wav,,TRUE,FALSE,,,,,,,,,,,,,,f,0.0504,space,0.3557,,,,,,,,0,46,46,32,1,,
6385d65534631eaaa70c6f33,2023-06-16_09h45.22.733,phx_ver10,2022.2.5,Win32,61.36098668,,,,,,,,,,,,49,testing_3,zh2j,a,zh2j_a,zh2j_1_azha.wav,zh2j_1_azha.wav,,TRUE,FALSE,,,,,,,,,,,,,,f,0.1233,space,0.3836,,,,,,,,0,47,47,48,1,,
6385d65534631eaaa70c6f33,2023-06-16_09h45.22.733,phx_ver10,2022.2.5,Win32,61.36098668,,,,,,,,,,,,128,testing_3,sh2j,ai,sh2j_ai,sh2j_8_aijai.wav,sh2j_1_aishai.wav,,FALSE,FALSE,,,,,,,,,,,,,,j,0.3194,space,0.6534,,,,,,,,0,48,48,127,1,,
6385d65534631eaaa70c6f33,2023-06-16_09h45.22.733,phx_ver10,2022.2.5,Win32,61.36098668,,,,,,,,,,,,57,testing_3,zh2j,au,zh2j_au,zh2j_1_auzhau.wav,zh2j_1_auzhau.wav,,TRUE,FALSE,,,,,,,,,,,,,,f,0.2474,space,0.6679,,,,,,,,0,49,49,56,1,,
6385d65534631eaaa70c6f33,2023-06-16_09h45.22.733,phx_ver10,2022.2.5,Win32,61.36098668,,,,,,,,,,,,17,testing_2,zh2x,au,zh2x_au,zh2x_1_auzhau.wav,zh2x_1_auzhau.wav,,TRUE,FALSE,,,,,,,,,,,,,,f,0.05,space,0.3836,,,,,,,,0,50,50,16,1,,
6385d65534631eaaa70c6f33,2023-06-16_09h45.22.733,phx_ver10,2022.2.5,Win32,61.36098668,,,,,,,,,,,,23,testing_2,zh2x,ei,zh2x_ei,zh2x_1_eizhei.wav,zh2x_8_eixei.wav,,FALSE,FALSE,,,,,,,,,,,,,,j,0.6007,space,0.9334,,,,,,,,0,51,51,22,1,,
6385d65534631eaaa70c6f33,2023-06-16_09h45.22.733,phx_ver10,2022.2.5,Win32,61.36098668,,,,,,,,,,,,121,testing_3,sh2j,a,sh2j_a,sh2j_1_asha.wav,sh2j_1_asha.wav,,TRUE,FALSE,,,,,,,,,,,,,,f,0.1737,space,0.8316,,,,,,,,0,52,52,120,1,,
6385d65534631eaaa70c6f33,2023-06-16_09h45.22.733,phx_ver10,2022.2.5,Win32,61.36098668,,,,,,,,,,,,118,testing_3,sh2x,i,sh2x_i,sh2x_8_ixi.wav,sh2x_8_ixi.wav,,TRUE,FALSE,,,,,,,,,,,,,,f,0.5667,space,0.8671,,,,,,,,0,53,53,117,1,,
6385d65534631eaaa70c6f33,2023-06-16_09h45.22.733,phx_ver10,2022.2.5,Win32,61.36098668,,,,,,,,,,,,44,testing_3,zh2sh,ei,zh2sh_ei,zh2sh_8_eishei.wav,zh2sh_1_eizhei.wav,,FALSE,FALSE,,,,,,,,,,,,,,j,0.2887,space,0.5746,,,,,,,,0,54,54,43,1,,
6385d65534631eaaa70c6f33,2023-06-16_09h45.22.733,phx_ver10,2022.2.5,Win32,61.36098668,,,,,,,,,,,,40,testing_3,zh2sh,e,zh2sh_e,zh2sh_8_eshe.wav,zh2sh_1_ezhe.wav,,FALSE,FALSE,,,,,,,,,,,,,,j,1.1986,space,1.468,,,,,,,,0,55,55,39,1,,
6385d65534631eaaa70c6f33,2023-06-16_09h45.22.733,phx_ver10,2022.2.5,Win32,61.36098668,,,,,,,,,,,,143,testing_3,sh2j,i,sh2j_i,sh2j_1_ishi.wav,sh2j_8_iji.wav,,FALSE,FALSE,,,,,,,,,,,,,,j,0.3407,space,0.5839,,,,,,,,0,56,56,142,1,,
6385d65534631eaaa70c6f33,2023-06-16_09h45.22.733,phx_ver10,2022.2.5,Win32,61.36098668,,,,,,,,,,,,126,testing_3,sh2j,ai,sh2j_ai,sh2j_8_aijai.wav,sh2j_8_aijai.wav,,TRUE,FALSE,,,,,,,,,,,,,,f,0.1684,space,0.4858,,,,,,,,0,57,57,125,1,,
6385d65534631eaaa70c6f33,2023-06-16_09h45.22.733,phx_ver10,2022.2.5,Win32,61.36098668,,,,,,,,,,,,91,testing_3,j2x,ei,j2x_ei,j2x_1_eijei.wav,j2x_8_eixei.wav,,FALSE,FALSE,,,,,,,,,,,,,,j,0.2012,space,0.4677,,,,,,,,0,58,58,90,1,,
6385d65534631eaaa70c6f33,2023-06-16_09h45.22.733,phx_ver10,2022.2.5,Win32,61.36098668,,,,,,,,,,,,28,testing_3,zh2sh,a,zh2sh_a,zh2sh_8_asha.wav,zh2sh_1_azha.wav,,FALSE,FALSE,,,,,,,,,,,,,,j,1.4678,space,1.7046,,,,,,,,0,59,59,27,1,,
6385d65534631eaaa70c6f33,2023-06-16_09h45.22.733,phx_ver10,2022.2.5,Win32,61.36098668,,,,,,,,,,,,144,testing_3,sh2j,i,sh2j_i,sh2j_8_iji.wav,sh2j_1_ishi.wav,,FALSE,FALSE,,,,,,,,,,,,,,j,0.2168,space,0.4381,,,,,,,,0,60,60,143,1,,
6385d65534631eaaa70c6f33,2023-06-16_09h45.22.733,phx_ver10,2022.2.5,Win32,61.36098668,,,,,,,,,,,,138,testing_3,sh2j,ei,sh2j_ei,sh2j_8_eijei.wav,sh2j_8_eijei.wav,,TRUE,FALSE,,,,,,,,,,,,,,f,0.0005,space,0.2505,,,,,,,,0,61,61,137,1,,
6385d65534631eaaa70c6f33,2023-06-16_09h45.22.733,phx_ver10,2022.2.5,Win32,61.36098668,,,,,,,,,,,,27,testing_3,zh2sh,a,zh2sh_a,zh2sh_1_azha.wav,zh2sh_8_asha.wav,,FALSE,FALSE,,,,,,,,,,,,,,j,0.251,space,0.4669,,,,,,,,0,62,62,26,1,,
6385d65534631eaaa70c6f33,2023-06-16_09h45.22.733,phx_ver10,2022.2.5,Win32,61.36098668,,,,,,,,,,,,8,testing_1,zh2x,e,zh2x_e,zh2x_8_exe.wav,zh2x_1_ezhe.wav,,FALSE,TRUE,,,,,,,,,,,,,,j,0.3163,space,0.5566,,,,,,,,0,63,63,7,1,,
6385d65534631eaaa70c6f33,2023-06-16_09h45.22.733,phx_ver10,2022.2.5,Win32,61.36098668,,,,,,,,,,,,141,testing_3,sh2j,i,sh2j_i,sh2j_1_ishi.wav,sh2j_1_ishi.wav,,TRUE,FALSE,,,,,,,,,,,,,,f,0.3375,space,0.603,,,,,,,,0,64,64,140,1,,
6385d65534631eaaa70c6f33,2023-06-16_09h45.22.733,phx_ver10,2022.2.5,Win32,61.36098668,,,,,,,,,,,,106,testing_3,sh2x,au,sh2x_au,sh2x_8_auxau.wav,sh2x_8_auxau.wav,,TRUE,FALSE,,,,,,,,,,,,,,f,0.1341,space,0.4003,,,,,,,,0,65,65,105,1,,
6385d65534631eaaa70c6f33,2023-06-16_09h45.22.733,phx_ver10,2022.2.5,Win32,61.36098668,,,,,,,,,,,,120,testing_3,sh2x,i,sh2x_i,sh2x_8_ixi.wav,sh2x_1_ishi.wav,,FALSE,FALSE,,,,,,,,,,,,,,j,0.2392,space,0.4666,,,,,,,,0,66,66,119,1,,
6385d65534631eaaa70c6f33,2023-06-16_09h45.22.733,phx_ver10,2022.2.5,Win32,61.36098668,,,,,,,,,,,,32,testing_3,zh2sh,ai,zh2sh_ai,zh2sh_8_aishai.wav,zh2sh_1_aizhai.wav,,FALSE,FALSE,,,,,,,,,,,,,,j,0.284,space,0.6,,,,,,,,0,67,67,31,1,,
6385d65534631eaaa70c6f33,2023-06-16_09h45.22.733,phx_ver10,2022.2.5,Win32,61.36098668,,,,,,,,,,,,105,testing_3,sh2x,au,sh2x_au,sh2x_1_aushau.wav,sh2x_1_aushau.wav,,TRUE,FALSE,,,,,,,,,,,,,,f,0.3502,space,0.5977,,,,,,,,0,68,68,104,1,,
6385d65534631eaaa70c6f33,2023-06-16_09h45.22.733,phx_ver10,2022.2.5,Win32,61.36098668,,,,,,,,,,,,100,testing_3,sh2x,a,sh2x_a,sh2x_8_axa.wav,sh2x_1_asha.wav,,FALSE,FALSE,,,,,,,,,,,,,,j,0.2842,space,0.5404,,,,,,,,0,69,69,99,1,,
6385d65534631eaaa70c6f33,2023-06-16_09h45.22.733,phx_ver10,2022.2.5,Win32,61.36098668,,,,,,,,,,,,35,testing_3,zh2sh,au,zh2sh_au,zh2sh_1_auzhau.wav,zh2sh_8_aushau.wav,,FALSE,FALSE,,,,,,,,,,,,,,j,0.4492,space,0.7505,,,,,,,,0,70,70,34,1,,
6385d65534631eaaa70c6f33,2023-06-16_09h45.22.733,phx_ver10,2022.2.5,Win32,61.36098668,,,,,,,,,,,,70,testing_3,zh2j,i,zh2j_i,zh2j_8_iji.wav,zh2j_8_iji.wav,,TRUE,FALSE,,,,,,,,,,,,,,f,0.0842,space,0.3528,,,,,,,,0,71,71,69,1,,
6385d65534631eaaa70c6f33,2023-06-16_09h45.22.733,phx_ver10,2022.2.5,Win32,61.36098668,,,,,,,,,,,,62,testing_3,zh2j,e,zh2j_e,zh2j_8_eje.wav,zh2j_8_eje.wav,,TRUE,FALSE,,,,,,,,,,,,,,f,0.1338,space,0.4217,,,,,,,,0,72,72,61,1,,
6385d65534631eaaa70c6f33,2023-06-16_09h45.22.733,phx_ver10,2022.2.5,Win32,61.36098668,,,,,,,,,,,,112,testing_3,sh2x,e,sh2x_e,sh2x_8_exe.wav,sh2x_1_eshe.wav,,FALSE,FALSE,,,,,,,,,,,,,,j,0.039,space,0.324,,,,,,,,0,73,73,111,1,,
6385d65534631eaaa70c6f33,2023-06-16_09h45.22.733,phx_ver10,2022.2.5,Win32,61.36098668,,,,,,,,,,,,45,testing_3,zh2sh,i,zh2sh_i,zh2sh_1_izhi.wav,zh2sh_1_izhi.wav,,TRUE,FALSE,,,,,,,,,,,,,,f,0.7666,space,1.0167,,,,,,,,0,74,74,44,1,,
6385d65534631eaaa70c6f33,2023-06-16_09h45.22.733,phx_ver10,2022.2.5,Win32,61.36098668,,,,,,,,,,,,61,testing_3,zh2j,e,zh2j_e,zh2j_1_ezhe.wav,zh2j_1_ezhe.wav,,TRUE,FALSE,,,,,,,,,,,,,,f,0.217,space,0.5319,,,,,,,,0,75,75,60,1,,
6385d65534631eaaa70c6f33,2023-06-16_09h45.22.733,phx_ver10,2022.2.5,Win32,61.36098668,,,,,,,,,,,,59,testing_3,zh2j,au,zh2j_au,zh2j_1_auzhau.wav,zh2j_8_aujau.wav,,FALSE,FALSE,,,,,,,,,,,,,,j,0.3672,space,0.6171,,,,,,,,0,76,76,58,1,,
6385d65534631eaaa70c6f33,2023-06-16_09h45.22.733,phx_ver10,2022.2.5,Win32,61.36098668,,,,,,,,,,,,47,testing_3,zh2sh,i,zh2sh_i,zh2sh_1_izhi.wav,zh2sh_8_ishi.wav,,FALSE,FALSE,,,,,,,,,,,,,,j,0.2176,space,0.5174,,,,,,,,0,77,77,46,1,,
6385d65534631eaaa70c6f33,2023-06-16_09h45.22.733,phx_ver10,2022.2.5,Win32,61.36098668,,,,,,,,,,,,129,testing_3,sh2j,au,sh2j_au,sh2j_1_aushau.wav,sh2j_1_aushau.wav,,TRUE,FALSE,,,,,,,,,,,,,,f,0.4149,space,0.7206,,,,,,,,0,78,78,128,1,,
6385d65534631eaaa70c6f33,2023-06-16_09h45.22.733,phx_ver10,2022.2.5,Win32,61.36098668,,,,,,,,,,,,75,testing_3,j2x,a,j2x_a,j2x_1_aja.wav,j2x_8_axa.wav,,FALSE,FALSE,,,,,,,,,,,,,,j,0.1506,space,0.4408,,,,,,,,0,79,79,74,1,,
6385d65534631eaaa70c6f33,2023-06-16_09h45.22.733,phx_ver10,2022.2.5,Win32,61.36098668,,,,,,,,,,,,109,testing_3,sh2x,e,sh2x_e,sh2x_1_eshe.wav,sh2x_1_eshe.wav,,TRUE,FALSE,,,,,,,,,,,,,,f,0.0331,space,0.3669,,,,,,,,0,80,80,108,1,,
6385d65534631eaaa70c6f33,2023-06-16_09h45.22.733,phx_ver10,2022.2.5,Win32,61.36098668,,,,,,,,,,,,16,testing_2,zh2x,ai,zh2x_ai,zh2x_8_aixai.wav,zh2x_1_aizhai.wav,,FALSE,FALSE,,,,,,,,,,,,,,j,0.3674,space,0.6382,,,,,,,,0,81,81,15,1,,
6385d65534631eaaa70c6f33,2023-06-16_09h45.22.733,phx_ver10,2022.2.5,Win32,61.36098668,,,,,,,,,,,,89,testing_3,j2x,ei,j2x_ei,j2x_1_eijei.wav,j2x_1_eijei.wav,,TRUE,FALSE,,,,,,,,,,,,,,f,0.2576,space,0.5499,,,,,,,,0,82,82,88,1,,
6385d65534631eaaa70c6f33,2023-06-16_09h45.22.733,phx_ver10,2022.2.5,Win32,61.36098668,,,,,,,,,,,,53,testing_3,zh2j,ai,zh2j_ai,zh2j_1_aizhai.wav,zh2j_1_aizhai.wav,,TRUE,FALSE,,,,,,,,,,,,,,f,0.1177,space,0.4339,,,,,,,,0,83,83,52,1,,
6385d65534631eaaa70c6f33,2023-06-16_09h45.22.733,phx_ver10,2022.2.5,Win32,61.36098668,,,,,,,,,,,,123,testing_3,sh2j,a,sh2j_a,sh2j_1_asha.wav,sh2j_8_aja.wav,,FALSE,FALSE,,,,,,,,,,,,,,j,0.0516,space,0.3737,,,,,,,,0,84,84,122,1,,
6385d65534631eaaa70c6f33,2023-06-16_09h45.22.733,phx_ver10,2022.2.5,Win32,61.36098668,,,,,,,,,,,,42,testing_3,zh2sh,ei,zh2sh_ei,zh2sh_8_eishei.wav,zh2sh_8_eishei.wav,,TRUE,FALSE,,,,,,,,,,,,,,f,1.1169,space,1.3861,,,,,,,,0,85,85,41,1,,
6385d65534631eaaa70c6f33,2023-06-16_09h45.22.733,phx_ver10,2022.2.5,Win32,61.36098668,,,,,,,,,,,,63,testing_3,zh2j,e,zh2j_e,zh2j_1_ezhe.wav,zh2j_8_eje.wav,,FALSE,FALSE,,,,,,,,,,,,,,j,0.6038,space,0.8904,,,,,,,,0,86,86,62,1,,
6385d65534631eaaa70c6f33,2023-06-16_09h45.22.733,phx_ver10,2022.2.5,Win32,61.36098668,,,,,,,,,,,,65,testing_3,zh2j,ei,zh2j_ei,zh2j_1_eizhei.wav,zh2j_1_eizhei.wav,,TRUE,FALSE,,,,,,,,,,,,,,f,0.2836,space,0.5833,,,,,,,,0,87,87,64,1,,
6385d65534631eaaa70c6f33,2023-06-16_09h45.22.733,phx_ver10,2022.2.5,Win32,61.36098668,,,,,,,,,,,,14,testing_2,zh2x,ai,zh2x_ai,zh2x_8_aixai.wav,zh2x_8_aixai.wav,,TRUE,FALSE,,,,,,,,,,,,,,f,0.3008,space,0.5007,,,,,,,,0,88,88,13,1,,
6385d65534631eaaa70c6f33,2023-06-16_09h45.22.733,phx_ver10,2022.2.5,Win32,61.36098668,,,,,,,,,,,,101,testing_3,sh2x,ai,sh2x_ai,sh2x_1_aishai.wav,sh2x_1_aishai.wav,,TRUE,FALSE,,,,,,,,,,,,,,f,0.3917,space,0.6408,,,,,,,,0,89,89,100,1,,
6385d65534631eaaa70c6f33,2023-06-16_09h45.22.733,phx_ver10,2022.2.5,Win32,61.36098668,,,,,,,,,,,,34,testing_3,zh2sh,au,zh2sh_au,zh2sh_8_aushau.wav,zh2sh_8_aushau.wav,,TRUE,FALSE,,,,,,,,,,,,,,f,0.281,space,0.9474,,,,,,,,0,90,90,33,1,,
6385d65534631eaaa70c6f33,2023-06-16_09h45.22.733,phx_ver10,2022.2.5,Win32,61.36098668,,,,,,,,,,,,1,testing_1,zh2x,a,zh2x_a,zh2x_1_azha.wav,zh2x_1_azha_copy.wav,,TRUE,TRUE,,,,,,,,,,,,,,f,0.3503,space,0.9849,,,,,,,,0,91,91,0,1,,
6385d65534631eaaa70c6f33,2023-06-16_09h45.22.733,phx_ver10,2022.2.5,Win32,61.36098668,,,,,,,,,,,,36,testing_3,zh2sh,au,zh2sh_au,zh2sh_8_aushau.wav,zh2sh_1_auzhau.wav,,FALSE,FALSE,,,,,,,,,,,,,,j,0.5898,space,1.0075,,,,,,,,0,92,92,35,1,,
6385d65534631eaaa70c6f33,2023-06-16_09h45.22.733,phx_ver10,2022.2.5,Win32,61.36098668,,,,,,,,,,,,50,testing_3,zh2j,a,zh2j_a,zh2j_8_aja.wav,zh2j_8_aja.wav,,TRUE,FALSE,,,,,,,,,,,,,,f,0.0673,space,0.3667,,,,,,,,0,93,93,49,1,,
6385d65534631eaaa70c6f33,2023-06-16_09h45.22.733,phx_ver10,2022.2.5,Win32,61.36098668,,,,,,,,,,,,86,testing_3,j2x,e,j2x_e,j2x_8_exe.wav,j2x_8_exe.wav,,TRUE,FALSE,,,,,,,,,,,,,,f,0.1368,space,0.4407,,,,,,,,0,94,94,85,1,,
6385d65534631eaaa70c6f33,2023-06-16_09h45.22.733,phx_ver10,2022.2.5,Win32,61.36098668,,,,,,,,,,,,71,testing_3,zh2j,i,zh2j_i,zh2j_1_izhi.wav,zh2j_8_iji.wav,,FALSE,FALSE,,,,,,,,,,,,,,j,0.6669,space,0.9696,,,,,,,,0,95,95,70,1,,
6385d65534631eaaa70c6f33,2023-06-16_09h45.22.733,phx_ver10,2022.2.5,Win32,61.36098668,,,,,,,,,,,,116,testing_3,sh2x,ei,sh2x_ei,sh2x_8_eixei.wav,sh2x_1_eishei.wav,,FALSE,FALSE,,,,,,,,,,,,,,j,0.2349,space,0.5229,,,,,,,,0,96,96,115,1,,
6385d65534631eaaa70c6f33,2023-06-16_09h45.22.733,phx_ver10,2022.2.5,Win32,61.36098668,,,,,,,,,,,,102,testing_3,sh2x,ai,sh2x_ai,sh2x_8_aixai.wav,sh2x_8_aixai.wav,,TRUE,FALSE,,,,,,,,,,,,,,f,0.0367,space,0.3533,,,,,,,,0,97,97,101,1,,
6385d65534631eaaa70c6f33,2023-06-16_09h45.22.733,phx_ver10,2022.2.5,Win32,61.36098668,,,,,,,,,,,,83,testing_3,j2x,au,j2x_au,j2x_1_aujau.wav,j2x_8_auxau.wav,,FALSE,FALSE,,,,,,,,,,,,,,j,0.3172,space,0.5676,,,,,,,,0,98,98,82,1,,
6385d65534631eaaa70c6f33,2023-06-16_09h45.22.733,phx_ver10,2022.2.5,Win32,61.36098668,,,,,,,,,,,,52,testing_3,zh2j,a,zh2j_a,zh2j_8_aja.wav,zh2j_1_azha.wav,,FALSE,FALSE,,,,,,,,,,,,,,j,1.9504,space,2.3822,,,,,,,,0,99,99,51,1,,
6385d65534631eaaa70c6f33,2023-06-16_09h45.22.733,phx_ver10,2022.2.5,Win32,61.36098668,,,,,,,,,,,,134,testing_3,sh2j,e,sh2j_e,sh2j_8_eje.wav,sh2j_8_eje.wav,,TRUE,FALSE,,,,,,,,,,,,,,f,0.2564,space,0.5479,,,,,,,,0,100,100,133,1,,
6385d65534631eaaa70c6f33,2023-06-16_09h45.22.733,phx_ver10,2022.2.5,Win32,61.36098668,,,,,,,,,,,,21,testing_2,zh2x,ei,zh2x_ei,zh2x_1_eizhei.wav,zh2x_1_eizhei.wav,,TRUE,FALSE,,,,,,,,,,,,,,f,0.0167,space,0.3879,,,,,,,,0,101,101,20,1,,
6385d65534631eaaa70c6f33,2023-06-16_09h45.22.733,phx_ver10,2022.2.5,Win32,61.36098668,,,,,,,,,,,,11,testing_1,zh2x,i,zh2x_i,zh2x_1_izhi.wav,zh2x_8_ixi.wav,,FALSE,TRUE,,,,,,,,,,,,,,j,0.2176,space,0.4173,,,,,,,,0,102,102,10,1,,
6385d65534631eaaa70c6f33,2023-06-16_09h45.22.733,phx_ver10,2022.2.5,Win32,61.36098668,,,,,,,,,,,,114,testing_3,sh2x,ei,sh2x_ei,sh2x_8_eixei.wav,sh2x_8_eixei.wav,,TRUE,FALSE,,,,,,,,,,,,,,f,0.1864,space,0.4339,,,,,,,,0,103,103,113,1,,
6385d65534631eaaa70c6f33,2023-06-16_09h45.22.733,phx_ver10,2022.2.5,Win32,61.36098668,,,,,,,,,,,,72,testing_3,zh2j,i,zh2j_i,zh2j_8_iji.wav,zh2j_1_izhi.wav,,FALSE,FALSE,,,,,,,,,,,,,,j,0.0237,space,0.3329,,,,,,,,0,104,104,71,1,,
6385d65534631eaaa70c6f33,2023-06-16_09h45.22.733,phx_ver10,2022.2.5,Win32,61.36098668,,,,,,,,,,,,76,testing_3,j2x,a,j2x_a,j2x_8_axa.wav,j2x_1_aja.wav,,FALSE,FALSE,,,,,,,,,,,,,,j,1.0863,space,1.3866,,,,,,,,0,105,105,75,1,,
6385d65534631eaaa70c6f33,2023-06-16_09h45.22.733,phx_ver10,2022.2.5,Win32,61.36098668,,,,,,,,,,,,19,testing_2,zh2x,au,zh2x_au,zh2x_1_auzhau.wav,zh2x_8_auxau.wav,,FALSE,FALSE,,,,,,,,,,,,,,j,0.2901,space,0.5201,,,,,,,,0,106,106,18,1,,
6385d65534631eaaa70c6f33,2023-06-16_09h45.22.733,phx_ver10,2022.2.5,Win32,61.36098668,,,,,,,,,,,,24,testing_2,zh2x,ei,zh2x_ei,zh2x_8_eixei.wav,zh2x_1_eizhei.wav,,FALSE,FALSE,,,,,,,,,,,,,,j,0.2717,space,0.5375,,,,,,,,0,107,107,23,1,,
6385d65534631eaaa70c6f33,2023-06-16_09h45.22.733,phx_ver10,2022.2.5,Win32,61.36098668,,,,,,,,,,,,136,testing_3,sh2j,e,sh2j_e,sh2j_8_eje.wav,sh2j_1_eshe.wav,,FALSE,FALSE,,,,,,,,,,,,,,j,0.1103,space,0.3429,,,,,,,,0,108,108,135,1,,
6385d65534631eaaa70c6f33,2023-06-16_09h45.22.733,phx_ver10,2022.2.5,Win32,61.36098668,,,,,,,,,,,,39,testing_3,zh2sh,e,zh2sh_e,zh2sh_1_ezhe.wav,zh2sh_8_eshe.wav,,FALSE,FALSE,,,,,,,,,,,,,,j,0.3837,space,0.6171,,,,,,,,0,109,109,38,1,,
6385d65534631eaaa70c6f33,2023-06-16_09h45.22.733,phx_ver10,2022.2.5,Win32,61.36098668,,,,,,,,,,,,127,testing_3,sh2j,ai,sh2j_ai,sh2j_1_aishai.wav,sh2j_8_aijai.wav,,FALSE,FALSE,,,,,,,,,,,,,,j,0.3832,space,0.6657,,,,,,,,0,110,110,126,1,,
6385d65534631eaaa70c6f33,2023-06-16_09h45.22.733,phx_ver10,2022.2.5,Win32,61.36098668,,,,,,,,,,,,73,testing_3,j2x,a,j2x_a,j2x_1_aja.wav,j2x_1_aja.wav,,TRUE,FALSE,,,,,,,,,,,,,,f,0.404,space,0.7671,,,,,,,,0,111,111,72,1,,
6385d65534631eaaa70c6f33,2023-06-16_09h45.22.733,phx_ver10,2022.2.5,Win32,61.36098668,,,,,,,,,,,,79,testing_3,j2x,ai,j2x_ai,j2x_1_aijai.wav,j2x_8_aixai.wav,,FALSE,FALSE,,,,,,,,,,,,,,j,0.3481,space,0.6009,,,,,,,,0,112,112,78,1,,
6385d65534631eaaa70c6f33,2023-06-16_09h45.22.733,phx_ver10,2022.2.5,Win32,61.36098668,,,,,,,,,,,,82,testing_3,j2x,au,j2x_au,j2x_8_auxau.wav,j2x_8_auxau.wav,,TRUE,FALSE,,,,,,,,,,,,,,j,0.3505,space,1.0177,,,,,,,,0,113,113,81,1,,
6385d65534631eaaa70c6f33,2023-06-16_09h45.22.733,phx_ver10,2022.2.5,Win32,61.36098668,,,,,,,,,,,,9,testing_1,zh2x,i,zh2x_i,zh2x_1_izhi.wav,zh2x_1_izhi_copy.wav,,TRUE,TRUE,,,,,,,,,,,,,,f,0.4008,space,0.6744,,,,,,,,0,114,114,8,1,,
6385d65534631eaaa70c6f33,2023-06-16_09h45.22.733,phx_ver10,2022.2.5,Win32,61.36098668,,,,,,,,,,,,97,testing_3,sh2x,a,sh2x_a,sh2x_1_asha.wav,sh2x_1_asha.wav,,TRUE,FALSE,,,,,,,,,,,,,,f,0.3198,space,0.5731,,,,,,,,0,115,115,96,1,,
6385d65534631eaaa70c6f33,2023-06-16_09h45.22.733,phx_ver10,2022.2.5,Win32,61.36098668,,,,,,,,,,,,99,testing_3,sh2x,a,sh2x_a,sh2x_1_asha.wav,sh2x_8_axa.wav,,FALSE,FALSE,,,,,,,,,,,,,,j,0.2673,space,0.5143,,,,,,,,0,116,116,98,1,,
6385d65534631eaaa70c6f33,2023-06-16_09h45.22.733,phx_ver10,2022.2.5,Win32,61.36098668,,,,,,,,,,,,119,testing_3,sh2x,i,sh2x_i,sh2x_1_ishi.wav,sh2x_8_ixi.wav,,FALSE,FALSE,,,,,,,,,,,,,,j,0.3507,space,0.6511,,,,,,,,0,117,117,118,1,,
6385d65534631eaaa70c6f33,2023-06-16_09h45.22.733,phx_ver10,2022.2.5,Win32,61.36098668,,,,,,,,,,,,20,testing_2,zh2x,au,zh2x_au,zh2x_8_auxau.wav,zh2x_1_auzhau.wav,,FALSE,FALSE,,,,,,,,,,,,,,j,0.2082,space,0.5173,,,,,,,,0,118,118,19,1,,
6385d65534631eaaa70c6f33,2023-06-16_09h45.22.733,phx_ver10,2022.2.5,Win32,61.36098668,,,,,,,,,,,,110,testing_3,sh2x,e,sh2x_e,sh2x_8_exe.wav,sh2x_8_exe.wav,,TRUE,FALSE,,,,,,,,,,,,,,f,0.4371,space,0.7502,,,,,,,,0,119,119,109,1,,
6385d65534631eaaa70c6f33,2023-06-16_09h45.22.733,phx_ver10,2022.2.5,Win32,61.36098668,,,,,,,,,,,,51,testing_3,zh2j,a,zh2j_a,zh2j_1_azha.wav,zh2j_8_aja.wav,,FALSE,FALSE,,,,,,,,,,,,,,j,0.9416,space,1.2169,,,,,,,,0,120,120,50,1,,
6385d65534631eaaa70c6f33,2023-06-16_09h45.22.733,phx_ver10,2022.2.5,Win32,61.36098668,,,,,,,,,,,,92,testing_3,j2x,ei,j2x_ei,j2x_8_eixei.wav,j2x_1_eijei.wav,,FALSE,FALSE,,,,,,,,,,,,,,j,0.3174,space,0.6338,,,,,,,,0,121,121,91,1,,
6385d65534631eaaa70c6f33,2023-06-16_09h45.22.733,phx_ver10,2022.2.5,Win32,61.36098668,,,,,,,,,,,,94,testing_3,j2x,i,j2x_i,j2x_8_ixi.wav,j2x_8_ixi.wav,,TRUE,FALSE,,,,,,,,,,,,,,f,0.6171,space,0.9054,,,,,,,,0,122,122,93,1,,
6385d65534631eaaa70c6f33,2023-06-16_09h45.22.733,phx_ver10,2022.2.5,Win32,61.36098668,,,,,,,,,,,,133,testing_3,sh2j,e,sh2j_e,sh2j_1_eshe.wav,sh2j_1_eshe.wav,,TRUE,FALSE,,,,,,,,,,,,,,f,0.2672,space,0.5506,,,,,,,,0,123,123,132,1,,
6385d65534631eaaa70c6f33,2023-06-16_09h45.22.733,phx_ver10,2022.2.5,Win32,61.36098668,,,,,,,,,,,,3,testing_1,zh2x,a,zh2x_a,zh2x_1_azha.wav,zh2x_8_axa.wav,,FALSE,TRUE,,,,,,,,,,,,,,j,0.6008,space,0.6671,,,,,,,,0,124,124,2,1,,
6385d65534631eaaa70c6f33,2023-06-16_09h45.22.733,phx_ver10,2022.2.5,Win32,61.36098668,,,,,,,,,,,,30,testing_3,zh2sh,ai,zh2sh_ai,zh2sh_8_aishai.wav,zh2sh_8_aishai.wav,,TRUE,FALSE,,,,,,,,,,,,,,f,0.4335,space,0.7002,,,,,,,,0,125,125,29,1,,
6385d65534631eaaa70c6f33,2023-06-16_09h45.22.733,phx_ver10,2022.2.5,Win32,61.36098668,,,,,,,,,,,,4,testing_1,zh2x,a,zh2x_a,zh2x_8_axa.wav,zh2x_1_azha.wav,,FALSE,TRUE,,,,,,,,,,,,,,j,0.0672,space,0.3338,,,,,,,,0,126,126,3,1,,
6385d65534631eaaa70c6f33,2023-06-16_09h45.22.733,phx_ver10,2022.2.5,Win32,61.36098668,,,,,,,,,,,,104,testing_3,sh2x,ai,sh2x_ai,sh2x_8_aixai.wav,sh2x_1_aishai.wav,,FALSE,FALSE,,,,,,,,,,,,,,j,0.6552,space,0.9166,,,,,,,,0,127,127,103,1,,
6385d65534631eaaa70c6f33,2023-06-16_09h45.22.733,phx_ver10,2022.2.5,Win32,61.36098668,,,,,,,,,,,,115,testing_3,sh2x,ei,sh2x_ei,sh2x_1_eishei.wav,sh2x_8_eixei.wav,,FALSE,FALSE,,,,,,,,,,,,,,j,0.2041,space,0.4484,,,,,,,,0,128,128,114,1,,
6385d65534631eaaa70c6f33,2023-06-16_09h45.22.733,phx_ver10,2022.2.5,Win32,61.36098668,,,,,,,,,,,,48,testing_3,zh2sh,i,zh2sh_i,zh2sh_8_ishi.wav,zh2sh_1_izhi.wav,,FALSE,FALSE,,,,,,,,,,,,,,j,1.0812,space,2.8714,,,,,,,,0,129,129,47,1,,
6385d65534631eaaa70c6f33,2023-06-16_09h45.22.733,phx_ver10,2022.2.5,Win32,61.36098668,,,,,,,,,,,,38,testing_3,zh2sh,e,zh2sh_e,zh2sh_8_eshe.wav,zh2sh_8_eshe.wav,,TRUE,FALSE,,,,,,,,,,,,,,f,0.0176,space,0.3352,,,,,,,,0,130,130,37,1,,
6385d65534631eaaa70c6f33,2023-06-16_09h45.22.733,phx_ver10,2022.2.5,Win32,61.36098668,,,,,,,,,,,,113,testing_3,sh2x,ei,sh2x_ei,sh2x_1_eishei.wav,sh2x_1_eishei.wav,,TRUE,FALSE,,,,,,,,,,,,,,f,0.4338,space,0.7006,,,,,,,,0,131,131,112,1,,
6385d65534631eaaa70c6f33,2023-06-16_09h45.22.733,phx_ver10,2022.2.5,Win32,61.36098668,,,,,,,,,,,,80,testing_3,j2x,ai,j2x_ai,j2x_8_aixai.wav,j2x_1_aijai.wav,,FALSE,FALSE,,,,,,,,,,,,,,j,0.1172,space,0.3414,,,,,,,,0,132,132,79,1,,
6385d65534631eaaa70c6f33,2023-06-16_09h45.22.733,phx_ver10,2022.2.5,Win32,61.36098668,,,,,,,,,,,,67,testing_3,zh2j,ei,zh2j_ei,zh2j_1_eizhei.wav,zh2j_8_eijei.wav,,FALSE,FALSE,,,,,,,,,,,,,,f,0.2992,space,0.517,,,,,,,,0,133,133,66,1,,
6385d65534631eaaa70c6f33,2023-06-16_09h45.22.733,phx_ver10,2022.2.5,Win32,61.36098668,,,,,,,,,,,,81,testing_3,j2x,au,j2x_au,j2x_1_aujau.wav,j2x_1_aujau.wav,,TRUE,FALSE,,,,,,,,,,,,,,j,0.101,space,0.3341,,,,,,,,0,134,134,80,1,,
6385d65534631eaaa70c6f33,2023-06-16_09h45.22.733,phx_ver10,2022.2.5,Win32,61.36098668,,,,,,,,,,,,12,testing_1,zh2x,i,zh2x_i,zh2x_8_ixi.wav,zh2x_1_izhi.wav,,FALSE,TRUE,,,,,,,,,,,,,,j,0.1171,space,0.3394,,,,,,,,0,135,135,11,1,,
6385d65534631eaaa70c6f33,2023-06-16_09h45.22.733,phx_ver10,2022.2.5,Win32,61.36098668,,,,,,,,,,,,43,testing_3,zh2sh,ei,zh2sh_ei,zh2sh_1_eizhei.wav,zh2sh_8_eishei.wav,,FALSE,FALSE,,,,,,,,,,,,,,j,1.1665,space,1.7312,,,,,,,,0,136,136,42,1,,
6385d65534631eaaa70c6f33,2023-06-16_09h45.22.733,phx_ver10,2022.2.5,Win32,61.36098668,,,,,,,,,,,,85,testing_3,j2x,e,j2x_e,j2x_1_eje.wav,j2x_1_eje.wav,,TRUE,FALSE,,,,,,,,,,,,,,f,0.3011,space,0.5008,,,,,,,,0,137,137,84,1,,
6385d65534631eaaa70c6f33,2023-06-16_09h45.22.733,phx_ver10,2022.2.5,Win32,61.36098668,,,,,,,,,,,,137,testing_3,sh2j,ei,sh2j_ei,sh2j_1_eishei.wav,sh2j_1_eishei.wav,,TRUE,FALSE,,,,,,,,,,,,,,f,0.4177,space,0.8364,,,,,,,,0,138,138,136,1,,
6385d65534631eaaa70c6f33,2023-06-16_09h45.22.733,phx_ver10,2022.2.5,Win32,61.36098668,,,,,,,,,,,,135,testing_3,sh2j,e,sh2j_e,sh2j_1_eshe.wav,sh2j_8_eje.wav,,FALSE,FALSE,,,,,,,,,,,,,,j,0.2221,space,0.4477,,,,,,,,0,139,139,134,1,,
6385d65534631eaaa70c6f33,2023-06-16_09h45.22.733,phx_ver10,2022.2.5,Win32,61.36098668,,,,,,,,,,,,64,testing_3,zh2j,e,zh2j_e,zh2j_8_eje.wav,zh2j_1_ezhe.wav,,FALSE,FALSE,,,,,,,,,,,,,,j,0.6007,space,0.8675,,,,,,,,0,140,140,63,1,,
6385d65534631eaaa70c6f33,2023-06-16_09h45.22.733,phx_ver10,2022.2.5,Win32,61.36098668,,,,,,,,,,,,5,testing_1,zh2x,e,zh2x_e,zh2x_1_ezhe.wav,zh2x_1_ezhe_copy.wav,,TRUE,TRUE,,,,,,,,,,,,,,f,0.1003,space,0.3667,,,,,,,,0,141,141,4,1,,
6385d65534631eaaa70c6f33,2023-06-16_09h45.22.733,phx_ver10,2022.2.5,Win32,61.36098668,,,,,,,,,,,,87,testing_3,j2x,e,j2x_e,j2x_1_eje.wav,j2x_8_exe.wav,,FALSE,FALSE,,,,,,,,,,,,,,j,0.4176,space,0.6695,,,,,,,,0,142,142,86,1,,
6385d65534631eaaa70c6f33,2023-06-16_09h45.22.733,phx_ver10,2022.2.5,Win32,61.36098668,,,,,,,,,,,,29,testing_3,zh2sh,ai,zh2sh_ai,zh2sh_1_aizhai.wav,zh2sh_1_aizhai.wav,,TRUE,FALSE,,,,,,,,,,,,,,f,0.4838,space,1.3008,,,,,,,,0,143,143,28,1,,
6385d65534631eaaa70c6f33,2023-06-16_09h45.22.733,phx_ver10,2022.2.5,Win32,61.36098668,,,,,,,,,,,,,,,,,,,,,,,,,,,,,,,,,,,,,,,,,,,,,,,,,,,space,2.382
