participant,date,expName,psychopyVersion,OS,frameRate,space_1.keys,space_1.rt,space_2.keys,space_2.rt,space_train.keys,space_train.rt,training.thisRepN,training.thisTrialN,training.thisN,training.thisIndex,training.ran,token_id,task,continuum,vowel,series,sound_1,sound_2,img,same,trained,FJ_attn.keys,FJ_attn.rt,space_attn.keys,space_attn.rt,if_attn_test.thisRepN,if_attn_test.thisTrialN,if_attn_test.thisN,if_attn_test.thisIndex,if_attn_test.ran,space_trans_1.keys,space_trans_1.rt,space_trans_11.keys,space_trans_11.rt,FJ_test.keys,FJ_test.rt,space_test.keys,space_test.rt,testing_pre.thisRepN,testing_pre.thisTrialN,testing_pre.thisN,testing_pre.thisIndex,testing_pre.ran,space_trans_2.keys,space_trans_2.rt,testing_all.thisRepN,testing_all.thisTrialN,testing_all.thisN,testing_all.thisIndex,testing_all.ran,space_ending.keys,space_ending.rt
6393da4dd62a68bec4f4661c,2023-06-16_19h17.09.537,phx_ver10,2022.2.5,Win32,60.0240096,,,,,,,,,,,,,,,,,,,,,,,,,,,,,,,,,,,,,,,,,,,,,,,,,,,,
6393da4dd62a68bec4f4661c,2023-06-16_19h17.09.537,phx_ver10,2022.2.5,Win32,60.0240096,space,10.052,,,,,,,,,,,,,,,,,,,,,,,,,,,,,,,,,,,,,,,,,,,,,,,,,,
6393da4dd62a68bec4f4661c,2023-06-16_19h17.09.537,phx_ver10,2022.2.5,Win32,60.0240096,,,space,2.302,,,,,,,,,,,,,,,,,,,,,,,,,,,,,,,,,,,,,,,,,,,,,,,,
6393da4dd62a68bec4f4661c,2023-06-16_19h17.09.537,phx_ver10,2022.2.5,Win32,60.0240096,,,,,space,28.67,0,0,0,17,1,18,training,zh2x,e,zh2x_e,zh2x_2_ezhe.wav,,ezhe.jpg,,,,,,,,,,,,,,,,,,,,,,,,,,,,,,,,,
6393da4dd62a68bec4f4661c,2023-06-16_19h17.09.537,phx_ver10,2022.2.5,Win32,60.0240096,,,,,space,2.74,0,1,1,47,1,48,training,zh2x,i,zh2x_i,zh2x_8_ixi.wav,,ixi.jpg,,,,,,,,,,,,,,,,,,,,,,,,,,,,,,,,,
6393da4dd62a68bec4f4661c,2023-06-16_19h17.09.537,phx_ver10,2022.2.5,Win32,60.0240096,,,,,space,1.191,0,2,2,45,1,46,training,zh2x,i,zh2x_i,zh2x_7_ixi.wav,,ixi.jpg,,,,,,,,,,,,,,,,,,,,,,,,,,,,,,,,,
6393da4dd62a68bec4f4661c,2023-06-16_19h17.09.537,phx_ver10,2022.2.5,Win32,60.0240096,,,,,space,3.043,0,3,3,29,1,30,training,zh2x,e,zh2x_e,zh2x_7_exe.wav,,exe.jpg,,,,,,,,,,,,,,,,,,,,,,,,,,,,,,,,,
6393da4dd62a68bec4f4661c,2023-06-16_19h17.09.537,phx_ver10,2022.2.5,Win32,60.0240096,,,,,space,1.735,0,4,4,12,1,13,training,zh2x,a,zh2x_a,zh2x_7_axa.wav,,axa.jpg,,,,,,,,,,,,,,,,,,,,,,,,,,,,,,,,,
6393da4dd62a68bec4f4661c,2023-06-16_19h17.09.537,phx_ver10,2022.2.5,Win32,60.0240096,,,,,space,0.89,0,5,5,14,1,15,training,zh2x,a,zh2x_a,zh2x_7_axa.wav,,axa.jpg,,,,,,,,,,,,,,,,,,,,,,,,,,,,,,,,,
6393da4dd62a68bec4f4661c,2023-06-16_19h17.09.537,phx_ver10,2022.2.5,Win32,60.0240096,,,,,,,,,,,,,attn_test,,,,zh2x_8_exe.wav,zh2x_8_ixi.wav,exe.jpg,LEFT,,f,1.299,space,9.651,0,0,0,0,1,,,,,,,,,,,,,,,,,,,,,,
6393da4dd62a68bec4f4661c,2023-06-16_19h17.09.537,phx_ver10,2022.2.5,Win32,60.0240096,,,,,space,1.657,0,6,6,1,1,2,training,zh2x,a,zh2x_a,zh2x_2_azha.wav,,azha.jpg,,,,,,,,,,,,,,,,,,,,,,,,,,,,,,,,,
6393da4dd62a68bec4f4661c,2023-06-16_19h17.09.537,phx_ver10,2022.2.5,Win32,60.0240096,,,,,space,3.281,0,7,7,20,1,21,training,zh2x,e,zh2x_e,zh2x_2_ezhe.wav,,ezhe.jpg,,,,,,,,,,,,,,,,,,,,,,,,,,,,,,,,,
6393da4dd62a68bec4f4661c,2023-06-16_19h17.09.537,phx_ver10,2022.2.5,Win32,60.0240096,,,,,space,0.283,0,8,8,19,1,20,training,zh2x,e,zh2x_e,zh2x_2_ezhe.wav,,ezhe.jpg,,,,,,,,,,,,,,,,,,,,,,,,,,,,,,,,,
6393da4dd62a68bec4f4661c,2023-06-16_19h17.09.537,phx_ver10,2022.2.5,Win32,60.0240096,,,,,space,1.239,0,9,9,27,1,28,training,zh2x,e,zh2x_e,zh2x_7_exe.wav,,exe.jpg,,,,,,,,,,,,,,,,,,,,,,,,,,,,,,,,,
6393da4dd62a68bec4f4661c,2023-06-16_19h17.09.537,phx_ver10,2022.2.5,Win32,60.0240096,,,,,space,1.8,0,10,10,18,1,19,training,zh2x,e,zh2x_e,zh2x_2_ezhe.wav,,ezhe.jpg,,,,,,,,,,,,,,,,,,,,,,,,,,,,,,,,,
6393da4dd62a68bec4f4661c,2023-06-16_19h17.09.537,phx_ver10,2022.2.5,Win32,60.0240096,,,,,space,1.123,0,11,11,31,1,32,training,zh2x,e,zh2x_e,zh2x_8_exe.wav,,exe.jpg,,,,,,,,,,,,,,,,,,,,,,,,,,,,,,,,,
6393da4dd62a68bec4f4661c,2023-06-16_19h17.09.537,phx_ver10,2022.2.5,Win32,60.0240096,,,,,,,,,,,,,attn_test,,,,zh2x_1_azha.wav,zh2x_1_izhi.wav,azha.jpg,LEFT,,j,12.858,space,16.755,0,0,0,0,1,,,,,,,,,,,,,,,,,,,,,,
6393da4dd62a68bec4f4661c,2023-06-16_19h17.09.537,phx_ver10,2022.2.5,Win32,60.0240096,,,,,space,1.102,0,12,12,35,1,36,training,zh2x,i,zh2x_i,zh2x_2_izhi.wav,,izhi.jpg,,,,,,,,,,,,,,,,,,,,,,,,,,,,,,,,,
6393da4dd62a68bec4f4661c,2023-06-16_19h17.09.537,phx_ver10,2022.2.5,Win32,60.0240096,,,,,space,2.2,0,13,13,13,1,14,training,zh2x,a,zh2x_a,zh2x_7_axa.wav,,axa.jpg,,,,,,,,,,,,,,,,,,,,,,,,,,,,,,,,,
6393da4dd62a68bec4f4661c,2023-06-16_19h17.09.537,phx_ver10,2022.2.5,Win32,60.0240096,,,,,space,0.992,0,14,14,44,1,45,training,zh2x,i,zh2x_i,zh2x_7_ixi.wav,,ixi.jpg,,,,,,,,,,,,,,,,,,,,,,,,,,,,,,,,,
6393da4dd62a68bec4f4661c,2023-06-16_19h17.09.537,phx_ver10,2022.2.5,Win32,60.0240096,,,,,space,1.587,0,15,15,38,1,39,training,zh2x,i,zh2x_i,zh2x_3_izhi.wav,,izhi.jpg,,,,,,,,,,,,,,,,,,,,,,,,,,,,,,,,,
6393da4dd62a68bec4f4661c,2023-06-16_19h17.09.537,phx_ver10,2022.2.5,Win32,60.0240096,,,,,space,0.983,0,16,16,7,1,8,training,zh2x,a,zh2x_a,zh2x_4_azha.wav,,azha.jpg,,,,,,,,,,,,,,,,,,,,,,,,,,,,,,,,,
6393da4dd62a68bec4f4661c,2023-06-16_19h17.09.537,phx_ver10,2022.2.5,Win32,60.0240096,,,,,space,0.377,0,17,17,0,1,1,training,zh2x,a,zh2x_a,zh2x_1_azha.wav,,azha.jpg,,,,,,,,,,,,,,,,,,,,,,,,,,,,,,,,,
6393da4dd62a68bec4f4661c,2023-06-16_19h17.09.537,phx_ver10,2022.2.5,Win32,60.0240096,,,,,,,,,,,,,attn_test,,,,zh2x_8_ixi.wav,zh2x_1_izhi.wav,ixi.jpg,LEFT,,f,10.303,space,13.006,0,0,0,0,1,,,,,,,,,,,,,,,,,,,,,,
6393da4dd62a68bec4f4661c,2023-06-16_19h17.09.537,phx_ver10,2022.2.5,Win32,60.0240096,,,,,space,1.864,0,18,18,21,1,22,training,zh2x,e,zh2x_e,zh2x_3_ezhe.wav,,ezhe.jpg,,,,,,,,,,,,,,,,,,,,,,,,,,,,,,,,,
6393da4dd62a68bec4f4661c,2023-06-16_19h17.09.537,phx_ver10,2022.2.5,Win32,60.0240096,,,,,space,1.368,0,19,19,40,1,41,training,zh2x,i,zh2x_i,zh2x_5_ixi.wav,,ixi.jpg,,,,,,,,,,,,,,,,,,,,,,,,,,,,,,,,,
6393da4dd62a68bec4f4661c,2023-06-16_19h17.09.537,phx_ver10,2022.2.5,Win32,60.0240096,,,,,space,0.424,0,20,20,26,1,27,training,zh2x,e,zh2x_e,zh2x_6_exe.wav,,exe.jpg,,,,,,,,,,,,,,,,,,,,,,,,,,,,,,,,,
6393da4dd62a68bec4f4661c,2023-06-16_19h17.09.537,phx_ver10,2022.2.5,Win32,60.0240096,,,,,space,0.453,0,21,21,15,1,16,training,zh2x,a,zh2x_a,zh2x_8_axa.wav,,axa.jpg,,,,,,,,,,,,,,,,,,,,,,,,,,,,,,,,,
6393da4dd62a68bec4f4661c,2023-06-16_19h17.09.537,phx_ver10,2022.2.5,Win32,60.0240096,,,,,space,0.34,0,22,22,25,1,26,training,zh2x,e,zh2x_e,zh2x_6_exe.wav,,exe.jpg,,,,,,,,,,,,,,,,,,,,,,,,,,,,,,,,,
6393da4dd62a68bec4f4661c,2023-06-16_19h17.09.537,phx_ver10,2022.2.5,Win32,60.0240096,,,,,space,0.05,0,23,23,3,1,4,training,zh2x,a,zh2x_a,zh2x_2_azha.wav,,azha.jpg,,,,,,,,,,,,,,,,,,,,,,,,,,,,,,,,,
6393da4dd62a68bec4f4661c,2023-06-16_19h17.09.537,phx_ver10,2022.2.5,Win32,60.0240096,,,,,,,,,,,,,attn_test,,,,zh2x_8_axa.wav,zh2x_8_exe.wav,exe.jpg,RIGHT,,j,0.62,space,1.944,0,0,0,0,1,,,,,,,,,,,,,,,,,,,,,,
6393da4dd62a68bec4f4661c,2023-06-16_19h17.09.537,phx_ver10,2022.2.5,Win32,60.0240096,,,,,space,1.521,0,24,24,4,1,5,training,zh2x,a,zh2x_a,zh2x_2_azha.wav,,azha.jpg,,,,,,,,,,,,,,,,,,,,,,,,,,,,,,,,,
6393da4dd62a68bec4f4661c,2023-06-16_19h17.09.537,phx_ver10,2022.2.5,Win32,60.0240096,,,,,space,0.375,0,25,25,28,1,29,training,zh2x,e,zh2x_e,zh2x_7_exe.wav,,exe.jpg,,,,,,,,,,,,,,,,,,,,,,,,,,,,,,,,,
6393da4dd62a68bec4f4661c,2023-06-16_19h17.09.537,phx_ver10,2022.2.5,Win32,60.0240096,,,,,space,0.43,0,26,26,34,1,35,training,zh2x,i,zh2x_i,zh2x_2_izhi.wav,,izhi.jpg,,,,,,,,,,,,,,,,,,,,,,,,,,,,,,,,,
6393da4dd62a68bec4f4661c,2023-06-16_19h17.09.537,phx_ver10,2022.2.5,Win32,60.0240096,,,,,space,0.188,0,27,27,42,1,43,training,zh2x,i,zh2x_i,zh2x_6_ixi.wav,,ixi.jpg,,,,,,,,,,,,,,,,,,,,,,,,,,,,,,,,,
6393da4dd62a68bec4f4661c,2023-06-16_19h17.09.537,phx_ver10,2022.2.5,Win32,60.0240096,,,,,space,0.002,0,28,28,24,1,25,training,zh2x,e,zh2x_e,zh2x_5_exe.wav,,exe.jpg,,,,,,,,,,,,,,,,,,,,,,,,,,,,,,,,,
6393da4dd62a68bec4f4661c,2023-06-16_19h17.09.537,phx_ver10,2022.2.5,Win32,60.0240096,,,,,space,1.427,0,29,29,8,1,9,training,zh2x,a,zh2x_a,zh2x_5_axa.wav,,axa.jpg,,,,,,,,,,,,,,,,,,,,,,,,,,,,,,,,,
6393da4dd62a68bec4f4661c,2023-06-16_19h17.09.537,phx_ver10,2022.2.5,Win32,60.0240096,,,,,,,,,,,,,attn_test,,,,zh2x_1_ezhe.wav,zh2x_1_azha.wav,azha.jpg,RIGHT,,j,2.334,space,2.837,0,0,0,0,1,,,,,,,,,,,,,,,,,,,,,,
6393da4dd62a68bec4f4661c,2023-06-16_19h17.09.537,phx_ver10,2022.2.5,Win32,60.0240096,,,,,space,9.391,0,30,30,22,1,23,training,zh2x,e,zh2x_e,zh2x_3_ezhe.wav,,ezhe.jpg,,,,,,,,,,,,,,,,,,,,,,,,,,,,,,,,,
6393da4dd62a68bec4f4661c,2023-06-16_19h17.09.537,phx_ver10,2022.2.5,Win32,60.0240096,,,,,space,0.426,0,31,31,32,1,33,training,zh2x,i,zh2x_i,zh2x_1_izhi.wav,,izhi.jpg,,,,,,,,,,,,,,,,,,,,,,,,,,,,,,,,,
6393da4dd62a68bec4f4661c,2023-06-16_19h17.09.537,phx_ver10,2022.2.5,Win32,60.0240096,,,,,space,0.503,0,32,32,46,1,47,training,zh2x,i,zh2x_i,zh2x_7_ixi.wav,,ixi.jpg,,,,,,,,,,,,,,,,,,,,,,,,,,,,,,,,,
6393da4dd62a68bec4f4661c,2023-06-16_19h17.09.537,phx_ver10,2022.2.5,Win32,60.0240096,,,,,space,0.59,0,33,33,36,1,37,training,zh2x,i,zh2x_i,zh2x_2_izhi.wav,,izhi.jpg,,,,,,,,,,,,,,,,,,,,,,,,,,,,,,,,,
6393da4dd62a68bec4f4661c,2023-06-16_19h17.09.537,phx_ver10,2022.2.5,Win32,60.0240096,,,,,space,0.616,0,34,34,39,1,40,training,zh2x,i,zh2x_i,zh2x_4_izhi.wav,,izhi.jpg,,,,,,,,,,,,,,,,,,,,,,,,,,,,,,,,,
6393da4dd62a68bec4f4661c,2023-06-16_19h17.09.537,phx_ver10,2022.2.5,Win32,60.0240096,,,,,space,0.256,0,35,35,10,1,11,training,zh2x,a,zh2x_a,zh2x_6_axa.wav,,axa.jpg,,,,,,,,,,,,,,,,,,,,,,,,,,,,,,,,,
6393da4dd62a68bec4f4661c,2023-06-16_19h17.09.537,phx_ver10,2022.2.5,Win32,60.0240096,,,,,,,,,,,,,attn_test,,,,zh2x_8_ixi.wav,zh2x_1_izhi.wav,izhi.jpg,RIGHT,,j,3.873,space,5.328,0,0,0,0,1,,,,,,,,,,,,,,,,,,,,,,
6393da4dd62a68bec4f4661c,2023-06-16_19h17.09.537,phx_ver10,2022.2.5,Win32,60.0240096,,,,,space,1.542,0,36,36,9,1,10,training,zh2x,a,zh2x_a,zh2x_6_axa.wav,,axa.jpg,,,,,,,,,,,,,,,,,,,,,,,,,,,,,,,,,
6393da4dd62a68bec4f4661c,2023-06-16_19h17.09.537,phx_ver10,2022.2.5,Win32,60.0240096,,,,,space,0.168,0,37,37,23,1,24,training,zh2x,e,zh2x_e,zh2x_4_ezhe.wav,,ezhe.jpg,,,,,,,,,,,,,,,,,,,,,,,,,,,,,,,,,
6393da4dd62a68bec4f4661c,2023-06-16_19h17.09.537,phx_ver10,2022.2.5,Win32,60.0240096,,,,,space,0.223,0,38,38,41,1,42,training,zh2x,i,zh2x_i,zh2x_6_ixi.wav,,ixi.jpg,,,,,,,,,,,,,,,,,,,,,,,,,,,,,,,,,
6393da4dd62a68bec4f4661c,2023-06-16_19h17.09.537,phx_ver10,2022.2.5,Win32,60.0240096,,,,,space,0.722,0,39,39,5,1,6,training,zh2x,a,zh2x_a,zh2x_3_azha.wav,,azha.jpg,,,,,,,,,,,,,,,,,,,,,,,,,,,,,,,,,
6393da4dd62a68bec4f4661c,2023-06-16_19h17.09.537,phx_ver10,2022.2.5,Win32,60.0240096,,,,,space,0.158,0,40,40,11,1,12,training,zh2x,a,zh2x_a,zh2x_7_axa.wav,,axa.jpg,,,,,,,,,,,,,,,,,,,,,,,,,,,,,,,,,
6393da4dd62a68bec4f4661c,2023-06-16_19h17.09.537,phx_ver10,2022.2.5,Win32,60.0240096,,,,,space,0.037,0,41,41,6,1,7,training,zh2x,a,zh2x_a,zh2x_3_azha.wav,,azha.jpg,,,,,,,,,,,,,,,,,,,,,,,,,,,,,,,,,
6393da4dd62a68bec4f4661c,2023-06-16_19h17.09.537,phx_ver10,2022.2.5,Win32,60.0240096,,,,,,,,,,,,,attn_test,,,,zh2x_1_azha.wav,zh2x_8_ixi.wav,ixi.jpg,RIGHT,,j,8.876,space,9.926,0,0,0,0,1,,,,,,,,,,,,,,,,,,,,,,
6393da4dd62a68bec4f4661c,2023-06-16_19h17.09.537,phx_ver10,2022.2.5,Win32,60.0240096,,,,,space,3.244,0,42,42,37,1,38,training,zh2x,i,zh2x_i,zh2x_3_izhi.wav,,izhi.jpg,,,,,,,,,,,,,,,,,,,,,,,,,,,,,,,,,
6393da4dd62a68bec4f4661c,2023-06-16_19h17.09.537,phx_ver10,2022.2.5,Win32,60.0240096,,,,,space,0.084,0,43,43,2,1,3,training,zh2x,a,zh2x_a,zh2x_2_azha.wav,,azha.jpg,,,,,,,,,,,,,,,,,,,,,,,,,,,,,,,,,
6393da4dd62a68bec4f4661c,2023-06-16_19h17.09.537,phx_ver10,2022.2.5,Win32,60.0240096,,,,,space,0.704,0,44,44,33,1,34,training,zh2x,i,zh2x_i,zh2x_2_izhi.wav,,izhi.jpg,,,,,,,,,,,,,,,,,,,,,,,,,,,,,,,,,
6393da4dd62a68bec4f4661c,2023-06-16_19h17.09.537,phx_ver10,2022.2.5,Win32,60.0240096,,,,,space,0.507,0,45,45,30,1,31,training,zh2x,e,zh2x_e,zh2x_7_exe.wav,,exe.jpg,,,,,,,,,,,,,,,,,,,,,,,,,,,,,,,,,
6393da4dd62a68bec4f4661c,2023-06-16_19h17.09.537,phx_ver10,2022.2.5,Win32,60.0240096,,,,,space,0.001,0,46,46,16,1,17,training,zh2x,e,zh2x_e,zh2x_1_ezhe.wav,,ezhe.jpg,,,,,,,,,,,,,,,,,,,,,,,,,,,,,,,,,
6393da4dd62a68bec4f4661c,2023-06-16_19h17.09.537,phx_ver10,2022.2.5,Win32,60.0240096,,,,,space,0.306,0,47,47,43,1,44,training,zh2x,i,zh2x_i,zh2x_7_ixi.wav,,ixi.jpg,,,,,,,,,,,,,,,,,,,,,,,,,,,,,,,,,
6393da4dd62a68bec4f4661c,2023-06-16_19h17.09.537,phx_ver10,2022.2.5,Win32,60.0240096,,,,,,,,,,,,,attn_test,,,,zh2x_8_ixi.wav,zh2x_8_axa.wav,ixi.jpg,LEFT,,f,0.101,space,1.102,,,,,,,,,,,,,,,,,,,,,,,,,,,
6393da4dd62a68bec4f4661c,2023-06-16_19h17.09.537,phx_ver10,2022.2.5,Win32,60.0240096,,,,,,,,,,,,,,,,,,,,,,,,,,,,,,,space,1.366,,,,,,,,,,,,,,,,,,,,
6393da4dd62a68bec4f4661c,2023-06-16_19h17.09.537,phx_ver10,2022.2.5,Win32,60.0240096,,,,,,,,,,,,,,,,,,,,,,,,,,,,,,,,,space,4.554,,,,,,,,,,,,,,,,,,
6393da4dd62a68bec4f4661c,2023-06-16_19h17.09.537,phx_ver10,2022.2.5,Win32,60.0240096,,,,,,,,,,,,4,testing_pre,,,,eihei.wav,eihei.wav,,TRUE,,,,,,,,,,,,,,,f,2.14,space,3.221,0,0,0,3,1,,,,,,,,,
6393da4dd62a68bec4f4661c,2023-06-16_19h17.09.537,phx_ver10,2022.2.5,Win32,60.0240096,,,,,,,,,,,,2,testing_pre,,,,auhau.wav,aufau.wav,,FALSE,,,,,,,,,,,,,,,j,1.918,space,2.882,0,1,1,1,1,,,,,,,,,
6393da4dd62a68bec4f4661c,2023-06-16_19h17.09.537,phx_ver10,2022.2.5,Win32,60.0240096,,,,,,,,,,,,3,testing_pre,,,,afa.wav,aha.wav,,FALSE,,,,,,,,,,,,,,,f,0.441,space,1.234,0,2,2,2,1,,,,,,,,,
6393da4dd62a68bec4f4661c,2023-06-16_19h17.09.537,phx_ver10,2022.2.5,Win32,60.0240096,,,,,,,,,,,,1,testing_pre,,,,ifi.wav,ifi.wav,,TRUE,,,,,,,,,,,,,,,f,1.163,space,2.522,0,3,3,0,1,,,,,,,,,
6393da4dd62a68bec4f4661c,2023-06-16_19h17.09.537,phx_ver10,2022.2.5,Win32,60.0240096,,,,,,,,,,,,5,testing_pre,,,,ihi.wav,ifi.wav,,FALSE,,,,,,,,,,,,,,,j,1.818,space,2.585,0,4,4,4,1,,,,,,,,,
6393da4dd62a68bec4f4661c,2023-06-16_19h17.09.537,phx_ver10,2022.2.5,Win32,60.0240096,,,,,,,,,,,,,,,,,,,,,,,,,,,,,,,,,,,,,,,,,,,,space,1.221,,,,,,,
6393da4dd62a68bec4f4661c,2023-06-16_19h17.09.537,phx_ver10,2022.2.5,Win32,60.0240096,,,,,,,,,,,,43,testing_3,zh2sh,ei,zh2sh_ei,zh2sh_1_eizhei.wav,zh2sh_8_eishei.wav,,FALSE,FALSE,,,,,,,,,,,,,,f,1.679,space,2.511,,,,,,,,0,0,0,42,1,,
6393da4dd62a68bec4f4661c,2023-06-16_19h17.09.537,phx_ver10,2022.2.5,Win32,60.0240096,,,,,,,,,,,,20,testing_2,zh2x,au,zh2x_au,zh2x_8_auxau.wav,zh2x_1_auzhau.wav,,FALSE,FALSE,,,,,,,,,,,,,,f,1.34,space,2.339,,,,,,,,0,1,1,19,1,,
6393da4dd62a68bec4f4661c,2023-06-16_19h17.09.537,phx_ver10,2022.2.5,Win32,60.0240096,,,,,,,,,,,,89,testing_3,j2x,ei,j2x_ei,j2x_1_eijei.wav,j2x_1_eijei.wav,,TRUE,FALSE,,,,,,,,,,,,,,f,0.722,space,1.57,,,,,,,,0,2,2,88,1,,
6393da4dd62a68bec4f4661c,2023-06-16_19h17.09.537,phx_ver10,2022.2.5,Win32,60.0240096,,,,,,,,,,,,8,testing_1,zh2x,e,zh2x_e,zh2x_8_exe.wav,zh2x_1_ezhe.wav,,FALSE,TRUE,,,,,,,,,,,,,,f,0.584,space,1.434,,,,,,,,0,3,3,7,1,,
6393da4dd62a68bec4f4661c,2023-06-16_19h17.09.537,phx_ver10,2022.2.5,Win32,60.0240096,,,,,,,,,,,,29,testing_3,zh2sh,ai,zh2sh_ai,zh2sh_1_aizhai.wav,zh2sh_1_aizhai.wav,,TRUE,FALSE,,,,,,,,,,,,,,f,0.601,space,1.657,,,,,,,,0,4,4,28,1,,
6393da4dd62a68bec4f4661c,2023-06-16_19h17.09.537,phx_ver10,2022.2.5,Win32,60.0240096,,,,,,,,,,,,26,testing_3,zh2sh,a,zh2sh_a,zh2sh_8_asha.wav,zh2sh_8_asha.wav,,TRUE,FALSE,,,,,,,,,,,,,,f,0.671,space,1.622,,,,,,,,0,5,5,25,1,,
6393da4dd62a68bec4f4661c,2023-06-16_19h17.09.537,phx_ver10,2022.2.5,Win32,60.0240096,,,,,,,,,,,,129,testing_3,sh2j,au,sh2j_au,sh2j_1_aushau.wav,sh2j_1_aushau.wav,,TRUE,FALSE,,,,,,,,,,,,,,f,0.562,space,1.393,,,,,,,,0,6,6,128,1,,
6393da4dd62a68bec4f4661c,2023-06-16_19h17.09.537,phx_ver10,2022.2.5,Win32,60.0240096,,,,,,,,,,,,122,testing_3,sh2j,a,sh2j_a,sh2j_8_aja.wav,sh2j_8_aja.wav,,TRUE,FALSE,,,,,,,,,,,,,,f,0.901,space,1.816,,,,,,,,0,7,7,121,1,,
6393da4dd62a68bec4f4661c,2023-06-16_19h17.09.537,phx_ver10,2022.2.5,Win32,60.0240096,,,,,,,,,,,,21,testing_2,zh2x,ei,zh2x_ei,zh2x_1_eizhei.wav,zh2x_1_eizhei.wav,,TRUE,FALSE,,,,,,,,,,,,,,f,3.454,space,5.038,,,,,,,,0,8,8,20,1,,
6393da4dd62a68bec4f4661c,2023-06-16_19h17.09.537,phx_ver10,2022.2.5,Win32,60.0240096,,,,,,,,,,,,108,testing_3,sh2x,au,sh2x_au,sh2x_8_auxau.wav,sh2x_1_aushau.wav,,FALSE,FALSE,,,,,,,,,,,,,,f,3.32,space,4.304,,,,,,,,0,9,9,107,1,,
6393da4dd62a68bec4f4661c,2023-06-16_19h17.09.537,phx_ver10,2022.2.5,Win32,60.0240096,,,,,,,,,,,,116,testing_3,sh2x,ei,sh2x_ei,sh2x_8_eixei.wav,sh2x_1_eishei.wav,,FALSE,FALSE,,,,,,,,,,,,,,f,0.903,space,1.935,,,,,,,,0,10,10,115,1,,
6393da4dd62a68bec4f4661c,2023-06-16_19h17.09.537,phx_ver10,2022.2.5,Win32,60.0240096,,,,,,,,,,,,94,testing_3,j2x,i,j2x_i,j2x_8_ixi.wav,j2x_8_ixi.wav,,TRUE,FALSE,,,,,,,,,,,,,,f,0.969,space,1.708,,,,,,,,0,11,11,93,1,,
6393da4dd62a68bec4f4661c,2023-06-16_19h17.09.537,phx_ver10,2022.2.5,Win32,60.0240096,,,,,,,,,,,,111,testing_3,sh2x,e,sh2x_e,sh2x_1_eshe.wav,sh2x_8_exe.wav,,FALSE,FALSE,,,,,,,,,,,,,,j,1.369,space,2.42,,,,,,,,0,12,12,110,1,,
6393da4dd62a68bec4f4661c,2023-06-16_19h17.09.537,phx_ver10,2022.2.5,Win32,60.0240096,,,,,,,,,,,,57,testing_3,zh2j,au,zh2j_au,zh2j_1_auzhau.wav,zh2j_1_auzhau.wav,,TRUE,FALSE,,,,,,,,,,,,,,f,0.719,space,1.485,,,,,,,,0,13,13,56,1,,
6393da4dd62a68bec4f4661c,2023-06-16_19h17.09.537,phx_ver10,2022.2.5,Win32,60.0240096,,,,,,,,,,,,138,testing_3,sh2j,ei,sh2j_ei,sh2j_8_eijei.wav,sh2j_8_eijei.wav,,TRUE,FALSE,,,,,,,,,,,,,,f,0.788,space,1.828,,,,,,,,0,14,14,137,1,,
6393da4dd62a68bec4f4661c,2023-06-16_19h17.09.537,phx_ver10,2022.2.5,Win32,60.0240096,,,,,,,,,,,,127,testing_3,sh2j,ai,sh2j_ai,sh2j_1_aishai.wav,sh2j_8_aijai.wav,,FALSE,FALSE,,,,,,,,,,,,,,j,1.062,space,1.773,,,,,,,,0,15,15,126,1,,
6393da4dd62a68bec4f4661c,2023-06-16_19h17.09.537,phx_ver10,2022.2.5,Win32,60.0240096,,,,,,,,,,,,31,testing_3,zh2sh,ai,zh2sh_ai,zh2sh_1_aizhai.wav,zh2sh_8_aishai.wav,,FALSE,FALSE,,,,,,,,,,,,,,j,0.563,space,1.232,,,,,,,,0,16,16,30,1,,
6393da4dd62a68bec4f4661c,2023-06-16_19h17.09.537,phx_ver10,2022.2.5,Win32,60.0240096,,,,,,,,,,,,126,testing_3,sh2j,ai,sh2j_ai,sh2j_8_aijai.wav,sh2j_8_aijai.wav,,TRUE,FALSE,,,,,,,,,,,,,,f,0.644,space,2.036,,,,,,,,0,17,17,125,1,,
6393da4dd62a68bec4f4661c,2023-06-16_19h17.09.537,phx_ver10,2022.2.5,Win32,60.0240096,,,,,,,,,,,,80,testing_3,j2x,ai,j2x_ai,j2x_8_aixai.wav,j2x_1_aijai.wav,,FALSE,FALSE,,,,,,,,,,,,,,j,0.307,space,0.965,,,,,,,,0,18,18,79,1,,
6393da4dd62a68bec4f4661c,2023-06-16_19h17.09.537,phx_ver10,2022.2.5,Win32,60.0240096,,,,,,,,,,,,78,testing_3,j2x,ai,j2x_ai,j2x_8_aixai.wav,j2x_8_aixai.wav,,TRUE,FALSE,,,,,,,,,,,,,,f,0.513,space,1.167,,,,,,,,0,19,19,77,1,,
6393da4dd62a68bec4f4661c,2023-06-16_19h17.09.537,phx_ver10,2022.2.5,Win32,60.0240096,,,,,,,,,,,,10,testing_1,zh2x,i,zh2x_i,zh2x_8_ixi.wav,zh2x_8_ixi_copy.wav,,TRUE,TRUE,,,,,,,,,,,,,,f,0.524,space,1.171,,,,,,,,0,20,20,9,1,,
6393da4dd62a68bec4f4661c,2023-06-16_19h17.09.537,phx_ver10,2022.2.5,Win32,60.0240096,,,,,,,,,,,,119,testing_3,sh2x,i,sh2x_i,sh2x_1_ishi.wav,sh2x_8_ixi.wav,,FALSE,FALSE,,,,,,,,,,,,,,f,1.609,space,2.301,,,,,,,,0,21,21,118,1,,
6393da4dd62a68bec4f4661c,2023-06-16_19h17.09.537,phx_ver10,2022.2.5,Win32,60.0240096,,,,,,,,,,,,79,testing_3,j2x,ai,j2x_ai,j2x_1_aijai.wav,j2x_8_aixai.wav,,FALSE,FALSE,,,,,,,,,,,,,,j,0.501,space,1.309,,,,,,,,0,22,22,78,1,,
6393da4dd62a68bec4f4661c,2023-06-16_19h17.09.537,phx_ver10,2022.2.5,Win32,60.0240096,,,,,,,,,,,,117,testing_3,sh2x,i,sh2x_i,sh2x_1_ishi.wav,sh2x_1_ishi.wav,,TRUE,FALSE,,,,,,,,,,,,,,f,0.233,space,0.88,,,,,,,,0,23,23,116,1,,
6393da4dd62a68bec4f4661c,2023-06-16_19h17.09.537,phx_ver10,2022.2.5,Win32,60.0240096,,,,,,,,,,,,70,testing_3,zh2j,i,zh2j_i,zh2j_8_iji.wav,zh2j_8_iji.wav,,TRUE,FALSE,,,,,,,,,,,,,,f,0.434,space,1.19,,,,,,,,0,24,24,69,1,,
6393da4dd62a68bec4f4661c,2023-06-16_19h17.09.537,phx_ver10,2022.2.5,Win32,60.0240096,,,,,,,,,,,,91,testing_3,j2x,ei,j2x_ei,j2x_1_eijei.wav,j2x_8_eixei.wav,,FALSE,FALSE,,,,,,,,,,,,,,j,0.301,space,0.971,,,,,,,,0,25,25,90,1,,
6393da4dd62a68bec4f4661c,2023-06-16_19h17.09.537,phx_ver10,2022.2.5,Win32,60.0240096,,,,,,,,,,,,114,testing_3,sh2x,ei,sh2x_ei,sh2x_8_eixei.wav,sh2x_8_eixei.wav,,TRUE,FALSE,,,,,,,,,,,,,,f,5.869,space,7.446,,,,,,,,0,26,26,113,1,,
6393da4dd62a68bec4f4661c,2023-06-16_19h17.09.537,phx_ver10,2022.2.5,Win32,60.0240096,,,,,,,,,,,,83,testing_3,j2x,au,j2x_au,j2x_1_aujau.wav,j2x_8_auxau.wav,,FALSE,FALSE,,,,,,,,,,,,,,j,0.408,space,1.129,,,,,,,,0,27,27,82,1,,
6393da4dd62a68bec4f4661c,2023-06-16_19h17.09.537,phx_ver10,2022.2.5,Win32,60.0240096,,,,,,,,,,,,51,testing_3,zh2j,a,zh2j_a,zh2j_1_azha.wav,zh2j_8_aja.wav,,FALSE,FALSE,,,,,,,,,,,,,,f,0.501,space,1.15,,,,,,,,0,28,28,50,1,,
6393da4dd62a68bec4f4661c,2023-06-16_19h17.09.537,phx_ver10,2022.2.5,Win32,60.0240096,,,,,,,,,,,,124,testing_3,sh2j,a,sh2j_a,sh2j_8_aja.wav,sh2j_1_asha.wav,,FALSE,FALSE,,,,,,,,,,,,,,j,0.211,space,1.507,,,,,,,,0,29,29,123,1,,
6393da4dd62a68bec4f4661c,2023-06-16_19h17.09.537,phx_ver10,2022.2.5,Win32,60.0240096,,,,,,,,,,,,13,testing_2,zh2x,ai,zh2x_ai,zh2x_1_aizhai.wav,zh2x_1_aizhai.wav,,TRUE,FALSE,,,,,,,,,,,,,,j,5.978,space,8.205,,,,,,,,0,30,30,12,1,,
6393da4dd62a68bec4f4661c,2023-06-16_19h17.09.537,phx_ver10,2022.2.5,Win32,60.0240096,,,,,,,,,,,,130,testing_3,sh2j,au,sh2j_au,sh2j_8_aujau.wav,sh2j_8_aujau.wav,,TRUE,FALSE,,,,,,,,,,,,,,f,0.611,space,7.987,,,,,,,,0,31,31,129,1,,
6393da4dd62a68bec4f4661c,2023-06-16_19h17.09.537,phx_ver10,2022.2.5,Win32,60.0240096,,,,,,,,,,,,66,testing_3,zh2j,ei,zh2j_ei,zh2j_8_eijei.wav,zh2j_8_eijei.wav,,TRUE,FALSE,,,,,,,,,,,,,,f,0.477,space,1.221,,,,,,,,0,32,32,65,1,,
6393da4dd62a68bec4f4661c,2023-06-16_19h17.09.537,phx_ver10,2022.2.5,Win32,60.0240096,,,,,,,,,,,,131,testing_3,sh2j,au,sh2j_au,sh2j_1_aushau.wav,sh2j_8_aujau.wav,,FALSE,FALSE,,,,,,,,,,,,,,j,0.166,space,0.806,,,,,,,,0,33,33,130,1,,
6393da4dd62a68bec4f4661c,2023-06-16_19h17.09.537,phx_ver10,2022.2.5,Win32,60.0240096,,,,,,,,,,,,27,testing_3,zh2sh,a,zh2sh_a,zh2sh_1_azha.wav,zh2sh_8_asha.wav,,FALSE,FALSE,,,,,,,,,,,,,,j,1.041,space,1.738,,,,,,,,0,34,34,26,1,,
6393da4dd62a68bec4f4661c,2023-06-16_19h17.09.537,phx_ver10,2022.2.5,Win32,60.0240096,,,,,,,,,,,,55,testing_3,zh2j,ai,zh2j_ai,zh2j_1_aizhai.wav,zh2j_8_aijai.wav,,FALSE,FALSE,,,,,,,,,,,,,,f,0.327,space,1.049,,,,,,,,0,35,35,54,1,,
6393da4dd62a68bec4f4661c,2023-06-16_19h17.09.537,phx_ver10,2022.2.5,Win32,60.0240096,,,,,,,,,,,,58,testing_3,zh2j,au,zh2j_au,zh2j_8_aujau.wav,zh2j_8_aujau.wav,,TRUE,FALSE,,,,,,,,,,,,,,f,0.287,space,1.423,,,,,,,,0,36,36,57,1,,
6393da4dd62a68bec4f4661c,2023-06-16_19h17.09.537,phx_ver10,2022.2.5,Win32,60.0240096,,,,,,,,,,,,140,testing_3,sh2j,ei,sh2j_ei,sh2j_8_eijei.wav,sh2j_1_eishei.wav,,FALSE,FALSE,,,,,,,,,,,,,,j,0.25,space,0.922,,,,,,,,0,37,37,139,1,,
6393da4dd62a68bec4f4661c,2023-06-16_19h17.09.537,phx_ver10,2022.2.5,Win32,60.0240096,,,,,,,,,,,,40,testing_3,zh2sh,e,zh2sh_e,zh2sh_8_eshe.wav,zh2sh_1_ezhe.wav,,FALSE,FALSE,,,,,,,,,,,,,,j,0.617,space,1.377,,,,,,,,0,38,38,39,1,,
6393da4dd62a68bec4f4661c,2023-06-16_19h17.09.537,phx_ver10,2022.2.5,Win32,60.0240096,,,,,,,,,,,,97,testing_3,sh2x,a,sh2x_a,sh2x_1_asha.wav,sh2x_1_asha.wav,,TRUE,FALSE,,,,,,,,,,,,,,f,0.327,space,1.046,,,,,,,,0,39,39,96,1,,
6393da4dd62a68bec4f4661c,2023-06-16_19h17.09.537,phx_ver10,2022.2.5,Win32,60.0240096,,,,,,,,,,,,60,testing_3,zh2j,au,zh2j_au,zh2j_8_aujau.wav,zh2j_1_auzhau.wav,,FALSE,FALSE,,,,,,,,,,,,,,f,0.4,space,1.156,,,,,,,,0,40,40,59,1,,
6393da4dd62a68bec4f4661c,2023-06-16_19h17.09.537,phx_ver10,2022.2.5,Win32,60.0240096,,,,,,,,,,,,96,testing_3,j2x,i,j2x_i,j2x_8_ixi.wav,j2x_1_iji.wav,,FALSE,FALSE,,,,,,,,,,,,,,j,0.146,space,0.873,,,,,,,,0,41,41,95,1,,
6393da4dd62a68bec4f4661c,2023-06-16_19h17.09.537,phx_ver10,2022.2.5,Win32,60.0240096,,,,,,,,,,,,75,testing_3,j2x,a,j2x_a,j2x_1_aja.wav,j2x_8_axa.wav,,FALSE,FALSE,,,,,,,,,,,,,,j,0.625,space,8.986,,,,,,,,0,42,42,74,1,,
6393da4dd62a68bec4f4661c,2023-06-16_19h17.09.537,phx_ver10,2022.2.5,Win32,60.0240096,,,,,,,,,,,,52,testing_3,zh2j,a,zh2j_a,zh2j_8_aja.wav,zh2j_1_azha.wav,,FALSE,FALSE,,,,,,,,,,,,,,f,0.157,space,0.902,,,,,,,,0,43,43,51,1,,
6393da4dd62a68bec4f4661c,2023-06-16_19h17.09.537,phx_ver10,2022.2.5,Win32,60.0240096,,,,,,,,,,,,56,testing_3,zh2j,ai,zh2j_ai,zh2j_8_aijai.wav,zh2j_1_aizhai.wav,,FALSE,FALSE,,,,,,,,,,,,,,f,0.653,space,1.428,,,,,,,,0,44,44,55,1,,
6393da4dd62a68bec4f4661c,2023-06-16_19h17.09.537,phx_ver10,2022.2.5,Win32,60.0240096,,,,,,,,,,,,16,testing_2,zh2x,ai,zh2x_ai,zh2x_8_aixai.wav,zh2x_1_aizhai.wav,,FALSE,FALSE,,,,,,,,,,,,,,j,0.02,space,0.735,,,,,,,,0,45,45,15,1,,
6393da4dd62a68bec4f4661c,2023-06-16_19h17.09.537,phx_ver10,2022.2.5,Win32,60.0240096,,,,,,,,,,,,24,testing_2,zh2x,ei,zh2x_ei,zh2x_8_eixei.wav,zh2x_1_eizhei.wav,,FALSE,FALSE,,,,,,,,,,,,,,j,4.554,space,5.658,,,,,,,,0,46,46,23,1,,
6393da4dd62a68bec4f4661c,2023-06-16_19h17.09.537,phx_ver10,2022.2.5,Win32,60.0240096,,,,,,,,,,,,59,testing_3,zh2j,au,zh2j_au,zh2j_1_auzhau.wav,zh2j_8_aujau.wav,,FALSE,FALSE,,,,,,,,,,,,,,f,0.107,space,0.923,,,,,,,,0,47,47,58,1,,
6393da4dd62a68bec4f4661c,2023-06-16_19h17.09.537,phx_ver10,2022.2.5,Win32,60.0240096,,,,,,,,,,,,39,testing_3,zh2sh,e,zh2sh_e,zh2sh_1_ezhe.wav,zh2sh_8_eshe.wav,,FALSE,FALSE,,,,,,,,,,,,,,j,0.122,space,0.801,,,,,,,,0,48,48,38,1,,
6393da4dd62a68bec4f4661c,2023-06-16_19h17.09.537,phx_ver10,2022.2.5,Win32,60.0240096,,,,,,,,,,,,34,testing_3,zh2sh,au,zh2sh_au,zh2sh_8_aushau.wav,zh2sh_8_aushau.wav,,TRUE,FALSE,,,,,,,,,,,,,,f,0.069,space,0.875,,,,,,,,0,49,49,33,1,,
6393da4dd62a68bec4f4661c,2023-06-16_19h17.09.537,phx_ver10,2022.2.5,Win32,60.0240096,,,,,,,,,,,,73,testing_3,j2x,a,j2x_a,j2x_1_aja.wav,j2x_1_aja.wav,,TRUE,FALSE,,,,,,,,,,,,,,f,0.267,space,1.003,,,,,,,,0,50,50,72,1,,
6393da4dd62a68bec4f4661c,2023-06-16_19h17.09.537,phx_ver10,2022.2.5,Win32,60.0240096,,,,,,,,,,,,107,testing_3,sh2x,au,sh2x_au,sh2x_1_aushau.wav,sh2x_8_auxau.wav,,FALSE,FALSE,,,,,,,,,,,,,,f,5.385,space,7.567,,,,,,,,0,51,51,106,1,,
6393da4dd62a68bec4f4661c,2023-06-16_19h17.09.537,phx_ver10,2022.2.5,Win32,60.0240096,,,,,,,,,,,,61,testing_3,zh2j,e,zh2j_e,zh2j_1_ezhe.wav,zh2j_1_ezhe.wav,,TRUE,FALSE,,,,,,,,,,,,,,f,0.408,space,1.149,,,,,,,,0,52,52,60,1,,
6393da4dd62a68bec4f4661c,2023-06-16_19h17.09.537,phx_ver10,2022.2.5,Win32,60.0240096,,,,,,,,,,,,77,testing_3,j2x,ai,j2x_ai,j2x_1_aijai.wav,j2x_1_aijai.wav,,TRUE,FALSE,,,,,,,,,,,,,,f,0.419,space,1.134,,,,,,,,0,53,53,76,1,,
6393da4dd62a68bec4f4661c,2023-06-16_19h17.09.537,phx_ver10,2022.2.5,Win32,60.0240096,,,,,,,,,,,,33,testing_3,zh2sh,au,zh2sh_au,zh2sh_1_auzhau.wav,zh2sh_1_auzhau.wav,,TRUE,FALSE,,,,,,,,,,,,,,f,0.285,space,1.035,,,,,,,,0,54,54,32,1,,
6393da4dd62a68bec4f4661c,2023-06-16_19h17.09.537,phx_ver10,2022.2.5,Win32,60.0240096,,,,,,,,,,,,134,testing_3,sh2j,e,sh2j_e,sh2j_8_eje.wav,sh2j_8_eje.wav,,TRUE,FALSE,,,,,,,,,,,,,,f,0.419,space,1.19,,,,,,,,0,55,55,133,1,,
6393da4dd62a68bec4f4661c,2023-06-16_19h17.09.537,phx_ver10,2022.2.5,Win32,60.0240096,,,,,,,,,,,,139,testing_3,sh2j,ei,sh2j_ei,sh2j_1_eishei.wav,sh2j_8_eijei.wav,,FALSE,FALSE,,,,,,,,,,,,,,j,0.337,space,1.05,,,,,,,,0,56,56,138,1,,
6393da4dd62a68bec4f4661c,2023-06-16_19h17.09.537,phx_ver10,2022.2.5,Win32,60.0240096,,,,,,,,,,,,25,testing_3,zh2sh,a,zh2sh_a,zh2sh_1_azha.wav,zh2sh_1_azha.wav,,TRUE,FALSE,,,,,,,,,,,,,,f,0.386,space,1.193,,,,,,,,0,57,57,24,1,,
6393da4dd62a68bec4f4661c,2023-06-16_19h17.09.537,phx_ver10,2022.2.5,Win32,60.0240096,,,,,,,,,,,,118,testing_3,sh2x,i,sh2x_i,sh2x_8_ixi.wav,sh2x_8_ixi.wav,,TRUE,FALSE,,,,,,,,,,,,,,f,0.189,space,0.957,,,,,,,,0,58,58,117,1,,
6393da4dd62a68bec4f4661c,2023-06-16_19h17.09.537,phx_ver10,2022.2.5,Win32,60.0240096,,,,,,,,,,,,45,testing_3,zh2sh,i,zh2sh_i,zh2sh_1_izhi.wav,zh2sh_1_izhi.wav,,TRUE,FALSE,,,,,,,,,,,,,,f,0.216,space,1.024,,,,,,,,0,59,59,44,1,,
6393da4dd62a68bec4f4661c,2023-06-16_19h17.09.537,phx_ver10,2022.2.5,Win32,60.0240096,,,,,,,,,,,,38,testing_3,zh2sh,e,zh2sh_e,zh2sh_8_eshe.wav,zh2sh_8_eshe.wav,,TRUE,FALSE,,,,,,,,,,,,,,f,1.076,space,2.419,,,,,,,,0,60,60,37,1,,
6393da4dd62a68bec4f4661c,2023-06-16_19h17.09.537,phx_ver10,2022.2.5,Win32,60.0240096,,,,,,,,,,,,104,testing_3,sh2x,ai,sh2x_ai,sh2x_8_aixai.wav,sh2x_1_aishai.wav,,FALSE,FALSE,,,,,,,,,,,,,,f,0.205,space,0.94,,,,,,,,0,61,61,103,1,,
6393da4dd62a68bec4f4661c,2023-06-16_19h17.09.537,phx_ver10,2022.2.5,Win32,60.0240096,,,,,,,,,,,,63,testing_3,zh2j,e,zh2j_e,zh2j_1_ezhe.wav,zh2j_8_eje.wav,,FALSE,FALSE,,,,,,,,,,,,,,f,1.044,space,1.82,,,,,,,,0,62,62,62,1,,
6393da4dd62a68bec4f4661c,2023-06-16_19h17.09.537,phx_ver10,2022.2.5,Win32,60.0240096,,,,,,,,,,,,3,testing_1,zh2x,a,zh2x_a,zh2x_1_azha.wav,zh2x_8_axa.wav,,FALSE,TRUE,,,,,,,,,,,,,,j,2.34,space,3.017,,,,,,,,0,63,63,2,1,,
6393da4dd62a68bec4f4661c,2023-06-16_19h17.09.537,phx_ver10,2022.2.5,Win32,60.0240096,,,,,,,,,,,,17,testing_2,zh2x,au,zh2x_au,zh2x_1_auzhau.wav,zh2x_1_auzhau.wav,,TRUE,FALSE,,,,,,,,,,,,,,f,0.039,space,0.791,,,,,,,,0,64,64,16,1,,
6393da4dd62a68bec4f4661c,2023-06-16_19h17.09.537,phx_ver10,2022.2.5,Win32,60.0240096,,,,,,,,,,,,2,testing_1,zh2x,a,zh2x_a,zh2x_8_axa.wav,zh2x_8_axa_copy.wav,,TRUE,TRUE,,,,,,,,,,,,,,f,0.235,space,0.933,,,,,,,,0,65,65,1,1,,
6393da4dd62a68bec4f4661c,2023-06-16_19h17.09.537,phx_ver10,2022.2.5,Win32,60.0240096,,,,,,,,,,,,69,testing_3,zh2j,i,zh2j_i,zh2j_1_izhi.wav,zh2j_1_izhi.wav,,TRUE,FALSE,,,,,,,,,,,,,,f,0.113,space,0.835,,,,,,,,0,66,66,68,1,,
6393da4dd62a68bec4f4661c,2023-06-16_19h17.09.537,phx_ver10,2022.2.5,Win32,60.0240096,,,,,,,,,,,,30,testing_3,zh2sh,ai,zh2sh_ai,zh2sh_8_aishai.wav,zh2sh_8_aishai.wav,,TRUE,FALSE,,,,,,,,,,,,,,f,0.052,space,0.735,,,,,,,,0,67,67,29,1,,
6393da4dd62a68bec4f4661c,2023-06-16_19h17.09.537,phx_ver10,2022.2.5,Win32,60.0240096,,,,,,,,,,,,71,testing_3,zh2j,i,zh2j_i,zh2j_1_izhi.wav,zh2j_8_iji.wav,,FALSE,FALSE,,,,,,,,,,,,,,f,0.319,space,1.053,,,,,,,,0,68,68,70,1,,
6393da4dd62a68bec4f4661c,2023-06-16_19h17.09.537,phx_ver10,2022.2.5,Win32,60.0240096,,,,,,,,,,,,41,testing_3,zh2sh,ei,zh2sh_ei,zh2sh_1_eizhei.wav,zh2sh_1_eizhei.wav,,TRUE,FALSE,,,,,,,,,,,,,,f,0.036,space,0.751,,,,,,,,0,69,69,40,1,,
6393da4dd62a68bec4f4661c,2023-06-16_19h17.09.537,phx_ver10,2022.2.5,Win32,60.0240096,,,,,,,,,,,,110,testing_3,sh2x,e,sh2x_e,sh2x_8_exe.wav,sh2x_8_exe.wav,,TRUE,FALSE,,,,,,,,,,,,,,f,0.141,space,0.835,,,,,,,,0,70,70,109,1,,
6393da4dd62a68bec4f4661c,2023-06-16_19h17.09.537,phx_ver10,2022.2.5,Win32,60.0240096,,,,,,,,,,,,47,testing_3,zh2sh,i,zh2sh_i,zh2sh_1_izhi.wav,zh2sh_8_ishi.wav,,FALSE,FALSE,,,,,,,,,,,,,,j,0.031,space,0.727,,,,,,,,0,71,71,46,1,,
6393da4dd62a68bec4f4661c,2023-06-16_19h17.09.537,phx_ver10,2022.2.5,Win32,60.0240096,,,,,,,,,,,,37,testing_3,zh2sh,e,zh2sh_e,zh2sh_1_ezhe.wav,zh2sh_1_ezhe.wav,,TRUE,FALSE,,,,,,,,,,,,,,f,0.14,space,1.123,,,,,,,,0,72,72,36,1,,
6393da4dd62a68bec4f4661c,2023-06-16_19h17.09.537,phx_ver10,2022.2.5,Win32,60.0240096,,,,,,,,,,,,102,testing_3,sh2x,ai,sh2x_ai,sh2x_8_aixai.wav,sh2x_8_aixai.wav,,TRUE,FALSE,,,,,,,,,,,,,,f,0.101,space,0.785,,,,,,,,0,73,73,101,1,,
6393da4dd62a68bec4f4661c,2023-06-16_19h17.09.537,phx_ver10,2022.2.5,Win32,60.0240096,,,,,,,,,,,,62,testing_3,zh2j,e,zh2j_e,zh2j_8_eje.wav,zh2j_8_eje.wav,,TRUE,FALSE,,,,,,,,,,,,,,f,0.334,space,1.059,,,,,,,,0,74,74,61,1,,
6393da4dd62a68bec4f4661c,2023-06-16_19h17.09.537,phx_ver10,2022.2.5,Win32,60.0240096,,,,,,,,,,,,49,testing_3,zh2j,a,zh2j_a,zh2j_1_azha.wav,zh2j_1_azha.wav,,TRUE,FALSE,,,,,,,,,,,,,,f,0.185,space,0.933,,,,,,,,0,75,75,48,1,,
6393da4dd62a68bec4f4661c,2023-06-16_19h17.09.537,phx_ver10,2022.2.5,Win32,60.0240096,,,,,,,,,,,,11,testing_1,zh2x,i,zh2x_i,zh2x_1_izhi.wav,zh2x_8_ixi.wav,,FALSE,TRUE,,,,,,,,,,,,,,j,1.817,space,2.449,,,,,,,,0,76,76,10,1,,
6393da4dd62a68bec4f4661c,2023-06-16_19h17.09.537,phx_ver10,2022.2.5,Win32,60.0240096,,,,,,,,,,,,15,testing_2,zh2x,ai,zh2x_ai,zh2x_1_aizhai.wav,zh2x_8_aixai.wav,,FALSE,FALSE,,,,,,,,,,,,,,j,0.889,space,1.609,,,,,,,,0,77,77,14,1,,
6393da4dd62a68bec4f4661c,2023-06-16_19h17.09.537,phx_ver10,2022.2.5,Win32,60.0240096,,,,,,,,,,,,100,testing_3,sh2x,a,sh2x_a,sh2x_8_axa.wav,sh2x_1_asha.wav,,FALSE,FALSE,,,,,,,,,,,,,,f,0.276,space,0.939,,,,,,,,0,78,78,99,1,,
6393da4dd62a68bec4f4661c,2023-06-16_19h17.09.537,phx_ver10,2022.2.5,Win32,60.0240096,,,,,,,,,,,,72,testing_3,zh2j,i,zh2j_i,zh2j_8_iji.wav,zh2j_1_izhi.wav,,FALSE,FALSE,,,,,,,,,,,,,,f,0.135,space,0.842,,,,,,,,0,79,79,71,1,,
6393da4dd62a68bec4f4661c,2023-06-16_19h17.09.537,phx_ver10,2022.2.5,Win32,60.0240096,,,,,,,,,,,,99,testing_3,sh2x,a,sh2x_a,sh2x_1_asha.wav,sh2x_8_axa.wav,,FALSE,FALSE,,,,,,,,,,,,,,f,0.188,space,0.968,,,,,,,,0,80,80,98,1,,
6393da4dd62a68bec4f4661c,2023-06-16_19h17.09.537,phx_ver10,2022.2.5,Win32,60.0240096,,,,,,,,,,,,14,testing_2,zh2x,ai,zh2x_ai,zh2x_8_aixai.wav,zh2x_8_aixai.wav,,TRUE,FALSE,,,,,,,,,,,,,,f,0.936,space,1.639,,,,,,,,0,81,81,13,1,,
6393da4dd62a68bec4f4661c,2023-06-16_19h17.09.537,phx_ver10,2022.2.5,Win32,60.0240096,,,,,,,,,,,,121,testing_3,sh2j,a,sh2j_a,sh2j_1_asha.wav,sh2j_1_asha.wav,,TRUE,FALSE,,,,,,,,,,,,,,f,0.103,space,0.891,,,,,,,,0,82,82,120,1,,
6393da4dd62a68bec4f4661c,2023-06-16_19h17.09.537,phx_ver10,2022.2.5,Win32,60.0240096,,,,,,,,,,,,87,testing_3,j2x,e,j2x_e,j2x_1_eje.wav,j2x_8_exe.wav,,FALSE,FALSE,,,,,,,,,,,,,,j,0.402,space,1.041,,,,,,,,0,83,83,86,1,,
6393da4dd62a68bec4f4661c,2023-06-16_19h17.09.537,phx_ver10,2022.2.5,Win32,60.0240096,,,,,,,,,,,,92,testing_3,j2x,ei,j2x_ei,j2x_8_eixei.wav,j2x_1_eijei.wav,,FALSE,FALSE,,,,,,,,,,,,,,j,0.154,space,0.842,,,,,,,,0,84,84,91,1,,
6393da4dd62a68bec4f4661c,2023-06-16_19h17.09.537,phx_ver10,2022.2.5,Win32,60.0240096,,,,,,,,,,,,82,testing_3,j2x,au,j2x_au,j2x_8_auxau.wav,j2x_8_auxau.wav,,TRUE,FALSE,,,,,,,,,,,,,,f,0.204,space,0.903,,,,,,,,0,85,85,81,1,,
6393da4dd62a68bec4f4661c,2023-06-16_19h17.09.537,phx_ver10,2022.2.5,Win32,60.0240096,,,,,,,,,,,,9,testing_1,zh2x,i,zh2x_i,zh2x_1_izhi.wav,zh2x_1_izhi_copy.wav,,TRUE,TRUE,,,,,,,,,,,,,,f,0.324,space,1.011,,,,,,,,0,86,86,8,1,,
6393da4dd62a68bec4f4661c,2023-06-16_19h17.09.537,phx_ver10,2022.2.5,Win32,60.0240096,,,,,,,,,,,,68,testing_3,zh2j,ei,zh2j_ei,zh2j_8_eijei.wav,zh2j_1_eizhei.wav,,FALSE,FALSE,,,,,,,,,,,,,,f,0.187,space,0.966,,,,,,,,0,87,87,67,1,,
6393da4dd62a68bec4f4661c,2023-06-16_19h17.09.537,phx_ver10,2022.2.5,Win32,60.0240096,,,,,,,,,,,,64,testing_3,zh2j,e,zh2j_e,zh2j_8_eje.wav,zh2j_1_ezhe.wav,,FALSE,FALSE,,,,,,,,,,,,,,f,0.234,space,1.072,,,,,,,,0,88,88,63,1,,
6393da4dd62a68bec4f4661c,2023-06-16_19h17.09.537,phx_ver10,2022.2.5,Win32,60.0240096,,,,,,,,,,,,88,testing_3,j2x,e,j2x_e,j2x_8_exe.wav,j2x_1_eje.wav,,FALSE,FALSE,,,,,,,,,,,,,,j,0.712,space,1.472,,,,,,,,0,89,89,87,1,,
6393da4dd62a68bec4f4661c,2023-06-16_19h17.09.537,phx_ver10,2022.2.5,Win32,60.0240096,,,,,,,,,,,,65,testing_3,zh2j,ei,zh2j_ei,zh2j_1_eizhei.wav,zh2j_1_eizhei.wav,,TRUE,FALSE,,,,,,,,,,,,,,f,0.699,space,1.433,,,,,,,,0,90,90,64,1,,
6393da4dd62a68bec4f4661c,2023-06-16_19h17.09.537,phx_ver10,2022.2.5,Win32,60.0240096,,,,,,,,,,,,46,testing_3,zh2sh,i,zh2sh_i,zh2sh_8_ishi.wav,zh2sh_8_ishi.wav,,TRUE,FALSE,,,,,,,,,,,,,,f,1.745,space,2.424,,,,,,,,0,91,91,45,1,,
6393da4dd62a68bec4f4661c,2023-06-16_19h17.09.537,phx_ver10,2022.2.5,Win32,60.0240096,,,,,,,,,,,,81,testing_3,j2x,au,j2x_au,j2x_1_aujau.wav,j2x_1_aujau.wav,,TRUE,FALSE,,,,,,,,,,,,,,f,0.05,space,1.114,,,,,,,,0,92,92,80,1,,
6393da4dd62a68bec4f4661c,2023-06-16_19h17.09.537,phx_ver10,2022.2.5,Win32,60.0240096,,,,,,,,,,,,23,testing_2,zh2x,ei,zh2x_ei,zh2x_1_eizhei.wav,zh2x_8_eixei.wav,,FALSE,FALSE,,,,,,,,,,,,,,j,0.018,space,0.785,,,,,,,,0,93,93,22,1,,
6393da4dd62a68bec4f4661c,2023-06-16_19h17.09.537,phx_ver10,2022.2.5,Win32,60.0240096,,,,,,,,,,,,54,testing_3,zh2j,ai,zh2j_ai,zh2j_8_aijai.wav,zh2j_8_aijai.wav,,TRUE,FALSE,,,,,,,,,,,,,,f,0.783,space,1.282,,,,,,,,0,94,94,53,1,,
6393da4dd62a68bec4f4661c,2023-06-16_19h17.09.537,phx_ver10,2022.2.5,Win32,60.0240096,,,,,,,,,,,,48,testing_3,zh2sh,i,zh2sh_i,zh2sh_8_ishi.wav,zh2sh_1_izhi.wav,,FALSE,FALSE,,,,,,,,,,,,,,j,0.783,space,1.357,,,,,,,,0,95,95,47,1,,
6393da4dd62a68bec4f4661c,2023-06-16_19h17.09.537,phx_ver10,2022.2.5,Win32,60.0240096,,,,,,,,,,,,133,testing_3,sh2j,e,sh2j_e,sh2j_1_eshe.wav,sh2j_1_eshe.wav,,TRUE,FALSE,,,,,,,,,,,,,,f,0.164,space,0.587,,,,,,,,0,96,96,132,1,,
6393da4dd62a68bec4f4661c,2023-06-16_19h17.09.537,phx_ver10,2022.2.5,Win32,60.0240096,,,,,,,,,,,,85,testing_3,j2x,e,j2x_e,j2x_1_eje.wav,j2x_1_eje.wav,,TRUE,FALSE,,,,,,,,,,,,,,f,1.435,space,2.913,,,,,,,,0,97,97,84,1,,
6393da4dd62a68bec4f4661c,2023-06-16_19h17.09.537,phx_ver10,2022.2.5,Win32,60.0240096,,,,,,,,,,,,50,testing_3,zh2j,a,zh2j_a,zh2j_8_aja.wav,zh2j_8_aja.wav,,TRUE,FALSE,,,,,,,,,,,,,,f,0.234,space,0.842,,,,,,,,0,98,98,49,1,,
6393da4dd62a68bec4f4661c,2023-06-16_19h17.09.537,phx_ver10,2022.2.5,Win32,60.0240096,,,,,,,,,,,,136,testing_3,sh2j,e,sh2j_e,sh2j_8_eje.wav,sh2j_1_eshe.wav,,FALSE,FALSE,,,,,,,,,,,,,,j,0.169,space,0.79,,,,,,,,0,99,99,135,1,,
6393da4dd62a68bec4f4661c,2023-06-16_19h17.09.537,phx_ver10,2022.2.5,Win32,60.0240096,,,,,,,,,,,,112,testing_3,sh2x,e,sh2x_e,sh2x_8_exe.wav,sh2x_1_eshe.wav,,FALSE,FALSE,,,,,,,,,,,,,,f,0.017,space,0.443,,,,,,,,0,100,100,111,1,,
6393da4dd62a68bec4f4661c,2023-06-16_19h17.09.537,phx_ver10,2022.2.5,Win32,60.0240096,,,,,,,,,,,,125,testing_3,sh2j,ai,sh2j_ai,sh2j_1_aishai.wav,sh2j_1_aishai.wav,,TRUE,FALSE,,,,,,,,,,,,,,f,1.975,space,2.52,,,,,,,,0,101,101,124,1,,
6393da4dd62a68bec4f4661c,2023-06-16_19h17.09.537,phx_ver10,2022.2.5,Win32,60.0240096,,,,,,,,,,,,143,testing_3,sh2j,i,sh2j_i,sh2j_1_ishi.wav,sh2j_8_iji.wav,,FALSE,FALSE,,,,,,,,,,,,,,j,0.635,space,1.201,,,,,,,,0,102,102,142,1,,
6393da4dd62a68bec4f4661c,2023-06-16_19h17.09.537,phx_ver10,2022.2.5,Win32,60.0240096,,,,,,,,,,,,4,testing_1,zh2x,a,zh2x_a,zh2x_8_axa.wav,zh2x_1_azha.wav,,FALSE,TRUE,,,,,,,,,,,,,,j,0.522,space,1.227,,,,,,,,0,103,103,3,1,,
6393da4dd62a68bec4f4661c,2023-06-16_19h17.09.537,phx_ver10,2022.2.5,Win32,60.0240096,,,,,,,,,,,,7,testing_1,zh2x,e,zh2x_e,zh2x_1_ezhe.wav,zh2x_8_exe.wav,,FALSE,TRUE,,,,,,,,,,,,,,j,0.453,space,1.075,,,,,,,,0,104,104,6,1,,
6393da4dd62a68bec4f4661c,2023-06-16_19h17.09.537,phx_ver10,2022.2.5,Win32,60.0240096,,,,,,,,,,,,22,testing_2,zh2x,ei,zh2x_ei,zh2x_8_eixei.wav,zh2x_8_eixei.wav,,TRUE,FALSE,,,,,,,,,,,,,,f,0.276,space,0.697,,,,,,,,0,105,105,21,1,,
6393da4dd62a68bec4f4661c,2023-06-16_19h17.09.537,phx_ver10,2022.2.5,Win32,60.0240096,,,,,,,,,,,,120,testing_3,sh2x,i,sh2x_i,sh2x_8_ixi.wav,sh2x_1_ishi.wav,,FALSE,FALSE,,,,,,,,,,,,,,f,0.412,space,0.971,,,,,,,,0,106,106,119,1,,
6393da4dd62a68bec4f4661c,2023-06-16_19h17.09.537,phx_ver10,2022.2.5,Win32,60.0240096,,,,,,,,,,,,105,testing_3,sh2x,au,sh2x_au,sh2x_1_aushau.wav,sh2x_1_aushau.wav,,TRUE,FALSE,,,,,,,,,,,,,,f,0.024,space,0.466,,,,,,,,0,107,107,104,1,,
6393da4dd62a68bec4f4661c,2023-06-16_19h17.09.537,phx_ver10,2022.2.5,Win32,60.0240096,,,,,,,,,,,,74,testing_3,j2x,a,j2x_a,j2x_8_axa.wav,j2x_8_axa.wav,,TRUE,FALSE,,,,,,,,,,,,,,f,0.068,space,0.521,,,,,,,,0,108,108,73,1,,
6393da4dd62a68bec4f4661c,2023-06-16_19h17.09.537,phx_ver10,2022.2.5,Win32,60.0240096,,,,,,,,,,,,42,testing_3,zh2sh,ei,zh2sh_ei,zh2sh_8_eishei.wav,zh2sh_8_eishei.wav,,TRUE,FALSE,,,,,,,,,,,,,,f,0.032,space,0.451,,,,,,,,0,109,109,41,1,,
6393da4dd62a68bec4f4661c,2023-06-16_19h17.09.537,phx_ver10,2022.2.5,Win32,60.0240096,,,,,,,,,,,,101,testing_3,sh2x,ai,sh2x_ai,sh2x_1_aishai.wav,sh2x_1_aishai.wav,,TRUE,FALSE,,,,,,,,,,,,,,f,0.01,space,0.409,,,,,,,,0,110,110,100,1,,
6393da4dd62a68bec4f4661c,2023-06-16_19h17.09.537,phx_ver10,2022.2.5,Win32,60.0240096,,,,,,,,,,,,106,testing_3,sh2x,au,sh2x_au,sh2x_8_auxau.wav,sh2x_8_auxau.wav,,TRUE,FALSE,,,,,,,,,,,,,,f,0.133,space,0.533,,,,,,,,0,111,111,105,1,,
6393da4dd62a68bec4f4661c,2023-06-16_19h17.09.537,phx_ver10,2022.2.5,Win32,60.0240096,,,,,,,,,,,,1,testing_1,zh2x,a,zh2x_a,zh2x_1_azha.wav,zh2x_1_azha_copy.wav,,TRUE,TRUE,,,,,,,,,,,,,,f,1.47,space,1.975,,,,,,,,0,112,112,0,1,,
6393da4dd62a68bec4f4661c,2023-06-16_19h17.09.537,phx_ver10,2022.2.5,Win32,60.0240096,,,,,,,,,,,,123,testing_3,sh2j,a,sh2j_a,sh2j_1_asha.wav,sh2j_8_aja.wav,,FALSE,FALSE,,,,,,,,,,,,,,j,0.214,space,0.779,,,,,,,,0,113,113,122,1,,
6393da4dd62a68bec4f4661c,2023-06-16_19h17.09.537,phx_ver10,2022.2.5,Win32,60.0240096,,,,,,,,,,,,35,testing_3,zh2sh,au,zh2sh_au,zh2sh_1_auzhau.wav,zh2sh_8_aushau.wav,,FALSE,FALSE,,,,,,,,,,,,,,j,0.194,space,0.721,,,,,,,,0,114,114,34,1,,
6393da4dd62a68bec4f4661c,2023-06-16_19h17.09.537,phx_ver10,2022.2.5,Win32,60.0240096,,,,,,,,,,,,32,testing_3,zh2sh,ai,zh2sh_ai,zh2sh_8_aishai.wav,zh2sh_1_aizhai.wav,,FALSE,FALSE,,,,,,,,,,,,,,j,4.709,space,6.023,,,,,,,,0,115,115,31,1,,
6393da4dd62a68bec4f4661c,2023-06-16_19h17.09.537,phx_ver10,2022.2.5,Win32,60.0240096,,,,,,,,,,,,53,testing_3,zh2j,ai,zh2j_ai,zh2j_1_aizhai.wav,zh2j_1_aizhai.wav,,TRUE,FALSE,,,,,,,,,,,,,,f,0.114,space,0.625,,,,,,,,0,116,116,52,1,,
6393da4dd62a68bec4f4661c,2023-06-16_19h17.09.537,phx_ver10,2022.2.5,Win32,60.0240096,,,,,,,,,,,,44,testing_3,zh2sh,ei,zh2sh_ei,zh2sh_8_eishei.wav,zh2sh_1_eizhei.wav,,FALSE,FALSE,,,,,,,,,,,,,,j,0.102,space,0.859,,,,,,,,0,117,117,43,1,,
6393da4dd62a68bec4f4661c,2023-06-16_19h17.09.537,phx_ver10,2022.2.5,Win32,60.0240096,,,,,,,,,,,,93,testing_3,j2x,i,j2x_i,j2x_1_iji.wav,j2x_1_iji.wav,,TRUE,FALSE,,,,,,,,,,,,,,f,0.085,space,0.484,,,,,,,,0,118,118,92,1,,
6393da4dd62a68bec4f4661c,2023-06-16_19h17.09.537,phx_ver10,2022.2.5,Win32,60.0240096,,,,,,,,,,,,141,testing_3,sh2j,i,sh2j_i,sh2j_1_ishi.wav,sh2j_1_ishi.wav,,TRUE,FALSE,,,,,,,,,,,,,,f,1.376,space,2.152,,,,,,,,0,119,119,140,1,,
6393da4dd62a68bec4f4661c,2023-06-16_19h17.09.537,phx_ver10,2022.2.5,Win32,60.0240096,,,,,,,,,,,,142,testing_3,sh2j,i,sh2j_i,sh2j_8_iji.wav,sh2j_8_iji.wav,,TRUE,FALSE,,,,,,,,,,,,,,f,0.272,space,0.935,,,,,,,,0,120,120,141,1,,
6393da4dd62a68bec4f4661c,2023-06-16_19h17.09.537,phx_ver10,2022.2.5,Win32,60.0240096,,,,,,,,,,,,36,testing_3,zh2sh,au,zh2sh_au,zh2sh_8_aushau.wav,zh2sh_1_auzhau.wav,,FALSE,FALSE,,,,,,,,,,,,,,j,0.468,space,1.172,,,,,,,,0,121,121,35,1,,
6393da4dd62a68bec4f4661c,2023-06-16_19h17.09.537,phx_ver10,2022.2.5,Win32,60.0240096,,,,,,,,,,,,5,testing_1,zh2x,e,zh2x_e,zh2x_1_ezhe.wav,zh2x_1_ezhe_copy.wav,,TRUE,TRUE,,,,,,,,,,,,,,f,0.105,space,0.624,,,,,,,,0,122,122,4,1,,
6393da4dd62a68bec4f4661c,2023-06-16_19h17.09.537,phx_ver10,2022.2.5,Win32,60.0240096,,,,,,,,,,,,98,testing_3,sh2x,a,sh2x_a,sh2x_8_axa.wav,sh2x_8_axa.wav,,TRUE,FALSE,,,,,,,,,,,,,,f,1.334,space,2.002,,,,,,,,0,123,123,97,1,,
6393da4dd62a68bec4f4661c,2023-06-16_19h17.09.537,phx_ver10,2022.2.5,Win32,60.0240096,,,,,,,,,,,,95,testing_3,j2x,i,j2x_i,j2x_1_iji.wav,j2x_8_ixi.wav,,FALSE,FALSE,,,,,,,,,,,,,,j,0.419,space,1.001,,,,,,,,0,124,124,94,1,,
6393da4dd62a68bec4f4661c,2023-06-16_19h17.09.537,phx_ver10,2022.2.5,Win32,60.0240096,,,,,,,,,,,,137,testing_3,sh2j,ei,sh2j_ei,sh2j_1_eishei.wav,sh2j_1_eishei.wav,,TRUE,FALSE,,,,,,,,,,,,,,f,0.29,space,0.885,,,,,,,,0,125,125,136,1,,
6393da4dd62a68bec4f4661c,2023-06-16_19h17.09.537,phx_ver10,2022.2.5,Win32,60.0240096,,,,,,,,,,,,144,testing_3,sh2j,i,sh2j_i,sh2j_8_iji.wav,sh2j_1_ishi.wav,,FALSE,FALSE,,,,,,,,,,,,,,j,0.195,space,0.778,,,,,,,,0,126,126,143,1,,
6393da4dd62a68bec4f4661c,2023-06-16_19h17.09.537,phx_ver10,2022.2.5,Win32,60.0240096,,,,,,,,,,,,6,testing_1,zh2x,e,zh2x_e,zh2x_8_exe.wav,zh2x_8_exe_copy.wav,,TRUE,TRUE,,,,,,,,,,,,,,f,0.069,space,0.461,,,,,,,,0,127,127,5,1,,
6393da4dd62a68bec4f4661c,2023-06-16_19h17.09.537,phx_ver10,2022.2.5,Win32,60.0240096,,,,,,,,,,,,90,testing_3,j2x,ei,j2x_ei,j2x_8_eixei.wav,j2x_8_eixei.wav,,TRUE,FALSE,,,,,,,,,,,,,,f,1.068,space,1.592,,,,,,,,0,128,128,89,1,,
6393da4dd62a68bec4f4661c,2023-06-16_19h17.09.537,phx_ver10,2022.2.5,Win32,60.0240096,,,,,,,,,,,,113,testing_3,sh2x,ei,sh2x_ei,sh2x_1_eishei.wav,sh2x_1_eishei.wav,,TRUE,FALSE,,,,,,,,,,,,,,f,0.283,space,0.838,,,,,,,,0,129,129,112,1,,
6393da4dd62a68bec4f4661c,2023-06-16_19h17.09.537,phx_ver10,2022.2.5,Win32,60.0240096,,,,,,,,,,,,19,testing_2,zh2x,au,zh2x_au,zh2x_1_auzhau.wav,zh2x_8_auxau.wav,,FALSE,FALSE,,,,,,,,,,,,,,j,0.386,space,1.169,,,,,,,,0,130,130,18,1,,
6393da4dd62a68bec4f4661c,2023-06-16_19h17.09.537,phx_ver10,2022.2.5,Win32,60.0240096,,,,,,,,,,,,115,testing_3,sh2x,ei,sh2x_ei,sh2x_1_eishei.wav,sh2x_8_eixei.wav,,FALSE,FALSE,,,,,,,,,,,,,,f,0.343,space,1.055,,,,,,,,0,131,131,114,1,,
6393da4dd62a68bec4f4661c,2023-06-16_19h17.09.537,phx_ver10,2022.2.5,Win32,60.0240096,,,,,,,,,,,,12,testing_1,zh2x,i,zh2x_i,zh2x_8_ixi.wav,zh2x_1_izhi.wav,,FALSE,TRUE,,,,,,,,,,,,,,j,0.07,space,0.6,,,,,,,,0,132,132,11,1,,
6393da4dd62a68bec4f4661c,2023-06-16_19h17.09.537,phx_ver10,2022.2.5,Win32,60.0240096,,,,,,,,,,,,135,testing_3,sh2j,e,sh2j_e,sh2j_1_eshe.wav,sh2j_8_eje.wav,,FALSE,FALSE,,,,,,,,,,,,,,j,0.346,space,1.025,,,,,,,,0,133,133,134,1,,
6393da4dd62a68bec4f4661c,2023-06-16_19h17.09.537,phx_ver10,2022.2.5,Win32,60.0240096,,,,,,,,,,,,28,testing_3,zh2sh,a,zh2sh_a,zh2sh_8_asha.wav,zh2sh_1_azha.wav,,FALSE,FALSE,,,,,,,,,,,,,,f,0.786,space,1.365,,,,,,,,0,134,134,27,1,,
6393da4dd62a68bec4f4661c,2023-06-16_19h17.09.537,phx_ver10,2022.2.5,Win32,60.0240096,,,,,,,,,,,,84,testing_3,j2x,au,j2x_au,j2x_8_auxau.wav,j2x_1_aujau.wav,,FALSE,FALSE,,,,,,,,,,,,,,j,0.337,space,0.882,,,,,,,,0,135,135,83,1,,
6393da4dd62a68bec4f4661c,2023-06-16_19h17.09.537,phx_ver10,2022.2.5,Win32,60.0240096,,,,,,,,,,,,132,testing_3,sh2j,au,sh2j_au,sh2j_8_aujau.wav,sh2j_1_aushau.wav,,FALSE,FALSE,,,,,,,,,,,,,,j,0.273,space,0.929,,,,,,,,0,136,136,131,1,,
6393da4dd62a68bec4f4661c,2023-06-16_19h17.09.537,phx_ver10,2022.2.5,Win32,60.0240096,,,,,,,,,,,,18,testing_2,zh2x,au,zh2x_au,zh2x_8_auxau.wav,zh2x_8_auxau.wav,,TRUE,FALSE,,,,,,,,,,,,,,f,0.005,space,0.485,,,,,,,,0,137,137,17,1,,
6393da4dd62a68bec4f4661c,2023-06-16_19h17.09.537,phx_ver10,2022.2.5,Win32,60.0240096,,,,,,,,,,,,128,testing_3,sh2j,ai,sh2j_ai,sh2j_8_aijai.wav,sh2j_1_aishai.wav,,FALSE,FALSE,,,,,,,,,,,,,,j,0.063,space,0.604,,,,,,,,0,138,138,127,1,,
6393da4dd62a68bec4f4661c,2023-06-16_19h17.09.537,phx_ver10,2022.2.5,Win32,60.0240096,,,,,,,,,,,,86,testing_3,j2x,e,j2x_e,j2x_8_exe.wav,j2x_8_exe.wav,,TRUE,FALSE,,,,,,,,,,,,,,f,0.172,space,0.667,,,,,,,,0,139,139,85,1,,
6393da4dd62a68bec4f4661c,2023-06-16_19h17.09.537,phx_ver10,2022.2.5,Win32,60.0240096,,,,,,,,,,,,76,testing_3,j2x,a,j2x_a,j2x_8_axa.wav,j2x_1_aja.wav,,FALSE,FALSE,,,,,,,,,,,,,,j,0.833,space,1.518,,,,,,,,0,140,140,75,1,,
6393da4dd62a68bec4f4661c,2023-06-16_19h17.09.537,phx_ver10,2022.2.5,Win32,60.0240096,,,,,,,,,,,,103,testing_3,sh2x,ai,sh2x_ai,sh2x_1_aishai.wav,sh2x_8_aixai.wav,,FALSE,FALSE,,,,,,,,,,,,,,f,0.735,space,1.191,,,,,,,,0,141,141,102,1,,
6393da4dd62a68bec4f4661c,2023-06-16_19h17.09.537,phx_ver10,2022.2.5,Win32,60.0240096,,,,,,,,,,,,67,testing_3,zh2j,ei,zh2j_ei,zh2j_1_eizhei.wav,zh2j_8_eijei.wav,,FALSE,FALSE,,,,,,,,,,,,,,f,0.369,space,0.905,,,,,,,,0,142,142,66,1,,
6393da4dd62a68bec4f4661c,2023-06-16_19h17.09.537,phx_ver10,2022.2.5,Win32,60.0240096,,,,,,,,,,,,109,testing_3,sh2x,e,sh2x_e,sh2x_1_eshe.wav,sh2x_1_eshe.wav,,TRUE,FALSE,,,,,,,,,,,,,,f,1.087,space,1.543,,,,,,,,0,143,143,108,1,,
6393da4dd62a68bec4f4661c,2023-06-16_19h17.09.537,phx_ver10,2022.2.5,Win32,60.0240096,,,,,,,,,,,,,,,,,,,,,,,,,,,,,,,,,,,,,,,,,,,,,,,,,,,space,4.062
