participant,date,expName,psychopyVersion,OS,frameRate,space_1.keys,space_1.rt,space_2.keys,space_2.rt,space_train.keys,space_train.rt,training.thisRepN,training.thisTrialN,training.thisN,training.thisIndex,training.ran,token_id,task,continuum,vowel,series,sound_1,sound_2,img,same,trained,FJ_attn.keys,FJ_attn.rt,space_attn.keys,space_attn.rt,if_attn_test.thisRepN,if_attn_test.thisTrialN,if_attn_test.thisN,if_attn_test.thisIndex,if_attn_test.ran,space_trans_1.keys,space_trans_1.rt,space_trans_11.keys,space_trans_11.rt,FJ_test.keys,FJ_test.rt,space_test.keys,space_test.rt,testing_pre.thisRepN,testing_pre.thisTrialN,testing_pre.thisN,testing_pre.thisIndex,testing_pre.ran,space_trans_2.keys,space_trans_2.rt,testing_all.thisRepN,testing_all.thisTrialN,testing_all.thisN,testing_all.thisIndex,testing_all.ran,space_ending.keys,space_ending.rt
6394001067969f8eeb01fc37,2023-06-16_19h36.00.139,phx_ver10,2022.2.5,Win32,59.97001499,,,,,,,,,,,,,,,,,,,,,,,,,,,,,,,,,,,,,,,,,,,,,,,,,,,,
6394001067969f8eeb01fc37,2023-06-16_19h36.00.139,phx_ver10,2022.2.5,Win32,59.97001499,space,5.1557,,,,,,,,,,,,,,,,,,,,,,,,,,,,,,,,,,,,,,,,,,,,,,,,,,
6394001067969f8eeb01fc37,2023-06-16_19h36.00.139,phx_ver10,2022.2.5,Win32,59.97001499,,,space,0.2074,,,,,,,,,,,,,,,,,,,,,,,,,,,,,,,,,,,,,,,,,,,,,,,,
6394001067969f8eeb01fc37,2023-06-16_19h36.00.139,phx_ver10,2022.2.5,Win32,59.97001499,,,,,space,1.4476,0,0,0,24,1,25,training,zh2x,e,zh2x_e,zh2x_5_exe.wav,,exe.jpg,,,,,,,,,,,,,,,,,,,,,,,,,,,,,,,,,
6394001067969f8eeb01fc37,2023-06-16_19h36.00.139,phx_ver10,2022.2.5,Win32,59.97001499,,,,,space,0.8506,0,1,1,17,1,18,training,zh2x,e,zh2x_e,zh2x_2_ezhe.wav,,ezhe.jpg,,,,,,,,,,,,,,,,,,,,,,,,,,,,,,,,,
6394001067969f8eeb01fc37,2023-06-16_19h36.00.139,phx_ver10,2022.2.5,Win32,59.97001499,,,,,space,0.6834,0,2,2,11,1,12,training,zh2x,a,zh2x_a,zh2x_7_axa.wav,,axa.jpg,,,,,,,,,,,,,,,,,,,,,,,,,,,,,,,,,
6394001067969f8eeb01fc37,2023-06-16_19h36.00.139,phx_ver10,2022.2.5,Win32,59.97001499,,,,,space,1.0897,0,3,3,45,1,46,training,zh2x,i,zh2x_i,zh2x_7_ixi.wav,,ixi.jpg,,,,,,,,,,,,,,,,,,,,,,,,,,,,,,,,,
6394001067969f8eeb01fc37,2023-06-16_19h36.00.139,phx_ver10,2022.2.5,Win32,59.97001499,,,,,space,0.2933,0,4,4,8,1,9,training,zh2x,a,zh2x_a,zh2x_5_axa.wav,,axa.jpg,,,,,,,,,,,,,,,,,,,,,,,,,,,,,,,,,
6394001067969f8eeb01fc37,2023-06-16_19h36.00.139,phx_ver10,2022.2.5,Win32,59.97001499,,,,,space,0.5165,0,5,5,12,1,13,training,zh2x,a,zh2x_a,zh2x_7_axa.wav,,axa.jpg,,,,,,,,,,,,,,,,,,,,,,,,,,,,,,,,,
6394001067969f8eeb01fc37,2023-06-16_19h36.00.139,phx_ver10,2022.2.5,Win32,59.97001499,,,,,,,,,,,,,attn_test,,,,zh2x_8_axa.wav,zh2x_1_izhi.wav,axa.jpg,LEFT,,f,1.4112,space,2.685,0,0,0,0,1,,,,,,,,,,,,,,,,,,,,,,
6394001067969f8eeb01fc37,2023-06-16_19h36.00.139,phx_ver10,2022.2.5,Win32,59.97001499,,,,,space,0.6473,0,6,6,34,1,35,training,zh2x,i,zh2x_i,zh2x_2_izhi.wav,,izhi.jpg,,,,,,,,,,,,,,,,,,,,,,,,,,,,,,,,,
6394001067969f8eeb01fc37,2023-06-16_19h36.00.139,phx_ver10,2022.2.5,Win32,59.97001499,,,,,space,0.2897,0,7,7,18,1,19,training,zh2x,e,zh2x_e,zh2x_2_ezhe.wav,,ezhe.jpg,,,,,,,,,,,,,,,,,,,,,,,,,,,,,,,,,
6394001067969f8eeb01fc37,2023-06-16_19h36.00.139,phx_ver10,2022.2.5,Win32,59.97001499,,,,,space,0.1099,0,8,8,28,1,29,training,zh2x,e,zh2x_e,zh2x_7_exe.wav,,exe.jpg,,,,,,,,,,,,,,,,,,,,,,,,,,,,,,,,,
6394001067969f8eeb01fc37,2023-06-16_19h36.00.139,phx_ver10,2022.2.5,Win32,59.97001499,,,,,space,0.0711,0,9,9,36,1,37,training,zh2x,i,zh2x_i,zh2x_2_izhi.wav,,izhi.jpg,,,,,,,,,,,,,,,,,,,,,,,,,,,,,,,,,
6394001067969f8eeb01fc37,2023-06-16_19h36.00.139,phx_ver10,2022.2.5,Win32,59.97001499,,,,,space,0.2527,0,10,10,1,1,2,training,zh2x,a,zh2x_a,zh2x_2_azha.wav,,azha.jpg,,,,,,,,,,,,,,,,,,,,,,,,,,,,,,,,,
6394001067969f8eeb01fc37,2023-06-16_19h36.00.139,phx_ver10,2022.2.5,Win32,59.97001499,,,,,space,0.1339,0,11,11,43,1,44,training,zh2x,i,zh2x_i,zh2x_7_ixi.wav,,ixi.jpg,,,,,,,,,,,,,,,,,,,,,,,,,,,,,,,,,
6394001067969f8eeb01fc37,2023-06-16_19h36.00.139,phx_ver10,2022.2.5,Win32,59.97001499,,,,,,,,,,,,,attn_test,,,,zh2x_8_ixi.wav,zh2x_8_exe.wav,exe.jpg,RIGHT,,j,0.4001,space,0.8846,0,0,0,0,1,,,,,,,,,,,,,,,,,,,,,,
6394001067969f8eeb01fc37,2023-06-16_19h36.00.139,phx_ver10,2022.2.5,Win32,59.97001499,,,,,space,0.9677,0,12,12,46,1,47,training,zh2x,i,zh2x_i,zh2x_7_ixi.wav,,ixi.jpg,,,,,,,,,,,,,,,,,,,,,,,,,,,,,,,,,
6394001067969f8eeb01fc37,2023-06-16_19h36.00.139,phx_ver10,2022.2.5,Win32,59.97001499,,,,,space,0.2495,0,13,13,0,1,1,training,zh2x,a,zh2x_a,zh2x_1_azha.wav,,azha.jpg,,,,,,,,,,,,,,,,,,,,,,,,,,,,,,,,,
6394001067969f8eeb01fc37,2023-06-16_19h36.00.139,phx_ver10,2022.2.5,Win32,59.97001499,,,,,space,0.0671,0,14,14,27,1,28,training,zh2x,e,zh2x_e,zh2x_7_exe.wav,,exe.jpg,,,,,,,,,,,,,,,,,,,,,,,,,,,,,,,,,
6394001067969f8eeb01fc37,2023-06-16_19h36.00.139,phx_ver10,2022.2.5,Win32,59.97001499,,,,,space,0.0724,0,15,15,37,1,38,training,zh2x,i,zh2x_i,zh2x_3_izhi.wav,,izhi.jpg,,,,,,,,,,,,,,,,,,,,,,,,,,,,,,,,,
6394001067969f8eeb01fc37,2023-06-16_19h36.00.139,phx_ver10,2022.2.5,Win32,59.97001499,,,,,space,0.1184,0,16,16,6,1,7,training,zh2x,a,zh2x_a,zh2x_3_azha.wav,,azha.jpg,,,,,,,,,,,,,,,,,,,,,,,,,,,,,,,,,
6394001067969f8eeb01fc37,2023-06-16_19h36.00.139,phx_ver10,2022.2.5,Win32,59.97001499,,,,,space,0.2503,0,17,17,10,1,11,training,zh2x,a,zh2x_a,zh2x_6_axa.wav,,axa.jpg,,,,,,,,,,,,,,,,,,,,,,,,,,,,,,,,,
6394001067969f8eeb01fc37,2023-06-16_19h36.00.139,phx_ver10,2022.2.5,Win32,59.97001499,,,,,,,,,,,,,attn_test,,,,zh2x_1_azha.wav,zh2x_8_axa.wav,azha.jpg,LEFT,,f,0.8091,space,1.3187,0,0,0,0,1,,,,,,,,,,,,,,,,,,,,,,
6394001067969f8eeb01fc37,2023-06-16_19h36.00.139,phx_ver10,2022.2.5,Win32,59.97001499,,,,,space,0.2733,0,18,18,2,1,3,training,zh2x,a,zh2x_a,zh2x_2_azha.wav,,azha.jpg,,,,,,,,,,,,,,,,,,,,,,,,,,,,,,,,,
6394001067969f8eeb01fc37,2023-06-16_19h36.00.139,phx_ver10,2022.2.5,Win32,59.97001499,,,,,space,0.2049,0,19,19,32,1,33,training,zh2x,i,zh2x_i,zh2x_1_izhi.wav,,izhi.jpg,,,,,,,,,,,,,,,,,,,,,,,,,,,,,,,,,
6394001067969f8eeb01fc37,2023-06-16_19h36.00.139,phx_ver10,2022.2.5,Win32,59.97001499,,,,,space,0.2554,0,20,20,29,1,30,training,zh2x,e,zh2x_e,zh2x_7_exe.wav,,exe.jpg,,,,,,,,,,,,,,,,,,,,,,,,,,,,,,,,,
6394001067969f8eeb01fc37,2023-06-16_19h36.00.139,phx_ver10,2022.2.5,Win32,59.97001499,,,,,space,0.4536,0,21,21,26,1,27,training,zh2x,e,zh2x_e,zh2x_6_exe.wav,,exe.jpg,,,,,,,,,,,,,,,,,,,,,,,,,,,,,,,,,
6394001067969f8eeb01fc37,2023-06-16_19h36.00.139,phx_ver10,2022.2.5,Win32,59.97001499,,,,,space,0.4174,0,22,22,5,1,6,training,zh2x,a,zh2x_a,zh2x_3_azha.wav,,azha.jpg,,,,,,,,,,,,,,,,,,,,,,,,,,,,,,,,,
6394001067969f8eeb01fc37,2023-06-16_19h36.00.139,phx_ver10,2022.2.5,Win32,59.97001499,,,,,space,0.4175,0,23,23,21,1,22,training,zh2x,e,zh2x_e,zh2x_3_ezhe.wav,,ezhe.jpg,,,,,,,,,,,,,,,,,,,,,,,,,,,,,,,,,
6394001067969f8eeb01fc37,2023-06-16_19h36.00.139,phx_ver10,2022.2.5,Win32,59.97001499,,,,,,,,,,,,,attn_test,,,,zh2x_8_ixi.wav,zh2x_1_ezhe.wav,ezhe.jpg,RIGHT,,j,0.8375,space,1.3891,0,0,0,0,1,,,,,,,,,,,,,,,,,,,,,,
6394001067969f8eeb01fc37,2023-06-16_19h36.00.139,phx_ver10,2022.2.5,Win32,59.97001499,,,,,space,0.5814,0,24,24,47,1,48,training,zh2x,i,zh2x_i,zh2x_8_ixi.wav,,ixi.jpg,,,,,,,,,,,,,,,,,,,,,,,,,,,,,,,,,
6394001067969f8eeb01fc37,2023-06-16_19h36.00.139,phx_ver10,2022.2.5,Win32,59.97001499,,,,,space,0.1347,0,25,25,31,1,32,training,zh2x,e,zh2x_e,zh2x_8_exe.wav,,exe.jpg,,,,,,,,,,,,,,,,,,,,,,,,,,,,,,,,,
6394001067969f8eeb01fc37,2023-06-16_19h36.00.139,phx_ver10,2022.2.5,Win32,59.97001499,,,,,space,0.2,0,26,26,13,1,14,training,zh2x,a,zh2x_a,zh2x_7_axa.wav,,axa.jpg,,,,,,,,,,,,,,,,,,,,,,,,,,,,,,,,,
6394001067969f8eeb01fc37,2023-06-16_19h36.00.139,phx_ver10,2022.2.5,Win32,59.97001499,,,,,space,0.008,0,27,27,14,1,15,training,zh2x,a,zh2x_a,zh2x_7_axa.wav,,axa.jpg,,,,,,,,,,,,,,,,,,,,,,,,,,,,,,,,,
6394001067969f8eeb01fc37,2023-06-16_19h36.00.139,phx_ver10,2022.2.5,Win32,59.97001499,,,,,space,0.022,0,28,28,25,1,26,training,zh2x,e,zh2x_e,zh2x_6_exe.wav,,exe.jpg,,,,,,,,,,,,,,,,,,,,,,,,,,,,,,,,,
6394001067969f8eeb01fc37,2023-06-16_19h36.00.139,phx_ver10,2022.2.5,Win32,59.97001499,,,,,space,0.4507,0,29,29,38,1,39,training,zh2x,i,zh2x_i,zh2x_3_izhi.wav,,izhi.jpg,,,,,,,,,,,,,,,,,,,,,,,,,,,,,,,,,
6394001067969f8eeb01fc37,2023-06-16_19h36.00.139,phx_ver10,2022.2.5,Win32,59.97001499,,,,,,,,,,,,,attn_test,,,,zh2x_8_axa.wav,zh2x_8_ixi.wav,ixi.jpg,RIGHT,,f,1.8343,space,2.1382,0,0,0,0,1,,,,,,,,,,,,,,,,,,,,,,
6394001067969f8eeb01fc37,2023-06-16_19h36.00.139,phx_ver10,2022.2.5,Win32,59.97001499,,,,,space,0.2824,0,30,30,15,1,16,training,zh2x,a,zh2x_a,zh2x_8_axa.wav,,axa.jpg,,,,,,,,,,,,,,,,,,,,,,,,,,,,,,,,,
6394001067969f8eeb01fc37,2023-06-16_19h36.00.139,phx_ver10,2022.2.5,Win32,59.97001499,,,,,space,0.08,0,31,31,39,1,40,training,zh2x,i,zh2x_i,zh2x_4_izhi.wav,,izhi.jpg,,,,,,,,,,,,,,,,,,,,,,,,,,,,,,,,,
6394001067969f8eeb01fc37,2023-06-16_19h36.00.139,phx_ver10,2022.2.5,Win32,59.97001499,,,,,space,0.1257,0,32,32,16,1,17,training,zh2x,e,zh2x_e,zh2x_1_ezhe.wav,,ezhe.jpg,,,,,,,,,,,,,,,,,,,,,,,,,,,,,,,,,
6394001067969f8eeb01fc37,2023-06-16_19h36.00.139,phx_ver10,2022.2.5,Win32,59.97001499,,,,,space,0.0345,0,33,33,19,1,20,training,zh2x,e,zh2x_e,zh2x_2_ezhe.wav,,ezhe.jpg,,,,,,,,,,,,,,,,,,,,,,,,,,,,,,,,,
6394001067969f8eeb01fc37,2023-06-16_19h36.00.139,phx_ver10,2022.2.5,Win32,59.97001499,,,,,space,0.0343,0,34,34,44,1,45,training,zh2x,i,zh2x_i,zh2x_7_ixi.wav,,ixi.jpg,,,,,,,,,,,,,,,,,,,,,,,,,,,,,,,,,
6394001067969f8eeb01fc37,2023-06-16_19h36.00.139,phx_ver10,2022.2.5,Win32,59.97001499,,,,,space,0.1245,0,35,35,33,1,34,training,zh2x,i,zh2x_i,zh2x_2_izhi.wav,,izhi.jpg,,,,,,,,,,,,,,,,,,,,,,,,,,,,,,,,,
6394001067969f8eeb01fc37,2023-06-16_19h36.00.139,phx_ver10,2022.2.5,Win32,59.97001499,,,,,,,,,,,,,attn_test,,,,zh2x_1_ezhe.wav,zh2x_8_axa.wav,axa.jpg,RIGHT,,j,0.118,space,0.5051,0,0,0,0,1,,,,,,,,,,,,,,,,,,,,,,
6394001067969f8eeb01fc37,2023-06-16_19h36.00.139,phx_ver10,2022.2.5,Win32,59.97001499,,,,,space,0.1676,0,36,36,7,1,8,training,zh2x,a,zh2x_a,zh2x_4_azha.wav,,azha.jpg,,,,,,,,,,,,,,,,,,,,,,,,,,,,,,,,,
6394001067969f8eeb01fc37,2023-06-16_19h36.00.139,phx_ver10,2022.2.5,Win32,59.97001499,,,,,space,0.1293,0,37,37,35,1,36,training,zh2x,i,zh2x_i,zh2x_2_izhi.wav,,izhi.jpg,,,,,,,,,,,,,,,,,,,,,,,,,,,,,,,,,
6394001067969f8eeb01fc37,2023-06-16_19h36.00.139,phx_ver10,2022.2.5,Win32,59.97001499,,,,,space,0.1692,0,38,38,42,1,43,training,zh2x,i,zh2x_i,zh2x_6_ixi.wav,,ixi.jpg,,,,,,,,,,,,,,,,,,,,,,,,,,,,,,,,,
6394001067969f8eeb01fc37,2023-06-16_19h36.00.139,phx_ver10,2022.2.5,Win32,59.97001499,,,,,space,0.0349,0,39,39,41,1,42,training,zh2x,i,zh2x_i,zh2x_6_ixi.wav,,ixi.jpg,,,,,,,,,,,,,,,,,,,,,,,,,,,,,,,,,
6394001067969f8eeb01fc37,2023-06-16_19h36.00.139,phx_ver10,2022.2.5,Win32,59.97001499,,,,,space,0.1687,0,40,40,40,1,41,training,zh2x,i,zh2x_i,zh2x_5_ixi.wav,,ixi.jpg,,,,,,,,,,,,,,,,,,,,,,,,,,,,,,,,,
6394001067969f8eeb01fc37,2023-06-16_19h36.00.139,phx_ver10,2022.2.5,Win32,59.97001499,,,,,space,0.0754,0,41,41,9,1,10,training,zh2x,a,zh2x_a,zh2x_6_axa.wav,,axa.jpg,,,,,,,,,,,,,,,,,,,,,,,,,,,,,,,,,
6394001067969f8eeb01fc37,2023-06-16_19h36.00.139,phx_ver10,2022.2.5,Win32,59.97001499,,,,,,,,,,,,,attn_test,,,,zh2x_8_ixi.wav,zh2x_8_exe.wav,ixi.jpg,LEFT,,f,0.5142,space,0.9029,0,0,0,0,1,,,,,,,,,,,,,,,,,,,,,,
6394001067969f8eeb01fc37,2023-06-16_19h36.00.139,phx_ver10,2022.2.5,Win32,59.97001499,,,,,space,0.2201,0,42,42,20,1,21,training,zh2x,e,zh2x_e,zh2x_2_ezhe.wav,,ezhe.jpg,,,,,,,,,,,,,,,,,,,,,,,,,,,,,,,,,
6394001067969f8eeb01fc37,2023-06-16_19h36.00.139,phx_ver10,2022.2.5,Win32,59.97001499,,,,,space,0.3213,0,43,43,30,1,31,training,zh2x,e,zh2x_e,zh2x_7_exe.wav,,exe.jpg,,,,,,,,,,,,,,,,,,,,,,,,,,,,,,,,,
6394001067969f8eeb01fc37,2023-06-16_19h36.00.139,phx_ver10,2022.2.5,Win32,59.97001499,,,,,space,0.317,0,44,44,22,1,23,training,zh2x,e,zh2x_e,zh2x_3_ezhe.wav,,ezhe.jpg,,,,,,,,,,,,,,,,,,,,,,,,,,,,,,,,,
6394001067969f8eeb01fc37,2023-06-16_19h36.00.139,phx_ver10,2022.2.5,Win32,59.97001499,,,,,space,0.1086,0,45,45,3,1,4,training,zh2x,a,zh2x_a,zh2x_2_azha.wav,,azha.jpg,,,,,,,,,,,,,,,,,,,,,,,,,,,,,,,,,
6394001067969f8eeb01fc37,2023-06-16_19h36.00.139,phx_ver10,2022.2.5,Win32,59.97001499,,,,,space,0.2905,0,46,46,23,1,24,training,zh2x,e,zh2x_e,zh2x_4_ezhe.wav,,ezhe.jpg,,,,,,,,,,,,,,,,,,,,,,,,,,,,,,,,,
6394001067969f8eeb01fc37,2023-06-16_19h36.00.139,phx_ver10,2022.2.5,Win32,59.97001499,,,,,space,0.0876,0,47,47,4,1,5,training,zh2x,a,zh2x_a,zh2x_2_azha.wav,,azha.jpg,,,,,,,,,,,,,,,,,,,,,,,,,,,,,,,,,
6394001067969f8eeb01fc37,2023-06-16_19h36.00.139,phx_ver10,2022.2.5,Win32,59.97001499,,,,,,,,,,,,,attn_test,,,,zh2x_1_azha.wav,zh2x_1_ezhe.wav,ezhe.jpg,RIGHT,,j,0.2047,space,0.5914,,,,,,,,,,,,,,,,,,,,,,,,,,,
6394001067969f8eeb01fc37,2023-06-16_19h36.00.139,phx_ver10,2022.2.5,Win32,59.97001499,,,,,,,,,,,,,,,,,,,,,,,,,,,,,,,space,1.6621,,,,,,,,,,,,,,,,,,,,
6394001067969f8eeb01fc37,2023-06-16_19h36.00.139,phx_ver10,2022.2.5,Win32,59.97001499,,,,,,,,,,,,,,,,,,,,,,,,,,,,,,,,,space,3.7059,,,,,,,,,,,,,,,,,,
6394001067969f8eeb01fc37,2023-06-16_19h36.00.139,phx_ver10,2022.2.5,Win32,59.97001499,,,,,,,,,,,,4,testing_pre,,,,eihei.wav,eihei.wav,,TRUE,,,,,,,,,,,,,,,j,0.2833,space,0.6306,0,0,0,3,1,,,,,,,,,
6394001067969f8eeb01fc37,2023-06-16_19h36.00.139,phx_ver10,2022.2.5,Win32,59.97001499,,,,,,,,,,,,2,testing_pre,,,,auhau.wav,aufau.wav,,FALSE,,,,,,,,,,,,,,,j,0.2866,space,0.6941,0,1,1,1,1,,,,,,,,,
6394001067969f8eeb01fc37,2023-06-16_19h36.00.139,phx_ver10,2022.2.5,Win32,59.97001499,,,,,,,,,,,,3,testing_pre,,,,afa.wav,aha.wav,,FALSE,,,,,,,,,,,,,,,f,0.7205,space,1.0928,0,2,2,2,1,,,,,,,,,
6394001067969f8eeb01fc37,2023-06-16_19h36.00.139,phx_ver10,2022.2.5,Win32,59.97001499,,,,,,,,,,,,1,testing_pre,,,,ifi.wav,ifi.wav,,TRUE,,,,,,,,,,,,,,,f,0.3168,space,0.669,0,3,3,0,1,,,,,,,,,
6394001067969f8eeb01fc37,2023-06-16_19h36.00.139,phx_ver10,2022.2.5,Win32,59.97001499,,,,,,,,,,,,5,testing_pre,,,,ihi.wav,ifi.wav,,FALSE,,,,,,,,,,,,,,,j,0.2038,space,0.5252,0,4,4,4,1,,,,,,,,,
6394001067969f8eeb01fc37,2023-06-16_19h36.00.139,phx_ver10,2022.2.5,Win32,59.97001499,,,,,,,,,,,,,,,,,,,,,,,,,,,,,,,,,,,,,,,,,,,,space,0.8242,,,,,,,
6394001067969f8eeb01fc37,2023-06-16_19h36.00.139,phx_ver10,2022.2.5,Win32,59.97001499,,,,,,,,,,,,112,testing_3,sh2x,e,sh2x_e,sh2x_8_exe.wav,sh2x_1_eshe.wav,,FALSE,FALSE,,,,,,,,,,,,,,f,0.8526,space,1.1912,,,,,,,,0,0,0,111,1,,
6394001067969f8eeb01fc37,2023-06-16_19h36.00.139,phx_ver10,2022.2.5,Win32,59.97001499,,,,,,,,,,,,65,testing_3,zh2j,ei,zh2j_ei,zh2j_1_eizhei.wav,zh2j_1_eizhei.wav,,TRUE,FALSE,,,,,,,,,,,,,,j,0.0544,space,0.3733,,,,,,,,0,1,1,64,1,,
6394001067969f8eeb01fc37,2023-06-16_19h36.00.139,phx_ver10,2022.2.5,Win32,59.97001499,,,,,,,,,,,,100,testing_3,sh2x,a,sh2x_a,sh2x_8_axa.wav,sh2x_1_asha.wav,,FALSE,FALSE,,,,,,,,,,,,,,f,0.0009,space,0.3764,,,,,,,,0,2,2,99,1,,
6394001067969f8eeb01fc37,2023-06-16_19h36.00.139,phx_ver10,2022.2.5,Win32,59.97001499,,,,,,,,,,,,93,testing_3,j2x,i,j2x_i,j2x_1_iji.wav,j2x_1_iji.wav,,TRUE,FALSE,,,,,,,,,,,,,,f,0.1004,space,0.4838,,,,,,,,0,3,3,92,1,,
6394001067969f8eeb01fc37,2023-06-16_19h36.00.139,phx_ver10,2022.2.5,Win32,59.97001499,,,,,,,,,,,,58,testing_3,zh2j,au,zh2j_au,zh2j_8_aujau.wav,zh2j_8_aujau.wav,,TRUE,FALSE,,,,,,,,,,,,,,j,0.1895,space,0.3967,,,,,,,,0,4,4,57,1,,
6394001067969f8eeb01fc37,2023-06-16_19h36.00.139,phx_ver10,2022.2.5,Win32,59.97001499,,,,,,,,,,,,23,testing_2,zh2x,ei,zh2x_ei,zh2x_1_eizhei.wav,zh2x_8_eixei.wav,,FALSE,FALSE,,,,,,,,,,,,,,j,0.3204,space,0.5744,,,,,,,,0,5,5,22,1,,
6394001067969f8eeb01fc37,2023-06-16_19h36.00.139,phx_ver10,2022.2.5,Win32,59.97001499,,,,,,,,,,,,33,testing_3,zh2sh,au,zh2sh_au,zh2sh_1_auzhau.wav,zh2sh_1_auzhau.wav,,TRUE,FALSE,,,,,,,,,,,,,,j,0.4353,space,0.731,,,,,,,,0,6,6,32,1,,
6394001067969f8eeb01fc37,2023-06-16_19h36.00.139,phx_ver10,2022.2.5,Win32,59.97001499,,,,,,,,,,,,129,testing_3,sh2j,au,sh2j_au,sh2j_1_aushau.wav,sh2j_1_aushau.wav,,TRUE,FALSE,,,,,,,,,,,,,,j,0.4105,space,0.6818,,,,,,,,0,7,7,128,1,,
6394001067969f8eeb01fc37,2023-06-16_19h36.00.139,phx_ver10,2022.2.5,Win32,59.97001499,,,,,,,,,,,,102,testing_3,sh2x,ai,sh2x_ai,sh2x_8_aixai.wav,sh2x_8_aixai.wav,,TRUE,FALSE,,,,,,,,,,,,,,j,0.3487,space,0.6354,,,,,,,,0,8,8,101,1,,
6394001067969f8eeb01fc37,2023-06-16_19h36.00.139,phx_ver10,2022.2.5,Win32,59.97001499,,,,,,,,,,,,134,testing_3,sh2j,e,sh2j_e,sh2j_8_eje.wav,sh2j_8_eje.wav,,TRUE,FALSE,,,,,,,,,,,,,,f,0.1583,space,0.4932,,,,,,,,0,9,9,133,1,,
6394001067969f8eeb01fc37,2023-06-16_19h36.00.139,phx_ver10,2022.2.5,Win32,59.97001499,,,,,,,,,,,,81,testing_3,j2x,au,j2x_au,j2x_1_aujau.wav,j2x_1_aujau.wav,,TRUE,FALSE,,,,,,,,,,,,,,j,0.3634,space,0.5987,,,,,,,,0,10,10,80,1,,
6394001067969f8eeb01fc37,2023-06-16_19h36.00.139,phx_ver10,2022.2.5,Win32,59.97001499,,,,,,,,,,,,16,testing_2,zh2x,ai,zh2x_ai,zh2x_8_aixai.wav,zh2x_1_aizhai.wav,,FALSE,FALSE,,,,,,,,,,,,,,j,0.3558,space,0.5242,,,,,,,,0,11,11,15,1,,
6394001067969f8eeb01fc37,2023-06-16_19h36.00.139,phx_ver10,2022.2.5,Win32,59.97001499,,,,,,,,,,,,76,testing_3,j2x,a,j2x_a,j2x_8_axa.wav,j2x_1_aja.wav,,FALSE,FALSE,,,,,,,,,,,,,,f,0.3528,space,0.5566,,,,,,,,0,12,12,75,1,,
6394001067969f8eeb01fc37,2023-06-16_19h36.00.139,phx_ver10,2022.2.5,Win32,59.97001499,,,,,,,,,,,,52,testing_3,zh2j,a,zh2j_a,zh2j_8_aja.wav,zh2j_1_azha.wav,,FALSE,FALSE,,,,,,,,,,,,,,f,0.5015,space,0.6505,,,,,,,,0,13,13,51,1,,
6394001067969f8eeb01fc37,2023-06-16_19h36.00.139,phx_ver10,2022.2.5,Win32,59.97001499,,,,,,,,,,,,56,testing_3,zh2j,ai,zh2j_ai,zh2j_8_aijai.wav,zh2j_1_aizhai.wav,,FALSE,FALSE,,,,,,,,,,,,,,j,0.4461,space,0.6016,,,,,,,,0,14,14,55,1,,
6394001067969f8eeb01fc37,2023-06-16_19h36.00.139,phx_ver10,2022.2.5,Win32,59.97001499,,,,,,,,,,,,14,testing_2,zh2x,ai,zh2x_ai,zh2x_8_aixai.wav,zh2x_8_aixai.wav,,TRUE,FALSE,,,,,,,,,,,,,,j,0.234,space,0.5661,,,,,,,,0,15,15,13,1,,
6394001067969f8eeb01fc37,2023-06-16_19h36.00.139,phx_ver10,2022.2.5,Win32,59.97001499,,,,,,,,,,,,53,testing_3,zh2j,ai,zh2j_ai,zh2j_1_aizhai.wav,zh2j_1_aizhai.wav,,TRUE,FALSE,,,,,,,,,,,,,,j,0.401,space,0.6351,,,,,,,,0,16,16,52,1,,
6394001067969f8eeb01fc37,2023-06-16_19h36.00.139,phx_ver10,2022.2.5,Win32,59.97001499,,,,,,,,,,,,31,testing_3,zh2sh,ai,zh2sh_ai,zh2sh_1_aizhai.wav,zh2sh_8_aishai.wav,,FALSE,FALSE,,,,,,,,,,,,,,j,0.4718,space,0.6501,,,,,,,,0,17,17,30,1,,
6394001067969f8eeb01fc37,2023-06-16_19h36.00.139,phx_ver10,2022.2.5,Win32,59.97001499,,,,,,,,,,,,69,testing_3,zh2j,i,zh2j_i,zh2j_1_izhi.wav,zh2j_1_izhi.wav,,TRUE,FALSE,,,,,,,,,,,,,,f,0.2872,space,0.4496,,,,,,,,0,18,18,68,1,,
6394001067969f8eeb01fc37,2023-06-16_19h36.00.139,phx_ver10,2022.2.5,Win32,59.97001499,,,,,,,,,,,,143,testing_3,sh2j,i,sh2j_i,sh2j_1_ishi.wav,sh2j_8_iji.wav,,FALSE,FALSE,,,,,,,,,,,,,,f,0.1875,space,0.4697,,,,,,,,0,19,19,142,1,,
6394001067969f8eeb01fc37,2023-06-16_19h36.00.139,phx_ver10,2022.2.5,Win32,59.97001499,,,,,,,,,,,,125,testing_3,sh2j,ai,sh2j_ai,sh2j_1_aishai.wav,sh2j_1_aishai.wav,,TRUE,FALSE,,,,,,,,,,,,,,j,0.2557,space,0.5172,,,,,,,,0,20,20,124,1,,
6394001067969f8eeb01fc37,2023-06-16_19h36.00.139,phx_ver10,2022.2.5,Win32,59.97001499,,,,,,,,,,,,139,testing_3,sh2j,ei,sh2j_ei,sh2j_1_eishei.wav,sh2j_8_eijei.wav,,FALSE,FALSE,,,,,,,,,,,,,,f,0.1007,space,0.3836,,,,,,,,0,21,21,138,1,,
6394001067969f8eeb01fc37,2023-06-16_19h36.00.139,phx_ver10,2022.2.5,Win32,59.97001499,,,,,,,,,,,,138,testing_3,sh2j,ei,sh2j_ei,sh2j_8_eijei.wav,sh2j_8_eijei.wav,,TRUE,FALSE,,,,,,,,,,,,,,f,0.1176,space,0.416,,,,,,,,0,22,22,137,1,,
6394001067969f8eeb01fc37,2023-06-16_19h36.00.139,phx_ver10,2022.2.5,Win32,59.97001499,,,,,,,,,,,,115,testing_3,sh2x,ei,sh2x_ei,sh2x_1_eishei.wav,sh2x_8_eixei.wav,,FALSE,FALSE,,,,,,,,,,,,,,f,0.297,space,0.5182,,,,,,,,0,23,23,114,1,,
6394001067969f8eeb01fc37,2023-06-16_19h36.00.139,phx_ver10,2022.2.5,Win32,59.97001499,,,,,,,,,,,,30,testing_3,zh2sh,ai,zh2sh_ai,zh2sh_8_aishai.wav,zh2sh_8_aishai.wav,,TRUE,FALSE,,,,,,,,,,,,,,f,0.0836,space,0.3976,,,,,,,,0,24,24,29,1,,
6394001067969f8eeb01fc37,2023-06-16_19h36.00.139,phx_ver10,2022.2.5,Win32,59.97001499,,,,,,,,,,,,98,testing_3,sh2x,a,sh2x_a,sh2x_8_axa.wav,sh2x_8_axa.wav,,TRUE,FALSE,,,,,,,,,,,,,,f,0.2196,space,0.4527,,,,,,,,0,25,25,97,1,,
6394001067969f8eeb01fc37,2023-06-16_19h36.00.139,phx_ver10,2022.2.5,Win32,59.97001499,,,,,,,,,,,,27,testing_3,zh2sh,a,zh2sh_a,zh2sh_1_azha.wav,zh2sh_8_asha.wav,,FALSE,FALSE,,,,,,,,,,,,,,f,0.2861,space,0.5843,,,,,,,,0,26,26,26,1,,
6394001067969f8eeb01fc37,2023-06-16_19h36.00.139,phx_ver10,2022.2.5,Win32,59.97001499,,,,,,,,,,,,40,testing_3,zh2sh,e,zh2sh_e,zh2sh_8_eshe.wav,zh2sh_1_ezhe.wav,,FALSE,FALSE,,,,,,,,,,,,,,f,0.2172,space,0.8064,,,,,,,,0,27,27,39,1,,
6394001067969f8eeb01fc37,2023-06-16_19h36.00.139,phx_ver10,2022.2.5,Win32,59.97001499,,,,,,,,,,,,51,testing_3,zh2j,a,zh2j_a,zh2j_1_azha.wav,zh2j_8_aja.wav,,FALSE,FALSE,,,,,,,,,,,,,,f,0.5565,space,0.8006,,,,,,,,0,28,28,50,1,,
6394001067969f8eeb01fc37,2023-06-16_19h36.00.139,phx_ver10,2022.2.5,Win32,59.97001499,,,,,,,,,,,,118,testing_3,sh2x,i,sh2x_i,sh2x_8_ixi.wav,sh2x_8_ixi.wav,,TRUE,FALSE,,,,,,,,,,,,,,f,0.7564,space,0.9828,,,,,,,,0,29,29,117,1,,
6394001067969f8eeb01fc37,2023-06-16_19h36.00.139,phx_ver10,2022.2.5,Win32,59.97001499,,,,,,,,,,,,144,testing_3,sh2j,i,sh2j_i,sh2j_8_iji.wav,sh2j_1_ishi.wav,,FALSE,FALSE,,,,,,,,,,,,,,f,0.1338,space,0.4328,,,,,,,,0,30,30,143,1,,
6394001067969f8eeb01fc37,2023-06-16_19h36.00.139,phx_ver10,2022.2.5,Win32,59.97001499,,,,,,,,,,,,7,testing_1,zh2x,e,zh2x_e,zh2x_1_ezhe.wav,zh2x_8_exe.wav,,FALSE,TRUE,,,,,,,,,,,,,,f,0.3008,space,0.5167,,,,,,,,0,31,31,6,1,,
6394001067969f8eeb01fc37,2023-06-16_19h36.00.139,phx_ver10,2022.2.5,Win32,59.97001499,,,,,,,,,,,,15,testing_2,zh2x,ai,zh2x_ai,zh2x_1_aizhai.wav,zh2x_8_aixai.wav,,FALSE,FALSE,,,,,,,,,,,,,,j,0.0172,space,0.3185,,,,,,,,0,32,32,14,1,,
6394001067969f8eeb01fc37,2023-06-16_19h36.00.139,phx_ver10,2022.2.5,Win32,59.97001499,,,,,,,,,,,,130,testing_3,sh2j,au,sh2j_au,sh2j_8_aujau.wav,sh2j_8_aujau.wav,,TRUE,FALSE,,,,,,,,,,,,,,j,0.3258,space,0.4759,,,,,,,,0,33,33,129,1,,
6394001067969f8eeb01fc37,2023-06-16_19h36.00.139,phx_ver10,2022.2.5,Win32,59.97001499,,,,,,,,,,,,35,testing_3,zh2sh,au,zh2sh_au,zh2sh_1_auzhau.wav,zh2sh_8_aushau.wav,,FALSE,FALSE,,,,,,,,,,,,,,j,0.2999,space,0.4502,,,,,,,,0,34,34,34,1,,
6394001067969f8eeb01fc37,2023-06-16_19h36.00.139,phx_ver10,2022.2.5,Win32,59.97001499,,,,,,,,,,,,44,testing_3,zh2sh,ei,zh2sh_ei,zh2sh_8_eishei.wav,zh2sh_1_eizhei.wav,,FALSE,FALSE,,,,,,,,,,,,,,j,0.3032,space,0.6853,,,,,,,,0,35,35,43,1,,
6394001067969f8eeb01fc37,2023-06-16_19h36.00.139,phx_ver10,2022.2.5,Win32,59.97001499,,,,,,,,,,,,34,testing_3,zh2sh,au,zh2sh_au,zh2sh_8_aushau.wav,zh2sh_8_aushau.wav,,TRUE,FALSE,,,,,,,,,,,,,,j,0.3185,space,0.4672,,,,,,,,0,36,36,33,1,,
6394001067969f8eeb01fc37,2023-06-16_19h36.00.139,phx_ver10,2022.2.5,Win32,59.97001499,,,,,,,,,,,,114,testing_3,sh2x,ei,sh2x_ei,sh2x_8_eixei.wav,sh2x_8_eixei.wav,,TRUE,FALSE,,,,,,,,,,,,,,j,0.2575,space,0.45,,,,,,,,0,37,37,113,1,,
6394001067969f8eeb01fc37,2023-06-16_19h36.00.139,phx_ver10,2022.2.5,Win32,59.97001499,,,,,,,,,,,,123,testing_3,sh2j,a,sh2j_a,sh2j_1_asha.wav,sh2j_8_aja.wav,,FALSE,FALSE,,,,,,,,,,,,,,f,0.9344,space,1.1231,,,,,,,,0,38,38,122,1,,
6394001067969f8eeb01fc37,2023-06-16_19h36.00.139,phx_ver10,2022.2.5,Win32,59.97001499,,,,,,,,,,,,13,testing_2,zh2x,ai,zh2x_ai,zh2x_1_aizhai.wav,zh2x_1_aizhai.wav,,TRUE,FALSE,,,,,,,,,,,,,,j,0.3671,space,0.5171,,,,,,,,0,39,39,12,1,,
6394001067969f8eeb01fc37,2023-06-16_19h36.00.139,phx_ver10,2022.2.5,Win32,59.97001499,,,,,,,,,,,,25,testing_3,zh2sh,a,zh2sh_a,zh2sh_1_azha.wav,zh2sh_1_azha.wav,,TRUE,FALSE,,,,,,,,,,,,,,f,0.167,space,0.3835,,,,,,,,0,40,40,24,1,,
6394001067969f8eeb01fc37,2023-06-16_19h36.00.139,phx_ver10,2022.2.5,Win32,59.97001499,,,,,,,,,,,,110,testing_3,sh2x,e,sh2x_e,sh2x_8_exe.wav,sh2x_8_exe.wav,,TRUE,FALSE,,,,,,,,,,,,,,f,0.884,space,1.0839,,,,,,,,0,41,41,109,1,,
6394001067969f8eeb01fc37,2023-06-16_19h36.00.139,phx_ver10,2022.2.5,Win32,59.97001499,,,,,,,,,,,,78,testing_3,j2x,ai,j2x_ai,j2x_8_aixai.wav,j2x_8_aixai.wav,,TRUE,FALSE,,,,,,,,,,,,,,j,0.3721,space,0.5415,,,,,,,,0,42,42,77,1,,
6394001067969f8eeb01fc37,2023-06-16_19h36.00.139,phx_ver10,2022.2.5,Win32,59.97001499,,,,,,,,,,,,86,testing_3,j2x,e,j2x_e,j2x_8_exe.wav,j2x_8_exe.wav,,TRUE,FALSE,,,,,,,,,,,,,,f,0.4506,space,0.7392,,,,,,,,0,43,43,85,1,,
6394001067969f8eeb01fc37,2023-06-16_19h36.00.139,phx_ver10,2022.2.5,Win32,59.97001499,,,,,,,,,,,,133,testing_3,sh2j,e,sh2j_e,sh2j_1_eshe.wav,sh2j_1_eshe.wav,,TRUE,FALSE,,,,,,,,,,,,,,f,0.408,space,0.6011,,,,,,,,0,44,44,132,1,,
6394001067969f8eeb01fc37,2023-06-16_19h36.00.139,phx_ver10,2022.2.5,Win32,59.97001499,,,,,,,,,,,,73,testing_3,j2x,a,j2x_a,j2x_1_aja.wav,j2x_1_aja.wav,,TRUE,FALSE,,,,,,,,,,,,,,f,0.7033,space,0.8839,,,,,,,,0,45,45,72,1,,
6394001067969f8eeb01fc37,2023-06-16_19h36.00.139,phx_ver10,2022.2.5,Win32,59.97001499,,,,,,,,,,,,48,testing_3,zh2sh,i,zh2sh_i,zh2sh_8_ishi.wav,zh2sh_1_izhi.wav,,FALSE,FALSE,,,,,,,,,,,,,,j,1.2336,space,1.35,,,,,,,,0,46,46,47,1,,
6394001067969f8eeb01fc37,2023-06-16_19h36.00.139,phx_ver10,2022.2.5,Win32,59.97001499,,,,,,,,,,,,11,testing_1,zh2x,i,zh2x_i,zh2x_1_izhi.wav,zh2x_8_ixi.wav,,FALSE,TRUE,,,,,,,,,,,,,,j,0.4757,space,0.6699,,,,,,,,0,47,47,10,1,,
6394001067969f8eeb01fc37,2023-06-16_19h36.00.139,phx_ver10,2022.2.5,Win32,59.97001499,,,,,,,,,,,,1,testing_1,zh2x,a,zh2x_a,zh2x_1_azha.wav,zh2x_1_azha_copy.wav,,TRUE,TRUE,,,,,,,,,,,,,,f,0.3842,space,0.5758,,,,,,,,0,48,48,0,1,,
6394001067969f8eeb01fc37,2023-06-16_19h36.00.139,phx_ver10,2022.2.5,Win32,59.97001499,,,,,,,,,,,,101,testing_3,sh2x,ai,sh2x_ai,sh2x_1_aishai.wav,sh2x_1_aishai.wav,,TRUE,FALSE,,,,,,,,,,,,,,j,0.4007,space,0.6514,,,,,,,,0,49,49,100,1,,
6394001067969f8eeb01fc37,2023-06-16_19h36.00.139,phx_ver10,2022.2.5,Win32,59.97001499,,,,,,,,,,,,47,testing_3,zh2sh,i,zh2sh_i,zh2sh_1_izhi.wav,zh2sh_8_ishi.wav,,FALSE,FALSE,,,,,,,,,,,,,,f,0.2346,space,0.5512,,,,,,,,0,50,50,46,1,,
6394001067969f8eeb01fc37,2023-06-16_19h36.00.139,phx_ver10,2022.2.5,Win32,59.97001499,,,,,,,,,,,,117,testing_3,sh2x,i,sh2x_i,sh2x_1_ishi.wav,sh2x_1_ishi.wav,,TRUE,FALSE,,,,,,,,,,,,,,j,0.7674,space,0.9163,,,,,,,,0,51,51,116,1,,
6394001067969f8eeb01fc37,2023-06-16_19h36.00.139,phx_ver10,2022.2.5,Win32,59.97001499,,,,,,,,,,,,45,testing_3,zh2sh,i,zh2sh_i,zh2sh_1_izhi.wav,zh2sh_1_izhi.wav,,TRUE,FALSE,,,,,,,,,,,,,,j,0.6308,space,0.8004,,,,,,,,0,52,52,44,1,,
6394001067969f8eeb01fc37,2023-06-16_19h36.00.139,phx_ver10,2022.2.5,Win32,59.97001499,,,,,,,,,,,,68,testing_3,zh2j,ei,zh2j_ei,zh2j_8_eijei.wav,zh2j_1_eizhei.wav,,FALSE,FALSE,,,,,,,,,,,,,,j,0.6635,space,0.897,,,,,,,,0,53,53,67,1,,
6394001067969f8eeb01fc37,2023-06-16_19h36.00.139,phx_ver10,2022.2.5,Win32,59.97001499,,,,,,,,,,,,116,testing_3,sh2x,ei,sh2x_ei,sh2x_8_eixei.wav,sh2x_1_eishei.wav,,FALSE,FALSE,,,,,,,,,,,,,,j,0.3793,space,0.5329,,,,,,,,0,54,54,115,1,,
6394001067969f8eeb01fc37,2023-06-16_19h36.00.139,phx_ver10,2022.2.5,Win32,59.97001499,,,,,,,,,,,,43,testing_3,zh2sh,ei,zh2sh_ei,zh2sh_1_eizhei.wav,zh2sh_8_eishei.wav,,FALSE,FALSE,,,,,,,,,,,,,,j,0.5349,space,0.734,,,,,,,,0,55,55,42,1,,
6394001067969f8eeb01fc37,2023-06-16_19h36.00.139,phx_ver10,2022.2.5,Win32,59.97001499,,,,,,,,,,,,111,testing_3,sh2x,e,sh2x_e,sh2x_1_eshe.wav,sh2x_8_exe.wav,,FALSE,FALSE,,,,,,,,,,,,,,j,0.5909,space,0.7184,,,,,,,,0,56,56,110,1,,
6394001067969f8eeb01fc37,2023-06-16_19h36.00.139,phx_ver10,2022.2.5,Win32,59.97001499,,,,,,,,,,,,54,testing_3,zh2j,ai,zh2j_ai,zh2j_8_aijai.wav,zh2j_8_aijai.wav,,TRUE,FALSE,,,,,,,,,,,,,,j,0.9266,space,1.059,,,,,,,,0,57,57,53,1,,
6394001067969f8eeb01fc37,2023-06-16_19h36.00.139,phx_ver10,2022.2.5,Win32,59.97001499,,,,,,,,,,,,126,testing_3,sh2j,ai,sh2j_ai,sh2j_8_aijai.wav,sh2j_8_aijai.wav,,TRUE,FALSE,,,,,,,,,,,,,,j,0.3902,space,0.5838,,,,,,,,0,58,58,125,1,,
6394001067969f8eeb01fc37,2023-06-16_19h36.00.139,phx_ver10,2022.2.5,Win32,59.97001499,,,,,,,,,,,,87,testing_3,j2x,e,j2x_e,j2x_1_eje.wav,j2x_8_exe.wav,,FALSE,FALSE,,,,,,,,,,,,,,f,0.2501,space,0.4498,,,,,,,,0,59,59,86,1,,
6394001067969f8eeb01fc37,2023-06-16_19h36.00.139,phx_ver10,2022.2.5,Win32,59.97001499,,,,,,,,,,,,28,testing_3,zh2sh,a,zh2sh_a,zh2sh_8_asha.wav,zh2sh_1_azha.wav,,FALSE,FALSE,,,,,,,,,,,,,,f,0.3178,space,0.4998,,,,,,,,0,60,60,27,1,,
6394001067969f8eeb01fc37,2023-06-16_19h36.00.139,phx_ver10,2022.2.5,Win32,59.97001499,,,,,,,,,,,,5,testing_1,zh2x,e,zh2x_e,zh2x_1_ezhe.wav,zh2x_1_ezhe_copy.wav,,TRUE,TRUE,,,,,,,,,,,,,,f,0.3516,space,0.5578,,,,,,,,0,61,61,4,1,,
6394001067969f8eeb01fc37,2023-06-16_19h36.00.139,phx_ver10,2022.2.5,Win32,59.97001499,,,,,,,,,,,,109,testing_3,sh2x,e,sh2x_e,sh2x_1_eshe.wav,sh2x_1_eshe.wav,,TRUE,FALSE,,,,,,,,,,,,,,f,0.2457,space,0.4353,,,,,,,,0,62,62,108,1,,
6394001067969f8eeb01fc37,2023-06-16_19h36.00.139,phx_ver10,2022.2.5,Win32,59.97001499,,,,,,,,,,,,140,testing_3,sh2j,ei,sh2j_ei,sh2j_8_eijei.wav,sh2j_1_eishei.wav,,FALSE,FALSE,,,,,,,,,,,,,,j,0.4348,space,0.5669,,,,,,,,0,63,63,139,1,,
6394001067969f8eeb01fc37,2023-06-16_19h36.00.139,phx_ver10,2022.2.5,Win32,59.97001499,,,,,,,,,,,,75,testing_3,j2x,a,j2x_a,j2x_1_aja.wav,j2x_8_axa.wav,,FALSE,FALSE,,,,,,,,,,,,,,f,0.4344,space,0.5844,,,,,,,,0,64,64,74,1,,
6394001067969f8eeb01fc37,2023-06-16_19h36.00.139,phx_ver10,2022.2.5,Win32,59.97001499,,,,,,,,,,,,90,testing_3,j2x,ei,j2x_ei,j2x_8_eixei.wav,j2x_8_eixei.wav,,TRUE,FALSE,,,,,,,,,,,,,,j,0.2499,space,0.3999,,,,,,,,0,65,65,89,1,,
6394001067969f8eeb01fc37,2023-06-16_19h36.00.139,phx_ver10,2022.2.5,Win32,59.97001499,,,,,,,,,,,,105,testing_3,sh2x,au,sh2x_au,sh2x_1_aushau.wav,sh2x_1_aushau.wav,,TRUE,FALSE,,,,,,,,,,,,,,j,0.7346,space,0.8673,,,,,,,,0,66,66,104,1,,
6394001067969f8eeb01fc37,2023-06-16_19h36.00.139,phx_ver10,2022.2.5,Win32,59.97001499,,,,,,,,,,,,22,testing_2,zh2x,ei,zh2x_ei,zh2x_8_eixei.wav,zh2x_8_eixei.wav,,TRUE,FALSE,,,,,,,,,,,,,,j,0.3974,space,0.5672,,,,,,,,0,67,67,21,1,,
6394001067969f8eeb01fc37,2023-06-16_19h36.00.139,phx_ver10,2022.2.5,Win32,59.97001499,,,,,,,,,,,,63,testing_3,zh2j,e,zh2j_e,zh2j_1_ezhe.wav,zh2j_8_eje.wav,,FALSE,FALSE,,,,,,,,,,,,,,f,1.6783,space,1.8785,,,,,,,,0,68,68,62,1,,
6394001067969f8eeb01fc37,2023-06-16_19h36.00.139,phx_ver10,2022.2.5,Win32,59.97001499,,,,,,,,,,,,80,testing_3,j2x,ai,j2x_ai,j2x_8_aixai.wav,j2x_1_aijai.wav,,FALSE,FALSE,,,,,,,,,,,,,,j,0.6181,space,0.78,,,,,,,,0,69,69,79,1,,
6394001067969f8eeb01fc37,2023-06-16_19h36.00.139,phx_ver10,2022.2.5,Win32,59.97001499,,,,,,,,,,,,91,testing_3,j2x,ei,j2x_ei,j2x_1_eijei.wav,j2x_8_eixei.wav,,FALSE,FALSE,,,,,,,,,,,,,,f,0.9994,space,1.2128,,,,,,,,0,70,70,90,1,,
6394001067969f8eeb01fc37,2023-06-16_19h36.00.139,phx_ver10,2022.2.5,Win32,59.97001499,,,,,,,,,,,,97,testing_3,sh2x,a,sh2x_a,sh2x_1_asha.wav,sh2x_1_asha.wav,,TRUE,FALSE,,,,,,,,,,,,,,j,1.0508,space,1.2,,,,,,,,0,71,71,96,1,,
6394001067969f8eeb01fc37,2023-06-16_19h36.00.139,phx_ver10,2022.2.5,Win32,59.97001499,,,,,,,,,,,,2,testing_1,zh2x,a,zh2x_a,zh2x_8_axa.wav,zh2x_8_axa_copy.wav,,TRUE,TRUE,,,,,,,,,,,,,,j,0.5537,space,0.7538,,,,,,,,0,72,72,1,1,,
6394001067969f8eeb01fc37,2023-06-16_19h36.00.139,phx_ver10,2022.2.5,Win32,59.97001499,,,,,,,,,,,,121,testing_3,sh2j,a,sh2j_a,sh2j_1_asha.wav,sh2j_1_asha.wav,,TRUE,FALSE,,,,,,,,,,,,,,j,0.4269,space,0.7285,,,,,,,,0,73,73,120,1,,
6394001067969f8eeb01fc37,2023-06-16_19h36.00.139,phx_ver10,2022.2.5,Win32,59.97001499,,,,,,,,,,,,95,testing_3,j2x,i,j2x_i,j2x_1_iji.wav,j2x_8_ixi.wav,,FALSE,FALSE,,,,,,,,,,,,,,j,0.0499,space,0.3336,,,,,,,,0,74,74,94,1,,
6394001067969f8eeb01fc37,2023-06-16_19h36.00.139,phx_ver10,2022.2.5,Win32,59.97001499,,,,,,,,,,,,127,testing_3,sh2j,ai,sh2j_ai,sh2j_1_aishai.wav,sh2j_8_aijai.wav,,FALSE,FALSE,,,,,,,,,,,,,,j,0.6502,space,0.8515,,,,,,,,0,75,75,126,1,,
6394001067969f8eeb01fc37,2023-06-16_19h36.00.139,phx_ver10,2022.2.5,Win32,59.97001499,,,,,,,,,,,,59,testing_3,zh2j,au,zh2j_au,zh2j_1_auzhau.wav,zh2j_8_aujau.wav,,FALSE,FALSE,,,,,,,,,,,,,,j,0.9327,space,1.1162,,,,,,,,0,76,76,58,1,,
6394001067969f8eeb01fc37,2023-06-16_19h36.00.139,phx_ver10,2022.2.5,Win32,59.97001499,,,,,,,,,,,,103,testing_3,sh2x,ai,sh2x_ai,sh2x_1_aishai.wav,sh2x_8_aixai.wav,,FALSE,FALSE,,,,,,,,,,,,,,j,0.4959,space,0.695,,,,,,,,0,77,77,102,1,,
6394001067969f8eeb01fc37,2023-06-16_19h36.00.139,phx_ver10,2022.2.5,Win32,59.97001499,,,,,,,,,,,,60,testing_3,zh2j,au,zh2j_au,zh2j_8_aujau.wav,zh2j_1_auzhau.wav,,FALSE,FALSE,,,,,,,,,,,,,,j,0.7343,space,0.9177,,,,,,,,0,78,78,59,1,,
6394001067969f8eeb01fc37,2023-06-16_19h36.00.139,phx_ver10,2022.2.5,Win32,59.97001499,,,,,,,,,,,,55,testing_3,zh2j,ai,zh2j_ai,zh2j_1_aizhai.wav,zh2j_8_aijai.wav,,FALSE,FALSE,,,,,,,,,,,,,,j,0.5564,space,0.7508,,,,,,,,0,79,79,54,1,,
6394001067969f8eeb01fc37,2023-06-16_19h36.00.139,phx_ver10,2022.2.5,Win32,59.97001499,,,,,,,,,,,,141,testing_3,sh2j,i,sh2j_i,sh2j_1_ishi.wav,sh2j_1_ishi.wav,,TRUE,FALSE,,,,,,,,,,,,,,j,0.4391,space,0.6013,,,,,,,,0,80,80,140,1,,
6394001067969f8eeb01fc37,2023-06-16_19h36.00.139,phx_ver10,2022.2.5,Win32,59.97001499,,,,,,,,,,,,71,testing_3,zh2j,i,zh2j_i,zh2j_1_izhi.wav,zh2j_8_iji.wav,,FALSE,FALSE,,,,,,,,,,,,,,j,0.5169,space,0.7056,,,,,,,,0,81,81,70,1,,
6394001067969f8eeb01fc37,2023-06-16_19h36.00.139,phx_ver10,2022.2.5,Win32,59.97001499,,,,,,,,,,,,77,testing_3,j2x,ai,j2x_ai,j2x_1_aijai.wav,j2x_1_aijai.wav,,TRUE,FALSE,,,,,,,,,,,,,,f,1.5448,space,1.7167,,,,,,,,0,82,82,76,1,,
6394001067969f8eeb01fc37,2023-06-16_19h36.00.139,phx_ver10,2022.2.5,Win32,59.97001499,,,,,,,,,,,,85,testing_3,j2x,e,j2x_e,j2x_1_eje.wav,j2x_1_eje.wav,,TRUE,FALSE,,,,,,,,,,,,,,j,0.5602,space,0.7612,,,,,,,,0,83,83,84,1,,
6394001067969f8eeb01fc37,2023-06-16_19h36.00.139,phx_ver10,2022.2.5,Win32,59.97001499,,,,,,,,,,,,12,testing_1,zh2x,i,zh2x_i,zh2x_8_ixi.wav,zh2x_1_izhi.wav,,FALSE,TRUE,,,,,,,,,,,,,,j,0.4182,space,0.6343,,,,,,,,0,84,84,11,1,,
6394001067969f8eeb01fc37,2023-06-16_19h36.00.139,phx_ver10,2022.2.5,Win32,59.97001499,,,,,,,,,,,,131,testing_3,sh2j,au,sh2j_au,sh2j_1_aushau.wav,sh2j_8_aujau.wav,,FALSE,FALSE,,,,,,,,,,,,,,j,0.3834,space,0.5875,,,,,,,,0,85,85,130,1,,
6394001067969f8eeb01fc37,2023-06-16_19h36.00.139,phx_ver10,2022.2.5,Win32,59.97001499,,,,,,,,,,,,108,testing_3,sh2x,au,sh2x_au,sh2x_8_auxau.wav,sh2x_1_aushau.wav,,FALSE,FALSE,,,,,,,,,,,,,,j,0.1915,space,0.3845,,,,,,,,0,86,86,107,1,,
6394001067969f8eeb01fc37,2023-06-16_19h36.00.139,phx_ver10,2022.2.5,Win32,59.97001499,,,,,,,,,,,,4,testing_1,zh2x,a,zh2x_a,zh2x_8_axa.wav,zh2x_1_azha.wav,,FALSE,TRUE,,,,,,,,,,,,,,f,0.074,space,0.3338,,,,,,,,0,87,87,3,1,,
6394001067969f8eeb01fc37,2023-06-16_19h36.00.139,phx_ver10,2022.2.5,Win32,59.97001499,,,,,,,,,,,,132,testing_3,sh2j,au,sh2j_au,sh2j_8_aujau.wav,sh2j_1_aushau.wav,,FALSE,FALSE,,,,,,,,,,,,,,j,0.2682,space,0.485,,,,,,,,0,88,88,131,1,,
6394001067969f8eeb01fc37,2023-06-16_19h36.00.139,phx_ver10,2022.2.5,Win32,59.97001499,,,,,,,,,,,,46,testing_3,zh2sh,i,zh2sh_i,zh2sh_8_ishi.wav,zh2sh_8_ishi.wav,,TRUE,FALSE,,,,,,,,,,,,,,j,0.1673,space,0.4504,,,,,,,,0,89,89,45,1,,
6394001067969f8eeb01fc37,2023-06-16_19h36.00.139,phx_ver10,2022.2.5,Win32,59.97001499,,,,,,,,,,,,38,testing_3,zh2sh,e,zh2sh_e,zh2sh_8_eshe.wav,zh2sh_8_eshe.wav,,TRUE,FALSE,,,,,,,,,,,,,,f,0.1235,space,0.3904,,,,,,,,0,90,90,37,1,,
6394001067969f8eeb01fc37,2023-06-16_19h36.00.139,phx_ver10,2022.2.5,Win32,59.97001499,,,,,,,,,,,,24,testing_2,zh2x,ei,zh2x_ei,zh2x_8_eixei.wav,zh2x_1_eizhei.wav,,FALSE,FALSE,,,,,,,,,,,,,,j,0.0504,space,0.4169,,,,,,,,0,91,91,23,1,,
6394001067969f8eeb01fc37,2023-06-16_19h36.00.139,phx_ver10,2022.2.5,Win32,59.97001499,,,,,,,,,,,,8,testing_1,zh2x,e,zh2x_e,zh2x_8_exe.wav,zh2x_1_ezhe.wav,,FALSE,TRUE,,,,,,,,,,,,,,f,1.1836,space,1.3666,,,,,,,,0,92,92,7,1,,
6394001067969f8eeb01fc37,2023-06-16_19h36.00.139,phx_ver10,2022.2.5,Win32,59.97001499,,,,,,,,,,,,70,testing_3,zh2j,i,zh2j_i,zh2j_8_iji.wav,zh2j_8_iji.wav,,TRUE,FALSE,,,,,,,,,,,,,,j,0.4173,space,0.5841,,,,,,,,0,93,93,69,1,,
6394001067969f8eeb01fc37,2023-06-16_19h36.00.139,phx_ver10,2022.2.5,Win32,59.97001499,,,,,,,,,,,,136,testing_3,sh2j,e,sh2j_e,sh2j_8_eje.wav,sh2j_1_eshe.wav,,FALSE,FALSE,,,,,,,,,,,,,,f,1.6013,space,1.7145,,,,,,,,0,94,94,135,1,,
6394001067969f8eeb01fc37,2023-06-16_19h36.00.139,phx_ver10,2022.2.5,Win32,59.97001499,,,,,,,,,,,,26,testing_3,zh2sh,a,zh2sh_a,zh2sh_8_asha.wav,zh2sh_8_asha.wav,,TRUE,FALSE,,,,,,,,,,,,,,j,0.0843,space,0.5193,,,,,,,,0,95,95,25,1,,
6394001067969f8eeb01fc37,2023-06-16_19h36.00.139,phx_ver10,2022.2.5,Win32,59.97001499,,,,,,,,,,,,84,testing_3,j2x,au,j2x_au,j2x_8_auxau.wav,j2x_1_aujau.wav,,FALSE,FALSE,,,,,,,,,,,,,,j,0.4085,space,0.6677,,,,,,,,0,96,96,83,1,,
6394001067969f8eeb01fc37,2023-06-16_19h36.00.139,phx_ver10,2022.2.5,Win32,59.97001499,,,,,,,,,,,,122,testing_3,sh2j,a,sh2j_a,sh2j_8_aja.wav,sh2j_8_aja.wav,,TRUE,FALSE,,,,,,,,,,,,,,j,0.4183,space,0.6173,,,,,,,,0,97,97,121,1,,
6394001067969f8eeb01fc37,2023-06-16_19h36.00.139,phx_ver10,2022.2.5,Win32,59.97001499,,,,,,,,,,,,79,testing_3,j2x,ai,j2x_ai,j2x_1_aijai.wav,j2x_8_aixai.wav,,FALSE,FALSE,,,,,,,,,,,,,,j,0.455,space,0.5331,,,,,,,,0,98,98,78,1,,
6394001067969f8eeb01fc37,2023-06-16_19h36.00.139,phx_ver10,2022.2.5,Win32,59.97001499,,,,,,,,,,,,9,testing_1,zh2x,i,zh2x_i,zh2x_1_izhi.wav,zh2x_1_izhi_copy.wav,,TRUE,TRUE,,,,,,,,,,,,,,j,0.2811,space,0.4633,,,,,,,,0,99,99,8,1,,
6394001067969f8eeb01fc37,2023-06-16_19h36.00.139,phx_ver10,2022.2.5,Win32,59.97001499,,,,,,,,,,,,107,testing_3,sh2x,au,sh2x_au,sh2x_1_aushau.wav,sh2x_8_auxau.wav,,FALSE,FALSE,,,,,,,,,,,,,,j,0.3845,space,0.6567,,,,,,,,0,100,100,106,1,,
6394001067969f8eeb01fc37,2023-06-16_19h36.00.139,phx_ver10,2022.2.5,Win32,59.97001499,,,,,,,,,,,,104,testing_3,sh2x,ai,sh2x_ai,sh2x_8_aixai.wav,sh2x_1_aishai.wav,,FALSE,FALSE,,,,,,,,,,,,,,j,0.6482,space,0.8844,,,,,,,,0,101,101,103,1,,
6394001067969f8eeb01fc37,2023-06-16_19h36.00.139,phx_ver10,2022.2.5,Win32,59.97001499,,,,,,,,,,,,96,testing_3,j2x,i,j2x_i,j2x_8_ixi.wav,j2x_1_iji.wav,,FALSE,FALSE,,,,,,,,,,,,,,j,0.4181,space,0.6343,,,,,,,,0,102,102,95,1,,
6394001067969f8eeb01fc37,2023-06-16_19h36.00.139,phx_ver10,2022.2.5,Win32,59.97001499,,,,,,,,,,,,64,testing_3,zh2j,e,zh2j_e,zh2j_8_eje.wav,zh2j_1_ezhe.wav,,FALSE,FALSE,,,,,,,,,,,,,,f,0.1006,space,0.4005,,,,,,,,0,103,103,63,1,,
6394001067969f8eeb01fc37,2023-06-16_19h36.00.139,phx_ver10,2022.2.5,Win32,59.97001499,,,,,,,,,,,,66,testing_3,zh2j,ei,zh2j_ei,zh2j_8_eijei.wav,zh2j_8_eijei.wav,,TRUE,FALSE,,,,,,,,,,,,,,j,0.2338,space,0.4508,,,,,,,,0,104,104,65,1,,
6394001067969f8eeb01fc37,2023-06-16_19h36.00.139,phx_ver10,2022.2.5,Win32,59.97001499,,,,,,,,,,,,142,testing_3,sh2j,i,sh2j_i,sh2j_8_iji.wav,sh2j_8_iji.wav,,TRUE,FALSE,,,,,,,,,,,,,,j,0.55,space,0.7558,,,,,,,,0,105,105,141,1,,
6394001067969f8eeb01fc37,2023-06-16_19h36.00.139,phx_ver10,2022.2.5,Win32,59.97001499,,,,,,,,,,,,39,testing_3,zh2sh,e,zh2sh_e,zh2sh_1_ezhe.wav,zh2sh_8_eshe.wav,,FALSE,FALSE,,,,,,,,,,,,,,f,0.1503,space,0.4336,,,,,,,,0,106,106,38,1,,
6394001067969f8eeb01fc37,2023-06-16_19h36.00.139,phx_ver10,2022.2.5,Win32,59.97001499,,,,,,,,,,,,128,testing_3,sh2j,ai,sh2j_ai,sh2j_8_aijai.wav,sh2j_1_aishai.wav,,FALSE,FALSE,,,,,,,,,,,,,,j,0.2395,space,0.4215,,,,,,,,0,107,107,127,1,,
6394001067969f8eeb01fc37,2023-06-16_19h36.00.139,phx_ver10,2022.2.5,Win32,59.97001499,,,,,,,,,,,,119,testing_3,sh2x,i,sh2x_i,sh2x_1_ishi.wav,sh2x_8_ixi.wav,,FALSE,FALSE,,,,,,,,,,,,,,j,1.6162,space,1.8991,,,,,,,,0,108,108,118,1,,
6394001067969f8eeb01fc37,2023-06-16_19h36.00.139,phx_ver10,2022.2.5,Win32,59.97001499,,,,,,,,,,,,99,testing_3,sh2x,a,sh2x_a,sh2x_1_asha.wav,sh2x_8_axa.wav,,FALSE,FALSE,,,,,,,,,,,,,,j,1.1514,space,1.3863,,,,,,,,0,109,109,98,1,,
6394001067969f8eeb01fc37,2023-06-16_19h36.00.139,phx_ver10,2022.2.5,Win32,59.97001499,,,,,,,,,,,,18,testing_2,zh2x,au,zh2x_au,zh2x_8_auxau.wav,zh2x_8_auxau.wav,,TRUE,FALSE,,,,,,,,,,,,,,j,1.5195,space,1.701,,,,,,,,0,110,110,17,1,,
6394001067969f8eeb01fc37,2023-06-16_19h36.00.139,phx_ver10,2022.2.5,Win32,59.97001499,,,,,,,,,,,,36,testing_3,zh2sh,au,zh2sh_au,zh2sh_8_aushau.wav,zh2sh_1_auzhau.wav,,FALSE,FALSE,,,,,,,,,,,,,,j,0.6841,space,0.9036,,,,,,,,0,111,111,35,1,,
6394001067969f8eeb01fc37,2023-06-16_19h36.00.139,phx_ver10,2022.2.5,Win32,59.97001499,,,,,,,,,,,,82,testing_3,j2x,au,j2x_au,j2x_8_auxau.wav,j2x_8_auxau.wav,,TRUE,FALSE,,,,,,,,,,,,,,j,0.9675,space,1.1664,,,,,,,,0,112,112,81,1,,
6394001067969f8eeb01fc37,2023-06-16_19h36.00.139,phx_ver10,2022.2.5,Win32,59.97001499,,,,,,,,,,,,72,testing_3,zh2j,i,zh2j_i,zh2j_8_iji.wav,zh2j_1_izhi.wav,,FALSE,FALSE,,,,,,,,,,,,,,j,0.8283,space,1.0451,,,,,,,,0,113,113,71,1,,
6394001067969f8eeb01fc37,2023-06-16_19h36.00.139,phx_ver10,2022.2.5,Win32,59.97001499,,,,,,,,,,,,41,testing_3,zh2sh,ei,zh2sh_ei,zh2sh_1_eizhei.wav,zh2sh_1_eizhei.wav,,TRUE,FALSE,,,,,,,,,,,,,,j,0.7879,space,3.2739,,,,,,,,0,114,114,40,1,,
6394001067969f8eeb01fc37,2023-06-16_19h36.00.139,phx_ver10,2022.2.5,Win32,59.97001499,,,,,,,,,,,,94,testing_3,j2x,i,j2x_i,j2x_8_ixi.wav,j2x_8_ixi.wav,,TRUE,FALSE,,,,,,,,,,,,,,j,0.7507,space,0.9858,,,,,,,,0,115,115,93,1,,
6394001067969f8eeb01fc37,2023-06-16_19h36.00.139,phx_ver10,2022.2.5,Win32,59.97001499,,,,,,,,,,,,32,testing_3,zh2sh,ai,zh2sh_ai,zh2sh_8_aishai.wav,zh2sh_1_aizhai.wav,,FALSE,FALSE,,,,,,,,,,,,,,j,1.3511,space,1.5219,,,,,,,,0,116,116,31,1,,
6394001067969f8eeb01fc37,2023-06-16_19h36.00.139,phx_ver10,2022.2.5,Win32,59.97001499,,,,,,,,,,,,74,testing_3,j2x,a,j2x_a,j2x_8_axa.wav,j2x_8_axa.wav,,TRUE,FALSE,,,,,,,,,,,,,,j,1.0034,space,1.2029,,,,,,,,0,117,117,73,1,,
6394001067969f8eeb01fc37,2023-06-16_19h36.00.139,phx_ver10,2022.2.5,Win32,59.97001499,,,,,,,,,,,,17,testing_2,zh2x,au,zh2x_au,zh2x_1_auzhau.wav,zh2x_1_auzhau.wav,,TRUE,FALSE,,,,,,,,,,,,,,j,0.5338,space,0.7337,,,,,,,,0,118,118,16,1,,
6394001067969f8eeb01fc37,2023-06-16_19h36.00.139,phx_ver10,2022.2.5,Win32,59.97001499,,,,,,,,,,,,20,testing_2,zh2x,au,zh2x_au,zh2x_8_auxau.wav,zh2x_1_auzhau.wav,,FALSE,FALSE,,,,,,,,,,,,,,j,0.4032,space,0.6203,,,,,,,,0,119,119,19,1,,
6394001067969f8eeb01fc37,2023-06-16_19h36.00.139,phx_ver10,2022.2.5,Win32,59.97001499,,,,,,,,,,,,19,testing_2,zh2x,au,zh2x_au,zh2x_1_auzhau.wav,zh2x_8_auxau.wav,,FALSE,FALSE,,,,,,,,,,,,,,j,0.6696,space,0.8738,,,,,,,,0,120,120,18,1,,
6394001067969f8eeb01fc37,2023-06-16_19h36.00.139,phx_ver10,2022.2.5,Win32,59.97001499,,,,,,,,,,,,61,testing_3,zh2j,e,zh2j_e,zh2j_1_ezhe.wav,zh2j_1_ezhe.wav,,TRUE,FALSE,,,,,,,,,,,,,,j,0.3176,space,0.525,,,,,,,,0,121,121,60,1,,
6394001067969f8eeb01fc37,2023-06-16_19h36.00.139,phx_ver10,2022.2.5,Win32,59.97001499,,,,,,,,,,,,10,testing_1,zh2x,i,zh2x_i,zh2x_8_ixi.wav,zh2x_8_ixi_copy.wav,,TRUE,TRUE,,,,,,,,,,,,,,j,0.7667,space,0.9693,,,,,,,,0,122,122,9,1,,
6394001067969f8eeb01fc37,2023-06-16_19h36.00.139,phx_ver10,2022.2.5,Win32,59.97001499,,,,,,,,,,,,92,testing_3,j2x,ei,j2x_ei,j2x_8_eixei.wav,j2x_1_eijei.wav,,FALSE,FALSE,,,,,,,,,,,,,,f,1.8671,space,1.9844,,,,,,,,0,123,123,91,1,,
6394001067969f8eeb01fc37,2023-06-16_19h36.00.139,phx_ver10,2022.2.5,Win32,59.97001499,,,,,,,,,,,,29,testing_3,zh2sh,ai,zh2sh_ai,zh2sh_1_aizhai.wav,zh2sh_1_aizhai.wav,,TRUE,FALSE,,,,,,,,,,,,,,j,0.8957,space,1.0959,,,,,,,,0,124,124,28,1,,
6394001067969f8eeb01fc37,2023-06-16_19h36.00.139,phx_ver10,2022.2.5,Win32,59.97001499,,,,,,,,,,,,120,testing_3,sh2x,i,sh2x_i,sh2x_8_ixi.wav,sh2x_1_ishi.wav,,FALSE,FALSE,,,,,,,,,,,,,,j,0.8564,space,1.0809,,,,,,,,0,125,125,119,1,,
6394001067969f8eeb01fc37,2023-06-16_19h36.00.139,phx_ver10,2022.2.5,Win32,59.97001499,,,,,,,,,,,,6,testing_1,zh2x,e,zh2x_e,zh2x_8_exe.wav,zh2x_8_exe_copy.wav,,TRUE,TRUE,,,,,,,,,,,,,,f,1.0496,space,1.217,,,,,,,,0,126,126,5,1,,
6394001067969f8eeb01fc37,2023-06-16_19h36.00.139,phx_ver10,2022.2.5,Win32,59.97001499,,,,,,,,,,,,88,testing_3,j2x,e,j2x_e,j2x_8_exe.wav,j2x_1_eje.wav,,FALSE,FALSE,,,,,,,,,,,,,,f,0.7089,space,0.9506,,,,,,,,0,127,127,87,1,,
6394001067969f8eeb01fc37,2023-06-16_19h36.00.139,phx_ver10,2022.2.5,Win32,59.97001499,,,,,,,,,,,,106,testing_3,sh2x,au,sh2x_au,sh2x_8_auxau.wav,sh2x_8_auxau.wav,,TRUE,FALSE,,,,,,,,,,,,,,j,1.2344,space,1.4021,,,,,,,,0,128,128,105,1,,
6394001067969f8eeb01fc37,2023-06-16_19h36.00.139,phx_ver10,2022.2.5,Win32,59.97001499,,,,,,,,,,,,135,testing_3,sh2j,e,sh2j_e,sh2j_1_eshe.wav,sh2j_8_eje.wav,,FALSE,FALSE,,,,,,,,,,,,,,j,0.484,space,0.6731,,,,,,,,0,129,129,134,1,,
6394001067969f8eeb01fc37,2023-06-16_19h36.00.139,phx_ver10,2022.2.5,Win32,59.97001499,,,,,,,,,,,,89,testing_3,j2x,ei,j2x_ei,j2x_1_eijei.wav,j2x_1_eijei.wav,,TRUE,FALSE,,,,,,,,,,,,,,j,0.7731,space,0.9666,,,,,,,,0,130,130,88,1,,
6394001067969f8eeb01fc37,2023-06-16_19h36.00.139,phx_ver10,2022.2.5,Win32,59.97001499,,,,,,,,,,,,37,testing_3,zh2sh,e,zh2sh_e,zh2sh_1_ezhe.wav,zh2sh_1_ezhe.wav,,TRUE,FALSE,,,,,,,,,,,,,,f,0.4842,space,0.6576,,,,,,,,0,131,131,36,1,,
6394001067969f8eeb01fc37,2023-06-16_19h36.00.139,phx_ver10,2022.2.5,Win32,59.97001499,,,,,,,,,,,,50,testing_3,zh2j,a,zh2j_a,zh2j_8_aja.wav,zh2j_8_aja.wav,,TRUE,FALSE,,,,,,,,,,,,,,j,0.7343,space,0.9181,,,,,,,,0,132,132,49,1,,
6394001067969f8eeb01fc37,2023-06-16_19h36.00.139,phx_ver10,2022.2.5,Win32,59.97001499,,,,,,,,,,,,57,testing_3,zh2j,au,zh2j_au,zh2j_1_auzhau.wav,zh2j_1_auzhau.wav,,TRUE,FALSE,,,,,,,,,,,,,,j,1.101,space,1.269,,,,,,,,0,133,133,56,1,,
6394001067969f8eeb01fc37,2023-06-16_19h36.00.139,phx_ver10,2022.2.5,Win32,59.97001499,,,,,,,,,,,,124,testing_3,sh2j,a,sh2j_a,sh2j_8_aja.wav,sh2j_1_asha.wav,,FALSE,FALSE,,,,,,,,,,,,,,j,1.1874,space,1.4193,,,,,,,,0,134,134,123,1,,
6394001067969f8eeb01fc37,2023-06-16_19h36.00.139,phx_ver10,2022.2.5,Win32,59.97001499,,,,,,,,,,,,42,testing_3,zh2sh,ei,zh2sh_ei,zh2sh_8_eishei.wav,zh2sh_8_eishei.wav,,TRUE,FALSE,,,,,,,,,,,,,,j,1.0259,space,1.2192,,,,,,,,0,135,135,41,1,,
6394001067969f8eeb01fc37,2023-06-16_19h36.00.139,phx_ver10,2022.2.5,Win32,59.97001499,,,,,,,,,,,,113,testing_3,sh2x,ei,sh2x_ei,sh2x_1_eishei.wav,sh2x_1_eishei.wav,,TRUE,FALSE,,,,,,,,,,,,,,j,2.4066,space,2.5863,,,,,,,,0,136,136,112,1,,
6394001067969f8eeb01fc37,2023-06-16_19h36.00.139,phx_ver10,2022.2.5,Win32,59.97001499,,,,,,,,,,,,83,testing_3,j2x,au,j2x_au,j2x_1_aujau.wav,j2x_8_auxau.wav,,FALSE,FALSE,,,,,,,,,,,,,,j,0.8338,space,1.1007,,,,,,,,0,137,137,82,1,,
6394001067969f8eeb01fc37,2023-06-16_19h36.00.139,phx_ver10,2022.2.5,Win32,59.97001499,,,,,,,,,,,,62,testing_3,zh2j,e,zh2j_e,zh2j_8_eje.wav,zh2j_8_eje.wav,,TRUE,FALSE,,,,,,,,,,,,,,j,1.618,space,2.5169,,,,,,,,0,138,138,61,1,,
6394001067969f8eeb01fc37,2023-06-16_19h36.00.139,phx_ver10,2022.2.5,Win32,59.97001499,,,,,,,,,,,,3,testing_1,zh2x,a,zh2x_a,zh2x_1_azha.wav,zh2x_8_axa.wav,,FALSE,TRUE,,,,,,,,,,,,,,f,0.3343,space,0.6857,,,,,,,,0,139,139,2,1,,
6394001067969f8eeb01fc37,2023-06-16_19h36.00.139,phx_ver10,2022.2.5,Win32,59.97001499,,,,,,,,,,,,49,testing_3,zh2j,a,zh2j_a,zh2j_1_azha.wav,zh2j_1_azha.wav,,TRUE,FALSE,,,,,,,,,,,,,,f,0.284,space,0.5851,,,,,,,,0,140,140,48,1,,
6394001067969f8eeb01fc37,2023-06-16_19h36.00.139,phx_ver10,2022.2.5,Win32,59.97001499,,,,,,,,,,,,21,testing_2,zh2x,ei,zh2x_ei,zh2x_1_eizhei.wav,zh2x_1_eizhei.wav,,TRUE,FALSE,,,,,,,,,,,,,,j,2.9477,space,3.4125,,,,,,,,0,141,141,20,1,,
6394001067969f8eeb01fc37,2023-06-16_19h36.00.139,phx_ver10,2022.2.5,Win32,59.97001499,,,,,,,,,,,,137,testing_3,sh2j,ei,sh2j_ei,sh2j_1_eishei.wav,sh2j_1_eishei.wav,,TRUE,FALSE,,,,,,,,,,,,,,j,0.4342,space,0.6679,,,,,,,,0,142,142,136,1,,
6394001067969f8eeb01fc37,2023-06-16_19h36.00.139,phx_ver10,2022.2.5,Win32,59.97001499,,,,,,,,,,,,67,testing_3,zh2j,ei,zh2j_ei,zh2j_1_eizhei.wav,zh2j_8_eijei.wav,,FALSE,FALSE,,,,,,,,,,,,,,j,0.8346,space,1.1008,,,,,,,,0,143,143,66,1,,
6394001067969f8eeb01fc37,2023-06-16_19h36.00.139,phx_ver10,2022.2.5,Win32,59.97001499,,,,,,,,,,,,,,,,,,,,,,,,,,,,,,,,,,,,,,,,,,,,,,,,,,,space,4.6492
