participant,date,expName,psychopyVersion,OS,frameRate,space_1.keys,space_1.rt,space_2.keys,space_2.rt,space_train.keys,space_train.rt,training.thisRepN,training.thisTrialN,training.thisN,training.thisIndex,training.ran,token_id,task,continuum,vowel,series,sound_1,sound_2,img,same,trained,FJ_attn.keys,FJ_attn.rt,space_attn.keys,space_attn.rt,if_attn_test.thisRepN,if_attn_test.thisTrialN,if_attn_test.thisN,if_attn_test.thisIndex,if_attn_test.ran,space_trans_1.keys,space_trans_1.rt,space_trans_11.keys,space_trans_11.rt,FJ_test.keys,FJ_test.rt,space_test.keys,space_test.rt,testing_pre.thisRepN,testing_pre.thisTrialN,testing_pre.thisN,testing_pre.thisIndex,testing_pre.ran,space_trans_2.keys,space_trans_2.rt,testing_all.thisRepN,testing_all.thisTrialN,testing_all.thisN,testing_all.thisIndex,testing_all.ran,space_ending.keys,space_ending.rt
63beebaa4c5884797ff00a98,2023-06-16_10h23.23.311,phx_ver10,2022.2.5,Win32,60.06006006,,,,,,,,,,,,,,,,,,,,,,,,,,,,,,,,,,,,,,,,,,,,,,,,,,,,
63beebaa4c5884797ff00a98,2023-06-16_10h23.23.311,phx_ver10,2022.2.5,Win32,60.06006006,space,341.0458,,,,,,,,,,,,,,,,,,,,,,,,,,,,,,,,,,,,,,,,,,,,,,,,,,
63beebaa4c5884797ff00a98,2023-06-16_10h23.23.311,phx_ver10,2022.2.5,Win32,60.06006006,,,space,1.534,,,,,,,,,,,,,,,,,,,,,,,,,,,,,,,,,,,,,,,,,,,,,,,,
63beebaa4c5884797ff00a98,2023-06-16_10h23.23.311,phx_ver10,2022.2.5,Win32,60.06006006,,,,,space,4.8037,0,0,0,19,1,20,training,zh2x,e,zh2x_e,zh2x_2_ezhe.wav,,ezhe.jpg,,,,,,,,,,,,,,,,,,,,,,,,,,,,,,,,,
63beebaa4c5884797ff00a98,2023-06-16_10h23.23.311,phx_ver10,2022.2.5,Win32,60.06006006,,,,,space,1.5985,0,1,1,0,1,1,training,zh2x,a,zh2x_a,zh2x_1_azha.wav,,azha.jpg,,,,,,,,,,,,,,,,,,,,,,,,,,,,,,,,,
63beebaa4c5884797ff00a98,2023-06-16_10h23.23.311,phx_ver10,2022.2.5,Win32,60.06006006,,,,,space,1.2172,0,2,2,33,1,34,training,zh2x,i,zh2x_i,zh2x_2_izhi.wav,,izhi.jpg,,,,,,,,,,,,,,,,,,,,,,,,,,,,,,,,,
63beebaa4c5884797ff00a98,2023-06-16_10h23.23.311,phx_ver10,2022.2.5,Win32,60.06006006,,,,,space,1.2373,0,3,3,8,1,9,training,zh2x,a,zh2x_a,zh2x_5_axa.wav,,axa.jpg,,,,,,,,,,,,,,,,,,,,,,,,,,,,,,,,,
63beebaa4c5884797ff00a98,2023-06-16_10h23.23.311,phx_ver10,2022.2.5,Win32,60.06006006,,,,,space,1.2393,0,4,4,2,1,3,training,zh2x,a,zh2x_a,zh2x_2_azha.wav,,azha.jpg,,,,,,,,,,,,,,,,,,,,,,,,,,,,,,,,,
63beebaa4c5884797ff00a98,2023-06-16_10h23.23.311,phx_ver10,2022.2.5,Win32,60.06006006,,,,,space,0.9242,0,5,5,20,1,21,training,zh2x,e,zh2x_e,zh2x_2_ezhe.wav,,ezhe.jpg,,,,,,,,,,,,,,,,,,,,,,,,,,,,,,,,,
63beebaa4c5884797ff00a98,2023-06-16_10h23.23.311,phx_ver10,2022.2.5,Win32,60.06006006,,,,,,,,,,,,,attn_test,,,,zh2x_8_exe.wav,zh2x_8_axa.wav,axa.jpg,RIGHT,,f,2.5165,space,4.1722,0,0,0,0,1,,,,,,,,,,,,,,,,,,,,,,
63beebaa4c5884797ff00a98,2023-06-16_10h23.23.311,phx_ver10,2022.2.5,Win32,60.06006006,,,,,space,1.5342,0,6,6,31,1,32,training,zh2x,e,zh2x_e,zh2x_8_exe.wav,,exe.jpg,,,,,,,,,,,,,,,,,,,,,,,,,,,,,,,,,
63beebaa4c5884797ff00a98,2023-06-16_10h23.23.311,phx_ver10,2022.2.5,Win32,60.06006006,,,,,space,0.736,0,7,7,18,1,19,training,zh2x,e,zh2x_e,zh2x_2_ezhe.wav,,ezhe.jpg,,,,,,,,,,,,,,,,,,,,,,,,,,,,,,,,,
63beebaa4c5884797ff00a98,2023-06-16_10h23.23.311,phx_ver10,2022.2.5,Win32,60.06006006,,,,,space,0.7836,0,8,8,7,1,8,training,zh2x,a,zh2x_a,zh2x_4_azha.wav,,azha.jpg,,,,,,,,,,,,,,,,,,,,,,,,,,,,,,,,,
63beebaa4c5884797ff00a98,2023-06-16_10h23.23.311,phx_ver10,2022.2.5,Win32,60.06006006,,,,,space,1.0146,0,9,9,26,1,27,training,zh2x,e,zh2x_e,zh2x_6_exe.wav,,exe.jpg,,,,,,,,,,,,,,,,,,,,,,,,,,,,,,,,,
63beebaa4c5884797ff00a98,2023-06-16_10h23.23.311,phx_ver10,2022.2.5,Win32,60.06006006,,,,,space,0.7673,0,10,10,29,1,30,training,zh2x,e,zh2x_e,zh2x_7_exe.wav,,exe.jpg,,,,,,,,,,,,,,,,,,,,,,,,,,,,,,,,,
63beebaa4c5884797ff00a98,2023-06-16_10h23.23.311,phx_ver10,2022.2.5,Win32,60.06006006,,,,,space,1.4506,0,11,11,38,1,39,training,zh2x,i,zh2x_i,zh2x_3_izhi.wav,,izhi.jpg,,,,,,,,,,,,,,,,,,,,,,,,,,,,,,,,,
63beebaa4c5884797ff00a98,2023-06-16_10h23.23.311,phx_ver10,2022.2.5,Win32,60.06006006,,,,,,,,,,,,,attn_test,,,,zh2x_8_exe.wav,zh2x_1_izhi.wav,izhi.jpg,RIGHT,,j,0.017,space,1.1005,0,0,0,0,1,,,,,,,,,,,,,,,,,,,,,,
63beebaa4c5884797ff00a98,2023-06-16_10h23.23.311,phx_ver10,2022.2.5,Win32,60.06006006,,,,,space,0.7171,0,12,12,6,1,7,training,zh2x,a,zh2x_a,zh2x_3_azha.wav,,azha.jpg,,,,,,,,,,,,,,,,,,,,,,,,,,,,,,,,,
63beebaa4c5884797ff00a98,2023-06-16_10h23.23.311,phx_ver10,2022.2.5,Win32,60.06006006,,,,,space,1.3811,0,13,13,46,1,47,training,zh2x,i,zh2x_i,zh2x_7_ixi.wav,,ixi.jpg,,,,,,,,,,,,,,,,,,,,,,,,,,,,,,,,,
63beebaa4c5884797ff00a98,2023-06-16_10h23.23.311,phx_ver10,2022.2.5,Win32,60.06006006,,,,,space,0.7508,0,14,14,17,1,18,training,zh2x,e,zh2x_e,zh2x_2_ezhe.wav,,ezhe.jpg,,,,,,,,,,,,,,,,,,,,,,,,,,,,,,,,,
63beebaa4c5884797ff00a98,2023-06-16_10h23.23.311,phx_ver10,2022.2.5,Win32,60.06006006,,,,,space,0.3174,0,15,15,24,1,25,training,zh2x,e,zh2x_e,zh2x_5_exe.wav,,exe.jpg,,,,,,,,,,,,,,,,,,,,,,,,,,,,,,,,,
63beebaa4c5884797ff00a98,2023-06-16_10h23.23.311,phx_ver10,2022.2.5,Win32,60.06006006,,,,,space,0.5704,0,16,16,34,1,35,training,zh2x,i,zh2x_i,zh2x_2_izhi.wav,,izhi.jpg,,,,,,,,,,,,,,,,,,,,,,,,,,,,,,,,,
63beebaa4c5884797ff00a98,2023-06-16_10h23.23.311,phx_ver10,2022.2.5,Win32,60.06006006,,,,,space,0.3346,0,17,17,39,1,40,training,zh2x,i,zh2x_i,zh2x_4_izhi.wav,,izhi.jpg,,,,,,,,,,,,,,,,,,,,,,,,,,,,,,,,,
63beebaa4c5884797ff00a98,2023-06-16_10h23.23.311,phx_ver10,2022.2.5,Win32,60.06006006,,,,,,,,,,,,,attn_test,,,,zh2x_8_ixi.wav,zh2x_1_azha.wav,azha.jpg,RIGHT,,j,2.176,space,3.2511,0,0,0,0,1,,,,,,,,,,,,,,,,,,,,,,
63beebaa4c5884797ff00a98,2023-06-16_10h23.23.311,phx_ver10,2022.2.5,Win32,60.06006006,,,,,space,0.6338,0,18,18,36,1,37,training,zh2x,i,zh2x_i,zh2x_2_izhi.wav,,izhi.jpg,,,,,,,,,,,,,,,,,,,,,,,,,,,,,,,,,
63beebaa4c5884797ff00a98,2023-06-16_10h23.23.311,phx_ver10,2022.2.5,Win32,60.06006006,,,,,space,0.4716,0,19,19,47,1,48,training,zh2x,i,zh2x_i,zh2x_8_ixi.wav,,ixi.jpg,,,,,,,,,,,,,,,,,,,,,,,,,,,,,,,,,
63beebaa4c5884797ff00a98,2023-06-16_10h23.23.311,phx_ver10,2022.2.5,Win32,60.06006006,,,,,space,0.672,0,20,20,5,1,6,training,zh2x,a,zh2x_a,zh2x_3_azha.wav,,azha.jpg,,,,,,,,,,,,,,,,,,,,,,,,,,,,,,,,,
63beebaa4c5884797ff00a98,2023-06-16_10h23.23.311,phx_ver10,2022.2.5,Win32,60.06006006,,,,,space,0.084,0,21,21,14,1,15,training,zh2x,a,zh2x_a,zh2x_7_axa.wav,,axa.jpg,,,,,,,,,,,,,,,,,,,,,,,,,,,,,,,,,
63beebaa4c5884797ff00a98,2023-06-16_10h23.23.311,phx_ver10,2022.2.5,Win32,60.06006006,,,,,space,0.5842,0,22,22,25,1,26,training,zh2x,e,zh2x_e,zh2x_6_exe.wav,,exe.jpg,,,,,,,,,,,,,,,,,,,,,,,,,,,,,,,,,
63beebaa4c5884797ff00a98,2023-06-16_10h23.23.311,phx_ver10,2022.2.5,Win32,60.06006006,,,,,space,0.2143,0,23,23,44,1,45,training,zh2x,i,zh2x_i,zh2x_7_ixi.wav,,ixi.jpg,,,,,,,,,,,,,,,,,,,,,,,,,,,,,,,,,
63beebaa4c5884797ff00a98,2023-06-16_10h23.23.311,phx_ver10,2022.2.5,Win32,60.06006006,,,,,,,,,,,,,attn_test,,,,zh2x_1_azha.wav,zh2x_8_axa.wav,axa.jpg,RIGHT,,f,0.9835,space,1.5507,0,0,0,0,1,,,,,,,,,,,,,,,,,,,,,,
63beebaa4c5884797ff00a98,2023-06-16_10h23.23.311,phx_ver10,2022.2.5,Win32,60.06006006,,,,,space,0.8338,0,24,24,21,1,22,training,zh2x,e,zh2x_e,zh2x_3_ezhe.wav,,ezhe.jpg,,,,,,,,,,,,,,,,,,,,,,,,,,,,,,,,,
63beebaa4c5884797ff00a98,2023-06-16_10h23.23.311,phx_ver10,2022.2.5,Win32,60.06006006,,,,,space,0.7102,0,25,25,1,1,2,training,zh2x,a,zh2x_a,zh2x_2_azha.wav,,azha.jpg,,,,,,,,,,,,,,,,,,,,,,,,,,,,,,,,,
63beebaa4c5884797ff00a98,2023-06-16_10h23.23.311,phx_ver10,2022.2.5,Win32,60.06006006,,,,,space,1.0503,0,26,26,30,1,31,training,zh2x,e,zh2x_e,zh2x_7_exe.wav,,exe.jpg,,,,,,,,,,,,,,,,,,,,,,,,,,,,,,,,,
63beebaa4c5884797ff00a98,2023-06-16_10h23.23.311,phx_ver10,2022.2.5,Win32,60.06006006,,,,,space,0.6006,0,27,27,42,1,43,training,zh2x,i,zh2x_i,zh2x_6_ixi.wav,,ixi.jpg,,,,,,,,,,,,,,,,,,,,,,,,,,,,,,,,,
63beebaa4c5884797ff00a98,2023-06-16_10h23.23.311,phx_ver10,2022.2.5,Win32,60.06006006,,,,,space,0.5338,0,28,28,13,1,14,training,zh2x,a,zh2x_a,zh2x_7_axa.wav,,axa.jpg,,,,,,,,,,,,,,,,,,,,,,,,,,,,,,,,,
63beebaa4c5884797ff00a98,2023-06-16_10h23.23.311,phx_ver10,2022.2.5,Win32,60.06006006,,,,,space,0.0005,0,29,29,12,1,13,training,zh2x,a,zh2x_a,zh2x_7_axa.wav,,axa.jpg,,,,,,,,,,,,,,,,,,,,,,,,,,,,,,,,,
63beebaa4c5884797ff00a98,2023-06-16_10h23.23.311,phx_ver10,2022.2.5,Win32,60.06006006,,,,,,,,,,,,,attn_test,,,,zh2x_8_axa.wav,zh2x_1_izhi.wav,axa.jpg,LEFT,,f,0.234,space,1.2387,0,0,0,0,1,,,,,,,,,,,,,,,,,,,,,,
63beebaa4c5884797ff00a98,2023-06-16_10h23.23.311,phx_ver10,2022.2.5,Win32,60.06006006,,,,,space,0.8885,0,30,30,28,1,29,training,zh2x,e,zh2x_e,zh2x_7_exe.wav,,exe.jpg,,,,,,,,,,,,,,,,,,,,,,,,,,,,,,,,,
63beebaa4c5884797ff00a98,2023-06-16_10h23.23.311,phx_ver10,2022.2.5,Win32,60.06006006,,,,,space,0.6558,0,31,31,27,1,28,training,zh2x,e,zh2x_e,zh2x_7_exe.wav,,exe.jpg,,,,,,,,,,,,,,,,,,,,,,,,,,,,,,,,,
63beebaa4c5884797ff00a98,2023-06-16_10h23.23.311,phx_ver10,2022.2.5,Win32,60.06006006,,,,,space,0.6888,0,32,32,22,1,23,training,zh2x,e,zh2x_e,zh2x_3_ezhe.wav,,ezhe.jpg,,,,,,,,,,,,,,,,,,,,,,,,,,,,,,,,,
63beebaa4c5884797ff00a98,2023-06-16_10h23.23.311,phx_ver10,2022.2.5,Win32,60.06006006,,,,,space,0.6002,0,33,33,11,1,12,training,zh2x,a,zh2x_a,zh2x_7_axa.wav,,axa.jpg,,,,,,,,,,,,,,,,,,,,,,,,,,,,,,,,,
63beebaa4c5884797ff00a98,2023-06-16_10h23.23.311,phx_ver10,2022.2.5,Win32,60.06006006,,,,,space,0.4847,0,34,34,40,1,41,training,zh2x,i,zh2x_i,zh2x_5_ixi.wav,,ixi.jpg,,,,,,,,,,,,,,,,,,,,,,,,,,,,,,,,,
63beebaa4c5884797ff00a98,2023-06-16_10h23.23.311,phx_ver10,2022.2.5,Win32,60.06006006,,,,,space,0.3507,0,35,35,43,1,44,training,zh2x,i,zh2x_i,zh2x_7_ixi.wav,,ixi.jpg,,,,,,,,,,,,,,,,,,,,,,,,,,,,,,,,,
63beebaa4c5884797ff00a98,2023-06-16_10h23.23.311,phx_ver10,2022.2.5,Win32,60.06006006,,,,,,,,,,,,,attn_test,,,,zh2x_1_izhi.wav,zh2x_1_ezhe.wav,ezhe.jpg,RIGHT,,j,0.3352,space,1.6174,0,0,0,0,1,,,,,,,,,,,,,,,,,,,,,,
63beebaa4c5884797ff00a98,2023-06-16_10h23.23.311,phx_ver10,2022.2.5,Win32,60.06006006,,,,,space,1.2931,0,36,36,23,1,24,training,zh2x,e,zh2x_e,zh2x_4_ezhe.wav,,ezhe.jpg,,,,,,,,,,,,,,,,,,,,,,,,,,,,,,,,,
63beebaa4c5884797ff00a98,2023-06-16_10h23.23.311,phx_ver10,2022.2.5,Win32,60.06006006,,,,,space,0.8895,0,37,37,9,1,10,training,zh2x,a,zh2x_a,zh2x_6_axa.wav,,axa.jpg,,,,,,,,,,,,,,,,,,,,,,,,,,,,,,,,,
63beebaa4c5884797ff00a98,2023-06-16_10h23.23.311,phx_ver10,2022.2.5,Win32,60.06006006,,,,,space,1.4003,0,38,38,10,1,11,training,zh2x,a,zh2x_a,zh2x_6_axa.wav,,axa.jpg,,,,,,,,,,,,,,,,,,,,,,,,,,,,,,,,,
63beebaa4c5884797ff00a98,2023-06-16_10h23.23.311,phx_ver10,2022.2.5,Win32,60.06006006,,,,,space,0.7898,0,39,39,16,1,17,training,zh2x,e,zh2x_e,zh2x_1_ezhe.wav,,ezhe.jpg,,,,,,,,,,,,,,,,,,,,,,,,,,,,,,,,,
63beebaa4c5884797ff00a98,2023-06-16_10h23.23.311,phx_ver10,2022.2.5,Win32,60.06006006,,,,,space,0.6768,0,40,40,41,1,42,training,zh2x,i,zh2x_i,zh2x_6_ixi.wav,,ixi.jpg,,,,,,,,,,,,,,,,,,,,,,,,,,,,,,,,,
63beebaa4c5884797ff00a98,2023-06-16_10h23.23.311,phx_ver10,2022.2.5,Win32,60.06006006,,,,,space,0.1249,0,41,41,37,1,38,training,zh2x,i,zh2x_i,zh2x_3_izhi.wav,,izhi.jpg,,,,,,,,,,,,,,,,,,,,,,,,,,,,,,,,,
63beebaa4c5884797ff00a98,2023-06-16_10h23.23.311,phx_ver10,2022.2.5,Win32,60.06006006,,,,,,,,,,,,,attn_test,,,,zh2x_8_ixi.wav,zh2x_1_ezhe.wav,ixi.jpg,LEFT,,f,0.0169,space,0.6521,0,0,0,0,1,,,,,,,,,,,,,,,,,,,,,,
63beebaa4c5884797ff00a98,2023-06-16_10h23.23.311,phx_ver10,2022.2.5,Win32,60.06006006,,,,,space,0.517,0,42,42,4,1,5,training,zh2x,a,zh2x_a,zh2x_2_azha.wav,,azha.jpg,,,,,,,,,,,,,,,,,,,,,,,,,,,,,,,,,
63beebaa4c5884797ff00a98,2023-06-16_10h23.23.311,phx_ver10,2022.2.5,Win32,60.06006006,,,,,space,0.3431,0,43,43,3,1,4,training,zh2x,a,zh2x_a,zh2x_2_azha.wav,,azha.jpg,,,,,,,,,,,,,,,,,,,,,,,,,,,,,,,,,
63beebaa4c5884797ff00a98,2023-06-16_10h23.23.311,phx_ver10,2022.2.5,Win32,60.06006006,,,,,space,0.7846,0,44,44,15,1,16,training,zh2x,a,zh2x_a,zh2x_8_axa.wav,,axa.jpg,,,,,,,,,,,,,,,,,,,,,,,,,,,,,,,,,
63beebaa4c5884797ff00a98,2023-06-16_10h23.23.311,phx_ver10,2022.2.5,Win32,60.06006006,,,,,space,0.6228,0,45,45,32,1,33,training,zh2x,i,zh2x_i,zh2x_1_izhi.wav,,izhi.jpg,,,,,,,,,,,,,,,,,,,,,,,,,,,,,,,,,
63beebaa4c5884797ff00a98,2023-06-16_10h23.23.311,phx_ver10,2022.2.5,Win32,60.06006006,,,,,space,0.2548,0,46,46,45,1,46,training,zh2x,i,zh2x_i,zh2x_7_ixi.wav,,ixi.jpg,,,,,,,,,,,,,,,,,,,,,,,,,,,,,,,,,
63beebaa4c5884797ff00a98,2023-06-16_10h23.23.311,phx_ver10,2022.2.5,Win32,60.06006006,,,,,space,0.0008,0,47,47,35,1,36,training,zh2x,i,zh2x_i,zh2x_2_izhi.wav,,izhi.jpg,,,,,,,,,,,,,,,,,,,,,,,,,,,,,,,,,
63beebaa4c5884797ff00a98,2023-06-16_10h23.23.311,phx_ver10,2022.2.5,Win32,60.06006006,,,,,,,,,,,,,attn_test,,,,zh2x_1_ezhe.wav,zh2x_8_axa.wav,axa.jpg,RIGHT,,j,0.2005,space,0.8168,,,,,,,,,,,,,,,,,,,,,,,,,,,
63beebaa4c5884797ff00a98,2023-06-16_10h23.23.311,phx_ver10,2022.2.5,Win32,60.06006006,,,,,,,,,,,,,,,,,,,,,,,,,,,,,,,space,1.0668,,,,,,,,,,,,,,,,,,,,
63beebaa4c5884797ff00a98,2023-06-16_10h23.23.311,phx_ver10,2022.2.5,Win32,60.06006006,,,,,,,,,,,,,,,,,,,,,,,,,,,,,,,,,space,6.3667,,,,,,,,,,,,,,,,,,
63beebaa4c5884797ff00a98,2023-06-16_10h23.23.311,phx_ver10,2022.2.5,Win32,60.06006006,,,,,,,,,,,,3,testing_pre,,,,afa.wav,aha.wav,,FALSE,,,,,,,,,,,,,,,j,0.6128,space,2.3626,0,0,0,2,1,,,,,,,,,
63beebaa4c5884797ff00a98,2023-06-16_10h23.23.311,phx_ver10,2022.2.5,Win32,60.06006006,,,,,,,,,,,,4,testing_pre,,,,eihei.wav,eihei.wav,,TRUE,,,,,,,,,,,,,,,f,0.4848,space,0.9728,0,1,1,3,1,,,,,,,,,
63beebaa4c5884797ff00a98,2023-06-16_10h23.23.311,phx_ver10,2022.2.5,Win32,60.06006006,,,,,,,,,,,,1,testing_pre,,,,ifi.wav,ifi.wav,,TRUE,,,,,,,,,,,,,,,f,0.2021,space,0.667,0,2,2,0,1,,,,,,,,,
63beebaa4c5884797ff00a98,2023-06-16_10h23.23.311,phx_ver10,2022.2.5,Win32,60.06006006,,,,,,,,,,,,5,testing_pre,,,,ihi.wav,ifi.wav,,FALSE,,,,,,,,,,,,,,,f,3.0148,space,3.5693,0,3,3,4,1,,,,,,,,,
63beebaa4c5884797ff00a98,2023-06-16_10h23.23.311,phx_ver10,2022.2.5,Win32,60.06006006,,,,,,,,,,,,2,testing_pre,,,,auhau.wav,aufau.wav,,FALSE,,,,,,,,,,,,,,,j,0.6344,space,1.0398,0,4,4,1,1,,,,,,,,,
63beebaa4c5884797ff00a98,2023-06-16_10h23.23.311,phx_ver10,2022.2.5,Win32,60.06006006,,,,,,,,,,,,,,,,,,,,,,,,,,,,,,,,,,,,,,,,,,,,space,0.7557,,,,,,,
63beebaa4c5884797ff00a98,2023-06-16_10h23.23.311,phx_ver10,2022.2.5,Win32,60.06006006,,,,,,,,,,,,93,testing_3,j2x,i,j2x_i,j2x_1_iji.wav,j2x_1_iji.wav,,TRUE,FALSE,,,,,,,,,,,,,,f,0.0005,space,0.4227,,,,,,,,0,0,0,92,1,,
63beebaa4c5884797ff00a98,2023-06-16_10h23.23.311,phx_ver10,2022.2.5,Win32,60.06006006,,,,,,,,,,,,18,testing_2,zh2x,au,zh2x_au,zh2x_8_auxau.wav,zh2x_8_auxau.wav,,TRUE,FALSE,,,,,,,,,,,,,,f,0.8888,space,1.2727,,,,,,,,0,1,1,17,1,,
63beebaa4c5884797ff00a98,2023-06-16_10h23.23.311,phx_ver10,2022.2.5,Win32,60.06006006,,,,,,,,,,,,19,testing_2,zh2x,au,zh2x_au,zh2x_1_auzhau.wav,zh2x_8_auxau.wav,,FALSE,FALSE,,,,,,,,,,,,,,j,0.4585,space,0.9002,,,,,,,,0,2,2,18,1,,
63beebaa4c5884797ff00a98,2023-06-16_10h23.23.311,phx_ver10,2022.2.5,Win32,60.06006006,,,,,,,,,,,,111,testing_3,sh2x,e,sh2x_e,sh2x_1_eshe.wav,sh2x_8_exe.wav,,FALSE,FALSE,,,,,,,,,,,,,,f,1.5169,space,1.8835,,,,,,,,0,3,3,110,1,,
63beebaa4c5884797ff00a98,2023-06-16_10h23.23.311,phx_ver10,2022.2.5,Win32,60.06006006,,,,,,,,,,,,42,testing_3,zh2sh,ei,zh2sh_ei,zh2sh_8_eishei.wav,zh2sh_8_eishei.wav,,TRUE,FALSE,,,,,,,,,,,,,,f,0.2553,space,0.6232,,,,,,,,0,4,4,41,1,,
63beebaa4c5884797ff00a98,2023-06-16_10h23.23.311,phx_ver10,2022.2.5,Win32,60.06006006,,,,,,,,,,,,115,testing_3,sh2x,ei,sh2x_ei,sh2x_1_eishei.wav,sh2x_8_eixei.wav,,FALSE,FALSE,,,,,,,,,,,,,,f,1.1841,space,1.5335,,,,,,,,0,5,5,114,1,,
63beebaa4c5884797ff00a98,2023-06-16_10h23.23.311,phx_ver10,2022.2.5,Win32,60.06006006,,,,,,,,,,,,91,testing_3,j2x,ei,j2x_ei,j2x_1_eijei.wav,j2x_8_eixei.wav,,FALSE,FALSE,,,,,,,,,,,,,,j,1.1172,space,1.4832,,,,,,,,0,6,6,90,1,,
63beebaa4c5884797ff00a98,2023-06-16_10h23.23.311,phx_ver10,2022.2.5,Win32,60.06006006,,,,,,,,,,,,69,testing_3,zh2j,i,zh2j_i,zh2j_1_izhi.wav,zh2j_1_izhi.wav,,TRUE,FALSE,,,,,,,,,,,,,,f,0.1343,space,0.5181,,,,,,,,0,7,7,68,1,,
63beebaa4c5884797ff00a98,2023-06-16_10h23.23.311,phx_ver10,2022.2.5,Win32,60.06006006,,,,,,,,,,,,81,testing_3,j2x,au,j2x_au,j2x_1_aujau.wav,j2x_1_aujau.wav,,TRUE,FALSE,,,,,,,,,,,,,,f,0.0529,space,0.3503,,,,,,,,0,8,8,80,1,,
63beebaa4c5884797ff00a98,2023-06-16_10h23.23.311,phx_ver10,2022.2.5,Win32,60.06006006,,,,,,,,,,,,116,testing_3,sh2x,ei,sh2x_ei,sh2x_8_eixei.wav,sh2x_1_eishei.wav,,FALSE,FALSE,,,,,,,,,,,,,,f,0.8415,space,1.1855,,,,,,,,0,9,9,115,1,,
63beebaa4c5884797ff00a98,2023-06-16_10h23.23.311,phx_ver10,2022.2.5,Win32,60.06006006,,,,,,,,,,,,97,testing_3,sh2x,a,sh2x_a,sh2x_1_asha.wav,sh2x_1_asha.wav,,TRUE,FALSE,,,,,,,,,,,,,,f,1.234,space,1.5388,,,,,,,,0,10,10,96,1,,
63beebaa4c5884797ff00a98,2023-06-16_10h23.23.311,phx_ver10,2022.2.5,Win32,60.06006006,,,,,,,,,,,,43,testing_3,zh2sh,ei,zh2sh_ei,zh2sh_1_eizhei.wav,zh2sh_8_eishei.wav,,FALSE,FALSE,,,,,,,,,,,,,,j,0.6168,space,0.9672,,,,,,,,0,11,11,42,1,,
63beebaa4c5884797ff00a98,2023-06-16_10h23.23.311,phx_ver10,2022.2.5,Win32,60.06006006,,,,,,,,,,,,113,testing_3,sh2x,ei,sh2x_ei,sh2x_1_eishei.wav,sh2x_1_eishei.wav,,TRUE,FALSE,,,,,,,,,,,,,,f,0.1727,space,0.584,,,,,,,,0,12,12,112,1,,
63beebaa4c5884797ff00a98,2023-06-16_10h23.23.311,phx_ver10,2022.2.5,Win32,60.06006006,,,,,,,,,,,,77,testing_3,j2x,ai,j2x_ai,j2x_1_aijai.wav,j2x_1_aijai.wav,,TRUE,FALSE,,,,,,,,,,,,,,f,0.0394,space,0.3339,,,,,,,,0,13,13,76,1,,
63beebaa4c5884797ff00a98,2023-06-16_10h23.23.311,phx_ver10,2022.2.5,Win32,60.06006006,,,,,,,,,,,,79,testing_3,j2x,ai,j2x_ai,j2x_1_aijai.wav,j2x_8_aixai.wav,,FALSE,FALSE,,,,,,,,,,,,,,j,0.5004,space,0.9006,,,,,,,,0,14,14,78,1,,
63beebaa4c5884797ff00a98,2023-06-16_10h23.23.311,phx_ver10,2022.2.5,Win32,60.06006006,,,,,,,,,,,,88,testing_3,j2x,e,j2x_e,j2x_8_exe.wav,j2x_1_eje.wav,,FALSE,FALSE,,,,,,,,,,,,,,j,0.6836,space,1.0503,,,,,,,,0,15,15,87,1,,
63beebaa4c5884797ff00a98,2023-06-16_10h23.23.311,phx_ver10,2022.2.5,Win32,60.06006006,,,,,,,,,,,,101,testing_3,sh2x,ai,sh2x_ai,sh2x_1_aishai.wav,sh2x_1_aishai.wav,,TRUE,FALSE,,,,,,,,,,,,,,f,0.8507,space,1.1675,,,,,,,,0,16,16,100,1,,
63beebaa4c5884797ff00a98,2023-06-16_10h23.23.311,phx_ver10,2022.2.5,Win32,60.06006006,,,,,,,,,,,,61,testing_3,zh2j,e,zh2j_e,zh2j_1_ezhe.wav,zh2j_1_ezhe.wav,,TRUE,FALSE,,,,,,,,,,,,,,f,0.1621,space,0.5288,,,,,,,,0,17,17,60,1,,
63beebaa4c5884797ff00a98,2023-06-16_10h23.23.311,phx_ver10,2022.2.5,Win32,60.06006006,,,,,,,,,,,,44,testing_3,zh2sh,ei,zh2sh_ei,zh2sh_8_eishei.wav,zh2sh_1_eizhei.wav,,FALSE,FALSE,,,,,,,,,,,,,,j,0.4821,space,0.8485,,,,,,,,0,18,18,43,1,,
63beebaa4c5884797ff00a98,2023-06-16_10h23.23.311,phx_ver10,2022.2.5,Win32,60.06006006,,,,,,,,,,,,41,testing_3,zh2sh,ei,zh2sh_ei,zh2sh_1_eizhei.wav,zh2sh_1_eizhei.wav,,TRUE,FALSE,,,,,,,,,,,,,,f,1.3005,space,1.7671,,,,,,,,0,19,19,40,1,,
63beebaa4c5884797ff00a98,2023-06-16_10h23.23.311,phx_ver10,2022.2.5,Win32,60.06006006,,,,,,,,,,,,56,testing_3,zh2j,ai,zh2j_ai,zh2j_8_aijai.wav,zh2j_1_aizhai.wav,,FALSE,FALSE,,,,,,,,,,,,,,f,0.4288,space,0.7452,,,,,,,,0,20,20,55,1,,
63beebaa4c5884797ff00a98,2023-06-16_10h23.23.311,phx_ver10,2022.2.5,Win32,60.06006006,,,,,,,,,,,,142,testing_3,sh2j,i,sh2j_i,sh2j_8_iji.wav,sh2j_8_iji.wav,,TRUE,FALSE,,,,,,,,,,,,,,f,0.851,space,1.1344,,,,,,,,0,21,21,141,1,,
63beebaa4c5884797ff00a98,2023-06-16_10h23.23.311,phx_ver10,2022.2.5,Win32,60.06006006,,,,,,,,,,,,63,testing_3,zh2j,e,zh2j_e,zh2j_1_ezhe.wav,zh2j_8_eje.wav,,FALSE,FALSE,,,,,,,,,,,,,,f,0.1454,space,0.5291,,,,,,,,0,22,22,62,1,,
63beebaa4c5884797ff00a98,2023-06-16_10h23.23.311,phx_ver10,2022.2.5,Win32,60.06006006,,,,,,,,,,,,100,testing_3,sh2x,a,sh2x_a,sh2x_8_axa.wav,sh2x_1_asha.wav,,FALSE,FALSE,,,,,,,,,,,,,,f,0.9116,space,1.1951,,,,,,,,0,23,23,99,1,,
63beebaa4c5884797ff00a98,2023-06-16_10h23.23.311,phx_ver10,2022.2.5,Win32,60.06006006,,,,,,,,,,,,40,testing_3,zh2sh,e,zh2sh_e,zh2sh_8_eshe.wav,zh2sh_1_ezhe.wav,,FALSE,FALSE,,,,,,,,,,,,,,j,0.7839,space,1.1336,,,,,,,,0,24,24,39,1,,
63beebaa4c5884797ff00a98,2023-06-16_10h23.23.311,phx_ver10,2022.2.5,Win32,60.06006006,,,,,,,,,,,,4,testing_1,zh2x,a,zh2x_a,zh2x_8_axa.wav,zh2x_1_azha.wav,,FALSE,TRUE,,,,,,,,,,,,,,j,1.5006,space,1.8337,,,,,,,,0,25,25,3,1,,
63beebaa4c5884797ff00a98,2023-06-16_10h23.23.311,phx_ver10,2022.2.5,Win32,60.06006006,,,,,,,,,,,,47,testing_3,zh2sh,i,zh2sh_i,zh2sh_1_izhi.wav,zh2sh_8_ishi.wav,,FALSE,FALSE,,,,,,,,,,,,,,j,0.5508,space,0.8674,,,,,,,,0,26,26,46,1,,
63beebaa4c5884797ff00a98,2023-06-16_10h23.23.311,phx_ver10,2022.2.5,Win32,60.06006006,,,,,,,,,,,,105,testing_3,sh2x,au,sh2x_au,sh2x_1_aushau.wav,sh2x_1_aushau.wav,,TRUE,FALSE,,,,,,,,,,,,,,f,0.5667,space,0.9339,,,,,,,,0,27,27,104,1,,
63beebaa4c5884797ff00a98,2023-06-16_10h23.23.311,phx_ver10,2022.2.5,Win32,60.06006006,,,,,,,,,,,,138,testing_3,sh2j,ei,sh2j_ei,sh2j_8_eijei.wav,sh2j_8_eijei.wav,,TRUE,FALSE,,,,,,,,,,,,,,f,0.1674,space,0.5229,,,,,,,,0,28,28,137,1,,
63beebaa4c5884797ff00a98,2023-06-16_10h23.23.311,phx_ver10,2022.2.5,Win32,60.06006006,,,,,,,,,,,,28,testing_3,zh2sh,a,zh2sh_a,zh2sh_8_asha.wav,zh2sh_1_azha.wav,,FALSE,FALSE,,,,,,,,,,,,,,j,2.1839,space,2.4674,,,,,,,,0,29,29,27,1,,
63beebaa4c5884797ff00a98,2023-06-16_10h23.23.311,phx_ver10,2022.2.5,Win32,60.06006006,,,,,,,,,,,,78,testing_3,j2x,ai,j2x_ai,j2x_8_aixai.wav,j2x_8_aixai.wav,,TRUE,FALSE,,,,,,,,,,,,,,f,0.434,space,0.7339,,,,,,,,0,30,30,77,1,,
63beebaa4c5884797ff00a98,2023-06-16_10h23.23.311,phx_ver10,2022.2.5,Win32,60.06006006,,,,,,,,,,,,90,testing_3,j2x,ei,j2x_ei,j2x_8_eixei.wav,j2x_8_eixei.wav,,TRUE,FALSE,,,,,,,,,,,,,,f,0.0672,space,0.3171,,,,,,,,0,31,31,89,1,,
63beebaa4c5884797ff00a98,2023-06-16_10h23.23.311,phx_ver10,2022.2.5,Win32,60.06006006,,,,,,,,,,,,15,testing_2,zh2x,ai,zh2x_ai,zh2x_1_aizhai.wav,zh2x_8_aixai.wav,,FALSE,FALSE,,,,,,,,,,,,,,j,0.1842,space,0.5007,,,,,,,,0,32,32,14,1,,
63beebaa4c5884797ff00a98,2023-06-16_10h23.23.311,phx_ver10,2022.2.5,Win32,60.06006006,,,,,,,,,,,,96,testing_3,j2x,i,j2x_i,j2x_8_ixi.wav,j2x_1_iji.wav,,FALSE,FALSE,,,,,,,,,,,,,,f,0.2174,space,0.5506,,,,,,,,0,33,33,95,1,,
63beebaa4c5884797ff00a98,2023-06-16_10h23.23.311,phx_ver10,2022.2.5,Win32,60.06006006,,,,,,,,,,,,109,testing_3,sh2x,e,sh2x_e,sh2x_1_eshe.wav,sh2x_1_eshe.wav,,TRUE,FALSE,,,,,,,,,,,,,,f,0.4008,space,0.7172,,,,,,,,0,34,34,108,1,,
63beebaa4c5884797ff00a98,2023-06-16_10h23.23.311,phx_ver10,2022.2.5,Win32,60.06006006,,,,,,,,,,,,2,testing_1,zh2x,a,zh2x_a,zh2x_8_axa.wav,zh2x_8_axa_copy.wav,,TRUE,TRUE,,,,,,,,,,,,,,f,0.3005,space,0.574,,,,,,,,0,35,35,1,1,,
63beebaa4c5884797ff00a98,2023-06-16_10h23.23.311,phx_ver10,2022.2.5,Win32,60.06006006,,,,,,,,,,,,64,testing_3,zh2j,e,zh2j_e,zh2j_8_eje.wav,zh2j_1_ezhe.wav,,FALSE,FALSE,,,,,,,,,,,,,,f,0.4344,space,0.7339,,,,,,,,0,36,36,63,1,,
63beebaa4c5884797ff00a98,2023-06-16_10h23.23.311,phx_ver10,2022.2.5,Win32,60.06006006,,,,,,,,,,,,130,testing_3,sh2j,au,sh2j_au,sh2j_8_aujau.wav,sh2j_8_aujau.wav,,TRUE,FALSE,,,,,,,,,,,,,,j,0.9006,space,1.1841,,,,,,,,0,37,37,129,1,,
63beebaa4c5884797ff00a98,2023-06-16_10h23.23.311,phx_ver10,2022.2.5,Win32,60.06006006,,,,,,,,,,,,23,testing_2,zh2x,ei,zh2x_ei,zh2x_1_eizhei.wav,zh2x_8_eixei.wav,,FALSE,FALSE,,,,,,,,,,,,,,j,0.4672,space,0.7504,,,,,,,,0,38,38,22,1,,
63beebaa4c5884797ff00a98,2023-06-16_10h23.23.311,phx_ver10,2022.2.5,Win32,60.06006006,,,,,,,,,,,,32,testing_3,zh2sh,ai,zh2sh_ai,zh2sh_8_aishai.wav,zh2sh_1_aizhai.wav,,FALSE,FALSE,,,,,,,,,,,,,,j,0.4173,space,0.6338,,,,,,,,0,39,39,31,1,,
63beebaa4c5884797ff00a98,2023-06-16_10h23.23.311,phx_ver10,2022.2.5,Win32,60.06006006,,,,,,,,,,,,27,testing_3,zh2sh,a,zh2sh_a,zh2sh_1_azha.wav,zh2sh_8_asha.wav,,FALSE,FALSE,,,,,,,,,,,,,,f,3.2414,space,3.4327,,,,,,,,0,40,40,26,1,,
63beebaa4c5884797ff00a98,2023-06-16_10h23.23.311,phx_ver10,2022.2.5,Win32,60.06006006,,,,,,,,,,,,118,testing_3,sh2x,i,sh2x_i,sh2x_8_ixi.wav,sh2x_8_ixi.wav,,TRUE,FALSE,,,,,,,,,,,,,,j,2.1506,space,3.6674,,,,,,,,0,41,41,117,1,,
63beebaa4c5884797ff00a98,2023-06-16_10h23.23.311,phx_ver10,2022.2.5,Win32,60.06006006,,,,,,,,,,,,7,testing_1,zh2x,e,zh2x_e,zh2x_1_ezhe.wav,zh2x_8_exe.wav,,FALSE,TRUE,,,,,,,,,,,,,,j,0.5391,space,0.7674,,,,,,,,0,42,42,6,1,,
63beebaa4c5884797ff00a98,2023-06-16_10h23.23.311,phx_ver10,2022.2.5,Win32,60.06006006,,,,,,,,,,,,112,testing_3,sh2x,e,sh2x_e,sh2x_8_exe.wav,sh2x_1_eshe.wav,,FALSE,FALSE,,,,,,,,,,,,,,j,0.4839,space,0.9288,,,,,,,,0,43,43,111,1,,
63beebaa4c5884797ff00a98,2023-06-16_10h23.23.311,phx_ver10,2022.2.5,Win32,60.06006006,,,,,,,,,,,,82,testing_3,j2x,au,j2x_au,j2x_8_auxau.wav,j2x_8_auxau.wav,,TRUE,FALSE,,,,,,,,,,,,,,f,0.1504,space,0.3838,,,,,,,,0,44,44,81,1,,
63beebaa4c5884797ff00a98,2023-06-16_10h23.23.311,phx_ver10,2022.2.5,Win32,60.06006006,,,,,,,,,,,,114,testing_3,sh2x,ei,sh2x_ei,sh2x_8_eixei.wav,sh2x_8_eixei.wav,,TRUE,FALSE,,,,,,,,,,,,,,f,0.1838,space,0.4176,,,,,,,,0,45,45,113,1,,
63beebaa4c5884797ff00a98,2023-06-16_10h23.23.311,phx_ver10,2022.2.5,Win32,60.06006006,,,,,,,,,,,,131,testing_3,sh2j,au,sh2j_au,sh2j_1_aushau.wav,sh2j_8_aujau.wav,,FALSE,FALSE,,,,,,,,,,,,,,j,0.3337,space,0.5505,,,,,,,,0,46,46,130,1,,
63beebaa4c5884797ff00a98,2023-06-16_10h23.23.311,phx_ver10,2022.2.5,Win32,60.06006006,,,,,,,,,,,,86,testing_3,j2x,e,j2x_e,j2x_8_exe.wav,j2x_8_exe.wav,,TRUE,FALSE,,,,,,,,,,,,,,f,0.5677,space,0.8676,,,,,,,,0,47,47,85,1,,
63beebaa4c5884797ff00a98,2023-06-16_10h23.23.311,phx_ver10,2022.2.5,Win32,60.06006006,,,,,,,,,,,,85,testing_3,j2x,e,j2x_e,j2x_1_eje.wav,j2x_1_eje.wav,,TRUE,FALSE,,,,,,,,,,,,,,f,0.1508,space,0.3668,,,,,,,,0,48,48,84,1,,
63beebaa4c5884797ff00a98,2023-06-16_10h23.23.311,phx_ver10,2022.2.5,Win32,60.06006006,,,,,,,,,,,,104,testing_3,sh2x,ai,sh2x_ai,sh2x_8_aixai.wav,sh2x_1_aishai.wav,,FALSE,FALSE,,,,,,,,,,,,,,f,0.1139,space,0.3171,,,,,,,,0,49,49,103,1,,
63beebaa4c5884797ff00a98,2023-06-16_10h23.23.311,phx_ver10,2022.2.5,Win32,60.06006006,,,,,,,,,,,,24,testing_2,zh2x,ei,zh2x_ei,zh2x_8_eixei.wav,zh2x_1_eizhei.wav,,FALSE,FALSE,,,,,,,,,,,,,,j,0.5842,space,0.834,,,,,,,,0,50,50,23,1,,
63beebaa4c5884797ff00a98,2023-06-16_10h23.23.311,phx_ver10,2022.2.5,Win32,60.06006006,,,,,,,,,,,,66,testing_3,zh2j,ei,zh2j_ei,zh2j_8_eijei.wav,zh2j_8_eijei.wav,,TRUE,FALSE,,,,,,,,,,,,,,f,0.4841,space,0.7725,,,,,,,,0,51,51,65,1,,
63beebaa4c5884797ff00a98,2023-06-16_10h23.23.311,phx_ver10,2022.2.5,Win32,60.06006006,,,,,,,,,,,,20,testing_2,zh2x,au,zh2x_au,zh2x_8_auxau.wav,zh2x_1_auzhau.wav,,FALSE,FALSE,,,,,,,,,,,,,,j,1.9175,space,2.3005,,,,,,,,0,52,52,19,1,,
63beebaa4c5884797ff00a98,2023-06-16_10h23.23.311,phx_ver10,2022.2.5,Win32,60.06006006,,,,,,,,,,,,49,testing_3,zh2j,a,zh2j_a,zh2j_1_azha.wav,zh2j_1_azha.wav,,TRUE,FALSE,,,,,,,,,,,,,,f,0.6513,space,0.9342,,,,,,,,0,53,53,48,1,,
63beebaa4c5884797ff00a98,2023-06-16_10h23.23.311,phx_ver10,2022.2.5,Win32,60.06006006,,,,,,,,,,,,99,testing_3,sh2x,a,sh2x_a,sh2x_1_asha.wav,sh2x_8_axa.wav,,FALSE,FALSE,,,,,,,,,,,,,,f,1.0839,space,1.3171,,,,,,,,0,54,54,98,1,,
63beebaa4c5884797ff00a98,2023-06-16_10h23.23.311,phx_ver10,2022.2.5,Win32,60.06006006,,,,,,,,,,,,59,testing_3,zh2j,au,zh2j_au,zh2j_1_auzhau.wav,zh2j_8_aujau.wav,,FALSE,FALSE,,,,,,,,,,,,,,f,0.1907,space,0.4168,,,,,,,,0,55,55,58,1,,
63beebaa4c5884797ff00a98,2023-06-16_10h23.23.311,phx_ver10,2022.2.5,Win32,60.06006006,,,,,,,,,,,,52,testing_3,zh2j,a,zh2j_a,zh2j_8_aja.wav,zh2j_1_azha.wav,,FALSE,FALSE,,,,,,,,,,,,,,f,0.2175,space,0.434,,,,,,,,0,56,56,51,1,,
63beebaa4c5884797ff00a98,2023-06-16_10h23.23.311,phx_ver10,2022.2.5,Win32,60.06006006,,,,,,,,,,,,137,testing_3,sh2j,ei,sh2j_ei,sh2j_1_eishei.wav,sh2j_1_eishei.wav,,TRUE,FALSE,,,,,,,,,,,,,,f,0.0843,space,0.2746,,,,,,,,0,57,57,136,1,,
63beebaa4c5884797ff00a98,2023-06-16_10h23.23.311,phx_ver10,2022.2.5,Win32,60.06006006,,,,,,,,,,,,127,testing_3,sh2j,ai,sh2j_ai,sh2j_1_aishai.wav,sh2j_8_aijai.wav,,FALSE,FALSE,,,,,,,,,,,,,,j,0.2639,space,0.4952,,,,,,,,0,58,58,126,1,,
63beebaa4c5884797ff00a98,2023-06-16_10h23.23.311,phx_ver10,2022.2.5,Win32,60.06006006,,,,,,,,,,,,75,testing_3,j2x,a,j2x_a,j2x_1_aja.wav,j2x_8_axa.wav,,FALSE,FALSE,,,,,,,,,,,,,,j,0.7004,space,0.9003,,,,,,,,0,59,59,74,1,,
63beebaa4c5884797ff00a98,2023-06-16_10h23.23.311,phx_ver10,2022.2.5,Win32,60.06006006,,,,,,,,,,,,50,testing_3,zh2j,a,zh2j_a,zh2j_8_aja.wav,zh2j_8_aja.wav,,TRUE,FALSE,,,,,,,,,,,,,,f,0.2673,space,0.6172,,,,,,,,0,60,60,49,1,,
63beebaa4c5884797ff00a98,2023-06-16_10h23.23.311,phx_ver10,2022.2.5,Win32,60.06006006,,,,,,,,,,,,68,testing_3,zh2j,ei,zh2j_ei,zh2j_8_eijei.wav,zh2j_1_eizhei.wav,,FALSE,FALSE,,,,,,,,,,,,,,f,0.0006,space,0.2044,,,,,,,,0,61,61,67,1,,
63beebaa4c5884797ff00a98,2023-06-16_10h23.23.311,phx_ver10,2022.2.5,Win32,60.06006006,,,,,,,,,,,,67,testing_3,zh2j,ei,zh2j_ei,zh2j_1_eizhei.wav,zh2j_8_eijei.wav,,FALSE,FALSE,,,,,,,,,,,,,,f,1.134,space,1.3838,,,,,,,,0,62,62,66,1,,
63beebaa4c5884797ff00a98,2023-06-16_10h23.23.311,phx_ver10,2022.2.5,Win32,60.06006006,,,,,,,,,,,,17,testing_2,zh2x,au,zh2x_au,zh2x_1_auzhau.wav,zh2x_1_auzhau.wav,,TRUE,FALSE,,,,,,,,,,,,,,f,0.0505,space,0.2337,,,,,,,,0,63,63,16,1,,
63beebaa4c5884797ff00a98,2023-06-16_10h23.23.311,phx_ver10,2022.2.5,Win32,60.06006006,,,,,,,,,,,,126,testing_3,sh2j,ai,sh2j_ai,sh2j_8_aijai.wav,sh2j_8_aijai.wav,,TRUE,FALSE,,,,,,,,,,,,,,f,0.667,space,0.8836,,,,,,,,0,64,64,125,1,,
63beebaa4c5884797ff00a98,2023-06-16_10h23.23.311,phx_ver10,2022.2.5,Win32,60.06006006,,,,,,,,,,,,13,testing_2,zh2x,ai,zh2x_ai,zh2x_1_aizhai.wav,zh2x_1_aizhai.wav,,TRUE,FALSE,,,,,,,,,,,,,,j,0.3504,space,0.5667,,,,,,,,0,65,65,12,1,,
63beebaa4c5884797ff00a98,2023-06-16_10h23.23.311,phx_ver10,2022.2.5,Win32,60.06006006,,,,,,,,,,,,35,testing_3,zh2sh,au,zh2sh_au,zh2sh_1_auzhau.wav,zh2sh_8_aushau.wav,,FALSE,FALSE,,,,,,,,,,,,,,j,0.3511,space,0.6345,,,,,,,,0,66,66,34,1,,
63beebaa4c5884797ff00a98,2023-06-16_10h23.23.311,phx_ver10,2022.2.5,Win32,60.06006006,,,,,,,,,,,,16,testing_2,zh2x,ai,zh2x_ai,zh2x_8_aixai.wav,zh2x_1_aizhai.wav,,FALSE,FALSE,,,,,,,,,,,,,,j,1.1675,space,1.3673,,,,,,,,0,67,67,15,1,,
63beebaa4c5884797ff00a98,2023-06-16_10h23.23.311,phx_ver10,2022.2.5,Win32,60.06006006,,,,,,,,,,,,134,testing_3,sh2j,e,sh2j_e,sh2j_8_eje.wav,sh2j_8_eje.wav,,TRUE,FALSE,,,,,,,,,,,,,,f,0.5839,space,0.9176,,,,,,,,0,68,68,133,1,,
63beebaa4c5884797ff00a98,2023-06-16_10h23.23.311,phx_ver10,2022.2.5,Win32,60.06006006,,,,,,,,,,,,139,testing_3,sh2j,ei,sh2j_ei,sh2j_1_eishei.wav,sh2j_8_eijei.wav,,FALSE,FALSE,,,,,,,,,,,,,,j,0.3676,space,0.6672,,,,,,,,0,69,69,138,1,,
63beebaa4c5884797ff00a98,2023-06-16_10h23.23.311,phx_ver10,2022.2.5,Win32,60.06006006,,,,,,,,,,,,92,testing_3,j2x,ei,j2x_ei,j2x_8_eixei.wav,j2x_1_eijei.wav,,FALSE,FALSE,,,,,,,,,,,,,,f,0.9837,space,1.2337,,,,,,,,0,70,70,91,1,,
63beebaa4c5884797ff00a98,2023-06-16_10h23.23.311,phx_ver10,2022.2.5,Win32,60.06006006,,,,,,,,,,,,76,testing_3,j2x,a,j2x_a,j2x_8_axa.wav,j2x_1_aja.wav,,FALSE,FALSE,,,,,,,,,,,,,,j,0.1671,space,0.5339,,,,,,,,0,71,71,75,1,,
63beebaa4c5884797ff00a98,2023-06-16_10h23.23.311,phx_ver10,2022.2.5,Win32,60.06006006,,,,,,,,,,,,74,testing_3,j2x,a,j2x_a,j2x_8_axa.wav,j2x_8_axa.wav,,TRUE,FALSE,,,,,,,,,,,,,,f,0.3736,space,0.7005,,,,,,,,0,72,72,73,1,,
63beebaa4c5884797ff00a98,2023-06-16_10h23.23.311,phx_ver10,2022.2.5,Win32,60.06006006,,,,,,,,,,,,144,testing_3,sh2j,i,sh2j_i,sh2j_8_iji.wav,sh2j_1_ishi.wav,,FALSE,FALSE,,,,,,,,,,,,,,j,0.3172,space,0.6672,,,,,,,,0,73,73,143,1,,
63beebaa4c5884797ff00a98,2023-06-16_10h23.23.311,phx_ver10,2022.2.5,Win32,60.06006006,,,,,,,,,,,,143,testing_3,sh2j,i,sh2j_i,sh2j_1_ishi.wav,sh2j_8_iji.wav,,FALSE,FALSE,,,,,,,,,,,,,,j,0.4676,space,0.8007,,,,,,,,0,74,74,142,1,,
63beebaa4c5884797ff00a98,2023-06-16_10h23.23.311,phx_ver10,2022.2.5,Win32,60.06006006,,,,,,,,,,,,22,testing_2,zh2x,ei,zh2x_ei,zh2x_8_eixei.wav,zh2x_8_eixei.wav,,TRUE,FALSE,,,,,,,,,,,,,,f,0.6175,space,0.934,,,,,,,,0,75,75,21,1,,
63beebaa4c5884797ff00a98,2023-06-16_10h23.23.311,phx_ver10,2022.2.5,Win32,60.06006006,,,,,,,,,,,,102,testing_3,sh2x,ai,sh2x_ai,sh2x_8_aixai.wav,sh2x_8_aixai.wav,,TRUE,FALSE,,,,,,,,,,,,,,f,0.5839,space,0.9004,,,,,,,,0,76,76,101,1,,
63beebaa4c5884797ff00a98,2023-06-16_10h23.23.311,phx_ver10,2022.2.5,Win32,60.06006006,,,,,,,,,,,,65,testing_3,zh2j,ei,zh2j_ei,zh2j_1_eizhei.wav,zh2j_1_eizhei.wav,,TRUE,FALSE,,,,,,,,,,,,,,f,0.5171,space,0.8173,,,,,,,,0,77,77,64,1,,
63beebaa4c5884797ff00a98,2023-06-16_10h23.23.311,phx_ver10,2022.2.5,Win32,60.06006006,,,,,,,,,,,,107,testing_3,sh2x,au,sh2x_au,sh2x_1_aushau.wav,sh2x_8_auxau.wav,,FALSE,FALSE,,,,,,,,,,,,,,f,0.5006,space,0.834,,,,,,,,0,78,78,106,1,,
63beebaa4c5884797ff00a98,2023-06-16_10h23.23.311,phx_ver10,2022.2.5,Win32,60.06006006,,,,,,,,,,,,1,testing_1,zh2x,a,zh2x_a,zh2x_1_azha.wav,zh2x_1_azha_copy.wav,,TRUE,TRUE,,,,,,,,,,,,,,f,0.2177,space,0.6507,,,,,,,,0,79,79,0,1,,
63beebaa4c5884797ff00a98,2023-06-16_10h23.23.311,phx_ver10,2022.2.5,Win32,60.06006006,,,,,,,,,,,,132,testing_3,sh2j,au,sh2j_au,sh2j_8_aujau.wav,sh2j_1_aushau.wav,,FALSE,FALSE,,,,,,,,,,,,,,j,0.3007,space,0.6675,,,,,,,,0,80,80,131,1,,
63beebaa4c5884797ff00a98,2023-06-16_10h23.23.311,phx_ver10,2022.2.5,Win32,60.06006006,,,,,,,,,,,,39,testing_3,zh2sh,e,zh2sh_e,zh2sh_1_ezhe.wav,zh2sh_8_eshe.wav,,FALSE,FALSE,,,,,,,,,,,,,,j,0.2173,space,0.5506,,,,,,,,0,81,81,38,1,,
63beebaa4c5884797ff00a98,2023-06-16_10h23.23.311,phx_ver10,2022.2.5,Win32,60.06006006,,,,,,,,,,,,106,testing_3,sh2x,au,sh2x_au,sh2x_8_auxau.wav,sh2x_8_auxau.wav,,TRUE,FALSE,,,,,,,,,,,,,,f,0.0006,space,0.3338,,,,,,,,0,82,82,105,1,,
63beebaa4c5884797ff00a98,2023-06-16_10h23.23.311,phx_ver10,2022.2.5,Win32,60.06006006,,,,,,,,,,,,94,testing_3,j2x,i,j2x_i,j2x_8_ixi.wav,j2x_8_ixi.wav,,TRUE,FALSE,,,,,,,,,,,,,,f,0.1281,space,0.4449,,,,,,,,0,83,83,93,1,,
63beebaa4c5884797ff00a98,2023-06-16_10h23.23.311,phx_ver10,2022.2.5,Win32,60.06006006,,,,,,,,,,,,119,testing_3,sh2x,i,sh2x_i,sh2x_1_ishi.wav,sh2x_8_ixi.wav,,FALSE,FALSE,,,,,,,,,,,,,,f,0.4908,space,0.8174,,,,,,,,0,84,84,118,1,,
63beebaa4c5884797ff00a98,2023-06-16_10h23.23.311,phx_ver10,2022.2.5,Win32,60.06006006,,,,,,,,,,,,12,testing_1,zh2x,i,zh2x_i,zh2x_8_ixi.wav,zh2x_1_izhi.wav,,FALSE,TRUE,,,,,,,,,,,,,,j,0.0006,space,0.2837,,,,,,,,0,85,85,11,1,,
63beebaa4c5884797ff00a98,2023-06-16_10h23.23.311,phx_ver10,2022.2.5,Win32,60.06006006,,,,,,,,,,,,110,testing_3,sh2x,e,sh2x_e,sh2x_8_exe.wav,sh2x_8_exe.wav,,TRUE,FALSE,,,,,,,,,,,,,,f,0.4508,space,0.7243,,,,,,,,0,86,86,109,1,,
63beebaa4c5884797ff00a98,2023-06-16_10h23.23.311,phx_ver10,2022.2.5,Win32,60.06006006,,,,,,,,,,,,60,testing_3,zh2j,au,zh2j_au,zh2j_8_aujau.wav,zh2j_1_auzhau.wav,,FALSE,FALSE,,,,,,,,,,,,,,f,0.4506,space,0.755,,,,,,,,0,87,87,59,1,,
63beebaa4c5884797ff00a98,2023-06-16_10h23.23.311,phx_ver10,2022.2.5,Win32,60.06006006,,,,,,,,,,,,8,testing_1,zh2x,e,zh2x_e,zh2x_8_exe.wav,zh2x_1_ezhe.wav,,FALSE,TRUE,,,,,,,,,,,,,,j,0.2551,space,0.6477,,,,,,,,0,88,88,7,1,,
63beebaa4c5884797ff00a98,2023-06-16_10h23.23.311,phx_ver10,2022.2.5,Win32,60.06006006,,,,,,,,,,,,84,testing_3,j2x,au,j2x_au,j2x_8_auxau.wav,j2x_1_aujau.wav,,FALSE,FALSE,,,,,,,,,,,,,,j,1.0881,space,1.5002,,,,,,,,0,89,89,83,1,,
63beebaa4c5884797ff00a98,2023-06-16_10h23.23.311,phx_ver10,2022.2.5,Win32,60.06006006,,,,,,,,,,,,123,testing_3,sh2j,a,sh2j_a,sh2j_1_asha.wav,sh2j_8_aja.wav,,FALSE,FALSE,,,,,,,,,,,,,,j,0.2501,space,0.6703,,,,,,,,0,90,90,122,1,,
63beebaa4c5884797ff00a98,2023-06-16_10h23.23.311,phx_ver10,2022.2.5,Win32,60.06006006,,,,,,,,,,,,3,testing_1,zh2x,a,zh2x_a,zh2x_1_azha.wav,zh2x_8_axa.wav,,FALSE,TRUE,,,,,,,,,,,,,,j,0.1506,space,0.5509,,,,,,,,0,91,91,2,1,,
63beebaa4c5884797ff00a98,2023-06-16_10h23.23.311,phx_ver10,2022.2.5,Win32,60.06006006,,,,,,,,,,,,128,testing_3,sh2j,ai,sh2j_ai,sh2j_8_aijai.wav,sh2j_1_aishai.wav,,FALSE,FALSE,,,,,,,,,,,,,,j,0.5386,space,0.8581,,,,,,,,0,92,92,127,1,,
63beebaa4c5884797ff00a98,2023-06-16_10h23.23.311,phx_ver10,2022.2.5,Win32,60.06006006,,,,,,,,,,,,125,testing_3,sh2j,ai,sh2j_ai,sh2j_1_aishai.wav,sh2j_1_aishai.wav,,TRUE,FALSE,,,,,,,,,,,,,,f,0.551,space,0.901,,,,,,,,0,93,93,124,1,,
63beebaa4c5884797ff00a98,2023-06-16_10h23.23.311,phx_ver10,2022.2.5,Win32,60.06006006,,,,,,,,,,,,103,testing_3,sh2x,ai,sh2x_ai,sh2x_1_aishai.wav,sh2x_8_aixai.wav,,FALSE,FALSE,,,,,,,,,,,,,,f,0.4508,space,1.1331,,,,,,,,0,94,94,102,1,,
63beebaa4c5884797ff00a98,2023-06-16_10h23.23.311,phx_ver10,2022.2.5,Win32,60.06006006,,,,,,,,,,,,21,testing_2,zh2x,ei,zh2x_ei,zh2x_1_eizhei.wav,zh2x_1_eizhei.wav,,TRUE,FALSE,,,,,,,,,,,,,,f,0.3674,space,0.9362,,,,,,,,0,95,95,20,1,,
63beebaa4c5884797ff00a98,2023-06-16_10h23.23.311,phx_ver10,2022.2.5,Win32,60.06006006,,,,,,,,,,,,10,testing_1,zh2x,i,zh2x_i,zh2x_8_ixi.wav,zh2x_8_ixi_copy.wav,,TRUE,TRUE,,,,,,,,,,,,,,f,0.3662,space,0.7563,,,,,,,,0,96,96,9,1,,
63beebaa4c5884797ff00a98,2023-06-16_10h23.23.311,phx_ver10,2022.2.5,Win32,60.06006006,,,,,,,,,,,,53,testing_3,zh2j,ai,zh2j_ai,zh2j_1_aizhai.wav,zh2j_1_aizhai.wav,,TRUE,FALSE,,,,,,,,,,,,,,f,0.0021,space,0.3542,,,,,,,,0,97,97,52,1,,
63beebaa4c5884797ff00a98,2023-06-16_10h23.23.311,phx_ver10,2022.2.5,Win32,60.06006006,,,,,,,,,,,,9,testing_1,zh2x,i,zh2x_i,zh2x_1_izhi.wav,zh2x_1_izhi_copy.wav,,TRUE,TRUE,,,,,,,,,,,,,,f,0.4068,space,0.7187,,,,,,,,0,98,98,8,1,,
63beebaa4c5884797ff00a98,2023-06-16_10h23.23.311,phx_ver10,2022.2.5,Win32,60.06006006,,,,,,,,,,,,133,testing_3,sh2j,e,sh2j_e,sh2j_1_eshe.wav,sh2j_1_eshe.wav,,TRUE,FALSE,,,,,,,,,,,,,,f,0.0045,space,0.4336,,,,,,,,0,99,99,132,1,,
63beebaa4c5884797ff00a98,2023-06-16_10h23.23.311,phx_ver10,2022.2.5,Win32,60.06006006,,,,,,,,,,,,55,testing_3,zh2j,ai,zh2j_ai,zh2j_1_aizhai.wav,zh2j_8_aijai.wav,,FALSE,FALSE,,,,,,,,,,,,,,f,0.0381,space,0.4164,,,,,,,,0,100,100,54,1,,
63beebaa4c5884797ff00a98,2023-06-16_10h23.23.311,phx_ver10,2022.2.5,Win32,60.06006006,,,,,,,,,,,,11,testing_1,zh2x,i,zh2x_i,zh2x_1_izhi.wav,zh2x_8_ixi.wav,,FALSE,TRUE,,,,,,,,,,,,,,j,0.2674,space,0.634,,,,,,,,0,101,101,10,1,,
63beebaa4c5884797ff00a98,2023-06-16_10h23.23.311,phx_ver10,2022.2.5,Win32,60.06006006,,,,,,,,,,,,135,testing_3,sh2j,e,sh2j_e,sh2j_1_eshe.wav,sh2j_8_eje.wav,,FALSE,FALSE,,,,,,,,,,,,,,j,0.167,space,0.5368,,,,,,,,0,102,102,134,1,,
63beebaa4c5884797ff00a98,2023-06-16_10h23.23.311,phx_ver10,2022.2.5,Win32,60.06006006,,,,,,,,,,,,34,testing_3,zh2sh,au,zh2sh_au,zh2sh_8_aushau.wav,zh2sh_8_aushau.wav,,TRUE,FALSE,,,,,,,,,,,,,,f,0.3027,space,0.6386,,,,,,,,0,103,103,33,1,,
63beebaa4c5884797ff00a98,2023-06-16_10h23.23.311,phx_ver10,2022.2.5,Win32,60.06006006,,,,,,,,,,,,70,testing_3,zh2j,i,zh2j_i,zh2j_8_iji.wav,zh2j_8_iji.wav,,TRUE,FALSE,,,,,,,,,,,,,,f,0.337,space,0.633,,,,,,,,0,104,104,69,1,,
63beebaa4c5884797ff00a98,2023-06-16_10h23.23.311,phx_ver10,2022.2.5,Win32,60.06006006,,,,,,,,,,,,45,testing_3,zh2sh,i,zh2sh_i,zh2sh_1_izhi.wav,zh2sh_1_izhi.wav,,TRUE,FALSE,,,,,,,,,,,,,,f,0.3213,space,0.6414,,,,,,,,0,105,105,44,1,,
63beebaa4c5884797ff00a98,2023-06-16_10h23.23.311,phx_ver10,2022.2.5,Win32,60.06006006,,,,,,,,,,,,29,testing_3,zh2sh,ai,zh2sh_ai,zh2sh_1_aizhai.wav,zh2sh_1_aizhai.wav,,TRUE,FALSE,,,,,,,,,,,,,,f,0.1005,space,0.5173,,,,,,,,0,106,106,28,1,,
63beebaa4c5884797ff00a98,2023-06-16_10h23.23.311,phx_ver10,2022.2.5,Win32,60.06006006,,,,,,,,,,,,141,testing_3,sh2j,i,sh2j_i,sh2j_1_ishi.wav,sh2j_1_ishi.wav,,TRUE,FALSE,,,,,,,,,,,,,,f,0.3338,space,0.6243,,,,,,,,0,107,107,140,1,,
63beebaa4c5884797ff00a98,2023-06-16_10h23.23.311,phx_ver10,2022.2.5,Win32,60.06006006,,,,,,,,,,,,136,testing_3,sh2j,e,sh2j_e,sh2j_8_eje.wav,sh2j_1_eshe.wav,,FALSE,FALSE,,,,,,,,,,,,,,j,0.0435,space,0.5177,,,,,,,,0,108,108,135,1,,
63beebaa4c5884797ff00a98,2023-06-16_10h23.23.311,phx_ver10,2022.2.5,Win32,60.06006006,,,,,,,,,,,,122,testing_3,sh2j,a,sh2j_a,sh2j_8_aja.wav,sh2j_8_aja.wav,,TRUE,FALSE,,,,,,,,,,,,,,f,1.1336,space,8.9669,,,,,,,,0,109,109,121,1,,
63beebaa4c5884797ff00a98,2023-06-16_10h23.23.311,phx_ver10,2022.2.5,Win32,60.06006006,,,,,,,,,,,,48,testing_3,zh2sh,i,zh2sh_i,zh2sh_8_ishi.wav,zh2sh_1_izhi.wav,,FALSE,FALSE,,,,,,,,,,,,,,j,0.1837,space,0.5725,,,,,,,,0,110,110,47,1,,
63beebaa4c5884797ff00a98,2023-06-16_10h23.23.311,phx_ver10,2022.2.5,Win32,60.06006006,,,,,,,,,,,,58,testing_3,zh2j,au,zh2j_au,zh2j_8_aujau.wav,zh2j_8_aujau.wav,,TRUE,FALSE,,,,,,,,,,,,,,f,0.0507,space,0.3671,,,,,,,,0,111,111,57,1,,
63beebaa4c5884797ff00a98,2023-06-16_10h23.23.311,phx_ver10,2022.2.5,Win32,60.06006006,,,,,,,,,,,,14,testing_2,zh2x,ai,zh2x_ai,zh2x_8_aixai.wav,zh2x_8_aixai.wav,,TRUE,FALSE,,,,,,,,,,,,,,f,0.4008,space,0.7007,,,,,,,,0,112,112,13,1,,
63beebaa4c5884797ff00a98,2023-06-16_10h23.23.311,phx_ver10,2022.2.5,Win32,60.06006006,,,,,,,,,,,,87,testing_3,j2x,e,j2x_e,j2x_1_eje.wav,j2x_8_exe.wav,,FALSE,FALSE,,,,,,,,,,,,,,j,0.6007,space,0.9672,,,,,,,,0,113,113,86,1,,
63beebaa4c5884797ff00a98,2023-06-16_10h23.23.311,phx_ver10,2022.2.5,Win32,60.06006006,,,,,,,,,,,,129,testing_3,sh2j,au,sh2j_au,sh2j_1_aushau.wav,sh2j_1_aushau.wav,,TRUE,FALSE,,,,,,,,,,,,,,f,0.1507,space,0.5838,,,,,,,,0,114,114,128,1,,
63beebaa4c5884797ff00a98,2023-06-16_10h23.23.311,phx_ver10,2022.2.5,Win32,60.06006006,,,,,,,,,,,,26,testing_3,zh2sh,a,zh2sh_a,zh2sh_8_asha.wav,zh2sh_8_asha.wav,,TRUE,FALSE,,,,,,,,,,,,,,f,0.2526,space,0.6787,,,,,,,,0,115,115,25,1,,
63beebaa4c5884797ff00a98,2023-06-16_10h23.23.311,phx_ver10,2022.2.5,Win32,60.06006006,,,,,,,,,,,,95,testing_3,j2x,i,j2x_i,j2x_1_iji.wav,j2x_8_ixi.wav,,FALSE,FALSE,,,,,,,,,,,,,,j,0.2453,space,0.6285,,,,,,,,0,116,116,94,1,,
63beebaa4c5884797ff00a98,2023-06-16_10h23.23.311,phx_ver10,2022.2.5,Win32,60.06006006,,,,,,,,,,,,62,testing_3,zh2j,e,zh2j_e,zh2j_8_eje.wav,zh2j_8_eje.wav,,TRUE,FALSE,,,,,,,,,,,,,,f,0.217,space,0.5669,,,,,,,,0,117,117,61,1,,
63beebaa4c5884797ff00a98,2023-06-16_10h23.23.311,phx_ver10,2022.2.5,Win32,60.06006006,,,,,,,,,,,,108,testing_3,sh2x,au,sh2x_au,sh2x_8_auxau.wav,sh2x_1_aushau.wav,,FALSE,FALSE,,,,,,,,,,,,,,f,0.2287,space,0.5948,,,,,,,,0,118,118,107,1,,
63beebaa4c5884797ff00a98,2023-06-16_10h23.23.311,phx_ver10,2022.2.5,Win32,60.06006006,,,,,,,,,,,,121,testing_3,sh2j,a,sh2j_a,sh2j_1_asha.wav,sh2j_1_asha.wav,,TRUE,FALSE,,,,,,,,,,,,,,f,0.1555,space,0.5501,,,,,,,,0,119,119,120,1,,
63beebaa4c5884797ff00a98,2023-06-16_10h23.23.311,phx_ver10,2022.2.5,Win32,60.06006006,,,,,,,,,,,,33,testing_3,zh2sh,au,zh2sh_au,zh2sh_1_auzhau.wav,zh2sh_1_auzhau.wav,,TRUE,FALSE,,,,,,,,,,,,,,f,0.0675,space,0.4337,,,,,,,,0,120,120,32,1,,
63beebaa4c5884797ff00a98,2023-06-16_10h23.23.311,phx_ver10,2022.2.5,Win32,60.06006006,,,,,,,,,,,,98,testing_3,sh2x,a,sh2x_a,sh2x_8_axa.wav,sh2x_8_axa.wav,,TRUE,FALSE,,,,,,,,,,,,,,f,0.034,space,0.334,,,,,,,,0,121,121,97,1,,
63beebaa4c5884797ff00a98,2023-06-16_10h23.23.311,phx_ver10,2022.2.5,Win32,60.06006006,,,,,,,,,,,,140,testing_3,sh2j,ei,sh2j_ei,sh2j_8_eijei.wav,sh2j_1_eishei.wav,,FALSE,FALSE,,,,,,,,,,,,,,j,0.2451,space,0.5786,,,,,,,,0,122,122,139,1,,
63beebaa4c5884797ff00a98,2023-06-16_10h23.23.311,phx_ver10,2022.2.5,Win32,60.06006006,,,,,,,,,,,,46,testing_3,zh2sh,i,zh2sh_i,zh2sh_8_ishi.wav,zh2sh_8_ishi.wav,,TRUE,FALSE,,,,,,,,,,,,,,f,0.3509,space,0.6839,,,,,,,,0,123,123,45,1,,
63beebaa4c5884797ff00a98,2023-06-16_10h23.23.311,phx_ver10,2022.2.5,Win32,60.06006006,,,,,,,,,,,,6,testing_1,zh2x,e,zh2x_e,zh2x_8_exe.wav,zh2x_8_exe_copy.wav,,TRUE,TRUE,,,,,,,,,,,,,,f,0.156,space,0.5057,,,,,,,,0,124,124,5,1,,
63beebaa4c5884797ff00a98,2023-06-16_10h23.23.311,phx_ver10,2022.2.5,Win32,60.06006006,,,,,,,,,,,,31,testing_3,zh2sh,ai,zh2sh_ai,zh2sh_1_aizhai.wav,zh2sh_8_aishai.wav,,FALSE,FALSE,,,,,,,,,,,,,,j,0.0508,space,0.3337,,,,,,,,0,125,125,30,1,,
63beebaa4c5884797ff00a98,2023-06-16_10h23.23.311,phx_ver10,2022.2.5,Win32,60.06006006,,,,,,,,,,,,38,testing_3,zh2sh,e,zh2sh_e,zh2sh_8_eshe.wav,zh2sh_8_eshe.wav,,TRUE,FALSE,,,,,,,,,,,,,,f,0.5171,space,0.8224,,,,,,,,0,126,126,37,1,,
63beebaa4c5884797ff00a98,2023-06-16_10h23.23.311,phx_ver10,2022.2.5,Win32,60.06006006,,,,,,,,,,,,30,testing_3,zh2sh,ai,zh2sh_ai,zh2sh_8_aishai.wav,zh2sh_8_aishai.wav,,TRUE,FALSE,,,,,,,,,,,,,,f,0.3674,space,0.7171,,,,,,,,0,127,127,29,1,,
63beebaa4c5884797ff00a98,2023-06-16_10h23.23.311,phx_ver10,2022.2.5,Win32,60.06006006,,,,,,,,,,,,57,testing_3,zh2j,au,zh2j_au,zh2j_1_auzhau.wav,zh2j_1_auzhau.wav,,TRUE,FALSE,,,,,,,,,,,,,,f,0.4338,space,0.7841,,,,,,,,0,128,128,56,1,,
63beebaa4c5884797ff00a98,2023-06-16_10h23.23.311,phx_ver10,2022.2.5,Win32,60.06006006,,,,,,,,,,,,72,testing_3,zh2j,i,zh2j_i,zh2j_8_iji.wav,zh2j_1_izhi.wav,,FALSE,FALSE,,,,,,,,,,,,,,f,0.1171,space,0.5506,,,,,,,,0,129,129,71,1,,
63beebaa4c5884797ff00a98,2023-06-16_10h23.23.311,phx_ver10,2022.2.5,Win32,60.06006006,,,,,,,,,,,,37,testing_3,zh2sh,e,zh2sh_e,zh2sh_1_ezhe.wav,zh2sh_1_ezhe.wav,,TRUE,FALSE,,,,,,,,,,,,,,f,0.0057,space,0.384,,,,,,,,0,130,130,36,1,,
63beebaa4c5884797ff00a98,2023-06-16_10h23.23.311,phx_ver10,2022.2.5,Win32,60.06006006,,,,,,,,,,,,36,testing_3,zh2sh,au,zh2sh_au,zh2sh_8_aushau.wav,zh2sh_1_auzhau.wav,,FALSE,FALSE,,,,,,,,,,,,,,j,0.7506,space,1.0505,,,,,,,,0,131,131,35,1,,
63beebaa4c5884797ff00a98,2023-06-16_10h23.23.311,phx_ver10,2022.2.5,Win32,60.06006006,,,,,,,,,,,,124,testing_3,sh2j,a,sh2j_a,sh2j_8_aja.wav,sh2j_1_asha.wav,,FALSE,FALSE,,,,,,,,,,,,,,j,2.0175,space,2.334,,,,,,,,0,132,132,123,1,,
63beebaa4c5884797ff00a98,2023-06-16_10h23.23.311,phx_ver10,2022.2.5,Win32,60.06006006,,,,,,,,,,,,73,testing_3,j2x,a,j2x_a,j2x_1_aja.wav,j2x_1_aja.wav,,TRUE,FALSE,,,,,,,,,,,,,,f,0.045,space,0.3949,,,,,,,,0,133,133,72,1,,
63beebaa4c5884797ff00a98,2023-06-16_10h23.23.311,phx_ver10,2022.2.5,Win32,60.06006006,,,,,,,,,,,,54,testing_3,zh2j,ai,zh2j_ai,zh2j_8_aijai.wav,zh2j_8_aijai.wav,,TRUE,FALSE,,,,,,,,,,,,,,f,0.3617,space,0.7284,,,,,,,,0,134,134,53,1,,
63beebaa4c5884797ff00a98,2023-06-16_10h23.23.311,phx_ver10,2022.2.5,Win32,60.06006006,,,,,,,,,,,,89,testing_3,j2x,ei,j2x_ei,j2x_1_eijei.wav,j2x_1_eijei.wav,,TRUE,FALSE,,,,,,,,,,,,,,f,0.0671,space,0.5006,,,,,,,,0,135,135,88,1,,
63beebaa4c5884797ff00a98,2023-06-16_10h23.23.311,phx_ver10,2022.2.5,Win32,60.06006006,,,,,,,,,,,,71,testing_3,zh2j,i,zh2j_i,zh2j_1_izhi.wav,zh2j_8_iji.wav,,FALSE,FALSE,,,,,,,,,,,,,,f,0.4457,space,0.7454,,,,,,,,0,136,136,70,1,,
63beebaa4c5884797ff00a98,2023-06-16_10h23.23.311,phx_ver10,2022.2.5,Win32,60.06006006,,,,,,,,,,,,25,testing_3,zh2sh,a,zh2sh_a,zh2sh_1_azha.wav,zh2sh_1_azha.wav,,TRUE,FALSE,,,,,,,,,,,,,,f,0.2059,space,0.6173,,,,,,,,0,137,137,24,1,,
63beebaa4c5884797ff00a98,2023-06-16_10h23.23.311,phx_ver10,2022.2.5,Win32,60.06006006,,,,,,,,,,,,117,testing_3,sh2x,i,sh2x_i,sh2x_1_ishi.wav,sh2x_1_ishi.wav,,TRUE,FALSE,,,,,,,,,,,,,,f,0.4448,space,0.7448,,,,,,,,0,138,138,116,1,,
63beebaa4c5884797ff00a98,2023-06-16_10h23.23.311,phx_ver10,2022.2.5,Win32,60.06006006,,,,,,,,,,,,80,testing_3,j2x,ai,j2x_ai,j2x_8_aixai.wav,j2x_1_aijai.wav,,FALSE,FALSE,,,,,,,,,,,,,,j,0.3172,space,0.7005,,,,,,,,0,139,139,79,1,,
63beebaa4c5884797ff00a98,2023-06-16_10h23.23.311,phx_ver10,2022.2.5,Win32,60.06006006,,,,,,,,,,,,5,testing_1,zh2x,e,zh2x_e,zh2x_1_ezhe.wav,zh2x_1_ezhe_copy.wav,,TRUE,TRUE,,,,,,,,,,,,,,f,0.4015,space,0.7176,,,,,,,,0,140,140,4,1,,
63beebaa4c5884797ff00a98,2023-06-16_10h23.23.311,phx_ver10,2022.2.5,Win32,60.06006006,,,,,,,,,,,,51,testing_3,zh2j,a,zh2j_a,zh2j_1_azha.wav,zh2j_8_aja.wav,,FALSE,FALSE,,,,,,,,,,,,,,f,0.3843,space,0.7173,,,,,,,,0,141,141,50,1,,
63beebaa4c5884797ff00a98,2023-06-16_10h23.23.311,phx_ver10,2022.2.5,Win32,60.06006006,,,,,,,,,,,,83,testing_3,j2x,au,j2x_au,j2x_1_aujau.wav,j2x_8_auxau.wav,,FALSE,FALSE,,,,,,,,,,,,,,j,0.0986,space,0.3556,,,,,,,,0,142,142,82,1,,
63beebaa4c5884797ff00a98,2023-06-16_10h23.23.311,phx_ver10,2022.2.5,Win32,60.06006006,,,,,,,,,,,,120,testing_3,sh2x,i,sh2x_i,sh2x_8_ixi.wav,sh2x_1_ishi.wav,,FALSE,FALSE,,,,,,,,,,,,,,f,0.4005,space,0.6904,,,,,,,,0,143,143,119,1,,
63beebaa4c5884797ff00a98,2023-06-16_10h23.23.311,phx_ver10,2022.2.5,Win32,60.06006006,,,,,,,,,,,,,,,,,,,,,,,,,,,,,,,,,,,,,,,,,,,,,,,,,,,space,2.6716
