participant,date,expName,psychopyVersion,OS,frameRate,space_1.keys,space_1.rt,space_2.keys,space_2.rt,space_train.keys,space_train.rt,training.thisRepN,training.thisTrialN,training.thisN,training.thisIndex,training.ran,token_id,task,continuum,vowel,series,sound_1,sound_2,img,same,trained,FJ_attn.keys,FJ_attn.rt,space_attn.keys,space_attn.rt,if_attn_test.thisRepN,if_attn_test.thisTrialN,if_attn_test.thisN,if_attn_test.thisIndex,if_attn_test.ran,space_trans_1.keys,space_trans_1.rt,space_trans_11.keys,space_trans_11.rt,FJ_test.keys,FJ_test.rt,space_test.keys,space_test.rt,testing_pre.thisRepN,testing_pre.thisTrialN,testing_pre.thisN,testing_pre.thisIndex,testing_pre.ran,space_trans_2.keys,space_trans_2.rt,testing_all.thisRepN,testing_all.thisTrialN,testing_all.thisN,testing_all.thisIndex,testing_all.ran,space_ending.keys,space_ending.rt
63d14e0eb3f244e8d5f88f48,2023-06-16_10h43.02.450,phx_ver10,2022.2.5,Win32,59.34718101,,,,,,,,,,,,,,,,,,,,,,,,,,,,,,,,,,,,,,,,,,,,,,,,,,,,
63d14e0eb3f244e8d5f88f48,2023-06-16_10h43.02.450,phx_ver10,2022.2.5,Win32,59.34718101,space,2.4576,,,,,,,,,,,,,,,,,,,,,,,,,,,,,,,,,,,,,,,,,,,,,,,,,,
63d14e0eb3f244e8d5f88f48,2023-06-16_10h43.02.450,phx_ver10,2022.2.5,Win32,59.34718101,,,space,3.8488,,,,,,,,,,,,,,,,,,,,,,,,,,,,,,,,,,,,,,,,,,,,,,,,
63d14e0eb3f244e8d5f88f48,2023-06-16_10h43.02.450,phx_ver10,2022.2.5,Win32,59.34718101,,,,,space,2.1683,0,0,0,3,1,4,training,zh2x,a,zh2x_a,zh2x_2_azha.wav,,azha.jpg,,,,,,,,,,,,,,,,,,,,,,,,,,,,,,,,,
63d14e0eb3f244e8d5f88f48,2023-06-16_10h43.02.450,phx_ver10,2022.2.5,Win32,59.34718101,,,,,space,4.5369,0,1,1,20,1,21,training,zh2x,e,zh2x_e,zh2x_2_ezhe.wav,,ezhe.jpg,,,,,,,,,,,,,,,,,,,,,,,,,,,,,,,,,
63d14e0eb3f244e8d5f88f48,2023-06-16_10h43.02.450,phx_ver10,2022.2.5,Win32,59.34718101,,,,,space,1.4421,0,2,2,31,1,32,training,zh2x,e,zh2x_e,zh2x_8_exe.wav,,exe.jpg,,,,,,,,,,,,,,,,,,,,,,,,,,,,,,,,,
63d14e0eb3f244e8d5f88f48,2023-06-16_10h43.02.450,phx_ver10,2022.2.5,Win32,59.34718101,,,,,space,1.56,0,3,3,43,1,44,training,zh2x,i,zh2x_i,zh2x_7_ixi.wav,,ixi.jpg,,,,,,,,,,,,,,,,,,,,,,,,,,,,,,,,,
63d14e0eb3f244e8d5f88f48,2023-06-16_10h43.02.450,phx_ver10,2022.2.5,Win32,59.34718101,,,,,space,0.9414,0,4,4,7,1,8,training,zh2x,a,zh2x_a,zh2x_4_azha.wav,,azha.jpg,,,,,,,,,,,,,,,,,,,,,,,,,,,,,,,,,
63d14e0eb3f244e8d5f88f48,2023-06-16_10h43.02.450,phx_ver10,2022.2.5,Win32,59.34718101,,,,,space,2.5585,0,5,5,41,1,42,training,zh2x,i,zh2x_i,zh2x_6_ixi.wav,,ixi.jpg,,,,,,,,,,,,,,,,,,,,,,,,,,,,,,,,,
63d14e0eb3f244e8d5f88f48,2023-06-16_10h43.02.450,phx_ver10,2022.2.5,Win32,59.34718101,,,,,,,,,,,,,attn_test,,,,zh2x_8_exe.wav,zh2x_1_azha.wav,azha.jpg,RIGHT,,j,2.0763,space,8.5805,0,0,0,0,1,,,,,,,,,,,,,,,,,,,,,,
63d14e0eb3f244e8d5f88f48,2023-06-16_10h43.02.450,phx_ver10,2022.2.5,Win32,59.34718101,,,,,space,2.0055,0,6,6,8,1,9,training,zh2x,a,zh2x_a,zh2x_5_axa.wav,,axa.jpg,,,,,,,,,,,,,,,,,,,,,,,,,,,,,,,,,
63d14e0eb3f244e8d5f88f48,2023-06-16_10h43.02.450,phx_ver10,2022.2.5,Win32,59.34718101,,,,,space,2.7971,0,7,7,2,1,3,training,zh2x,a,zh2x_a,zh2x_2_azha.wav,,azha.jpg,,,,,,,,,,,,,,,,,,,,,,,,,,,,,,,,,
63d14e0eb3f244e8d5f88f48,2023-06-16_10h43.02.450,phx_ver10,2022.2.5,Win32,59.34718101,,,,,space,0.5014,0,8,8,42,1,43,training,zh2x,i,zh2x_i,zh2x_6_ixi.wav,,ixi.jpg,,,,,,,,,,,,,,,,,,,,,,,,,,,,,,,,,
63d14e0eb3f244e8d5f88f48,2023-06-16_10h43.02.450,phx_ver10,2022.2.5,Win32,59.34718101,,,,,space,0.5727,0,9,9,34,1,35,training,zh2x,i,zh2x_i,zh2x_2_izhi.wav,,izhi.jpg,,,,,,,,,,,,,,,,,,,,,,,,,,,,,,,,,
63d14e0eb3f244e8d5f88f48,2023-06-16_10h43.02.450,phx_ver10,2022.2.5,Win32,59.34718101,,,,,space,0.5325,0,10,10,4,1,5,training,zh2x,a,zh2x_a,zh2x_2_azha.wav,,azha.jpg,,,,,,,,,,,,,,,,,,,,,,,,,,,,,,,,,
63d14e0eb3f244e8d5f88f48,2023-06-16_10h43.02.450,phx_ver10,2022.2.5,Win32,59.34718101,,,,,space,1.1353,0,11,11,45,1,46,training,zh2x,i,zh2x_i,zh2x_7_ixi.wav,,ixi.jpg,,,,,,,,,,,,,,,,,,,,,,,,,,,,,,,,,
63d14e0eb3f244e8d5f88f48,2023-06-16_10h43.02.450,phx_ver10,2022.2.5,Win32,59.34718101,,,,,,,,,,,,,attn_test,,,,zh2x_8_ixi.wav,zh2x_1_azha.wav,ixi.jpg,LEFT,,f,2.6541,space,3.5884,0,0,0,0,1,,,,,,,,,,,,,,,,,,,,,,
63d14e0eb3f244e8d5f88f48,2023-06-16_10h43.02.450,phx_ver10,2022.2.5,Win32,59.34718101,,,,,space,0.9351,0,12,12,38,1,39,training,zh2x,i,zh2x_i,zh2x_3_izhi.wav,,izhi.jpg,,,,,,,,,,,,,,,,,,,,,,,,,,,,,,,,,
63d14e0eb3f244e8d5f88f48,2023-06-16_10h43.02.450,phx_ver10,2022.2.5,Win32,59.34718101,,,,,space,0.5855,0,13,13,5,1,6,training,zh2x,a,zh2x_a,zh2x_3_azha.wav,,azha.jpg,,,,,,,,,,,,,,,,,,,,,,,,,,,,,,,,,
63d14e0eb3f244e8d5f88f48,2023-06-16_10h43.02.450,phx_ver10,2022.2.5,Win32,59.34718101,,,,,space,1.7272,0,14,14,37,1,38,training,zh2x,i,zh2x_i,zh2x_3_izhi.wav,,izhi.jpg,,,,,,,,,,,,,,,,,,,,,,,,,,,,,,,,,
63d14e0eb3f244e8d5f88f48,2023-06-16_10h43.02.450,phx_ver10,2022.2.5,Win32,59.34718101,,,,,space,0.7004,0,15,15,10,1,11,training,zh2x,a,zh2x_a,zh2x_6_axa.wav,,axa.jpg,,,,,,,,,,,,,,,,,,,,,,,,,,,,,,,,,
63d14e0eb3f244e8d5f88f48,2023-06-16_10h43.02.450,phx_ver10,2022.2.5,Win32,59.34718101,,,,,space,0.1226,0,16,16,13,1,14,training,zh2x,a,zh2x_a,zh2x_7_axa.wav,,axa.jpg,,,,,,,,,,,,,,,,,,,,,,,,,,,,,,,,,
63d14e0eb3f244e8d5f88f48,2023-06-16_10h43.02.450,phx_ver10,2022.2.5,Win32,59.34718101,,,,,space,0.1564,0,17,17,0,1,1,training,zh2x,a,zh2x_a,zh2x_1_azha.wav,,azha.jpg,,,,,,,,,,,,,,,,,,,,,,,,,,,,,,,,,
63d14e0eb3f244e8d5f88f48,2023-06-16_10h43.02.450,phx_ver10,2022.2.5,Win32,59.34718101,,,,,,,,,,,,,attn_test,,,,zh2x_8_exe.wav,zh2x_8_axa.wav,axa.jpg,RIGHT,,j,0.9871,space,1.8208,0,0,0,0,1,,,,,,,,,,,,,,,,,,,,,,
63d14e0eb3f244e8d5f88f48,2023-06-16_10h43.02.450,phx_ver10,2022.2.5,Win32,59.34718101,,,,,space,0.7907,0,18,18,23,1,24,training,zh2x,e,zh2x_e,zh2x_4_ezhe.wav,,ezhe.jpg,,,,,,,,,,,,,,,,,,,,,,,,,,,,,,,,,
63d14e0eb3f244e8d5f88f48,2023-06-16_10h43.02.450,phx_ver10,2022.2.5,Win32,59.34718101,,,,,space,0.126,0,19,19,9,1,10,training,zh2x,a,zh2x_a,zh2x_6_axa.wav,,axa.jpg,,,,,,,,,,,,,,,,,,,,,,,,,,,,,,,,,
63d14e0eb3f244e8d5f88f48,2023-06-16_10h43.02.450,phx_ver10,2022.2.5,Win32,59.34718101,,,,,space,0.7901,0,20,20,11,1,12,training,zh2x,a,zh2x_a,zh2x_7_axa.wav,,axa.jpg,,,,,,,,,,,,,,,,,,,,,,,,,,,,,,,,,
63d14e0eb3f244e8d5f88f48,2023-06-16_10h43.02.450,phx_ver10,2022.2.5,Win32,59.34718101,,,,,space,0.1677,0,21,21,24,1,25,training,zh2x,e,zh2x_e,zh2x_5_exe.wav,,exe.jpg,,,,,,,,,,,,,,,,,,,,,,,,,,,,,,,,,
63d14e0eb3f244e8d5f88f48,2023-06-16_10h43.02.450,phx_ver10,2022.2.5,Win32,59.34718101,,,,,space,0.638,0,22,22,19,1,20,training,zh2x,e,zh2x_e,zh2x_2_ezhe.wav,,ezhe.jpg,,,,,,,,,,,,,,,,,,,,,,,,,,,,,,,,,
63d14e0eb3f244e8d5f88f48,2023-06-16_10h43.02.450,phx_ver10,2022.2.5,Win32,59.34718101,,,,,space,0.0014,0,23,23,47,1,48,training,zh2x,i,zh2x_i,zh2x_8_ixi.wav,,ixi.jpg,,,,,,,,,,,,,,,,,,,,,,,,,,,,,,,,,
63d14e0eb3f244e8d5f88f48,2023-06-16_10h43.02.450,phx_ver10,2022.2.5,Win32,59.34718101,,,,,,,,,,,,,attn_test,,,,zh2x_8_axa.wav,zh2x_1_ezhe.wav,axa.jpg,LEFT,,f,1.0632,space,1.8863,0,0,0,0,1,,,,,,,,,,,,,,,,,,,,,,
63d14e0eb3f244e8d5f88f48,2023-06-16_10h43.02.450,phx_ver10,2022.2.5,Win32,59.34718101,,,,,space,0.3185,0,24,24,18,1,19,training,zh2x,e,zh2x_e,zh2x_2_ezhe.wav,,ezhe.jpg,,,,,,,,,,,,,,,,,,,,,,,,,,,,,,,,,
63d14e0eb3f244e8d5f88f48,2023-06-16_10h43.02.450,phx_ver10,2022.2.5,Win32,59.34718101,,,,,space,0.7659,0,25,25,40,1,41,training,zh2x,i,zh2x_i,zh2x_5_ixi.wav,,ixi.jpg,,,,,,,,,,,,,,,,,,,,,,,,,,,,,,,,,
63d14e0eb3f244e8d5f88f48,2023-06-16_10h43.02.450,phx_ver10,2022.2.5,Win32,59.34718101,,,,,space,0.0064,0,26,26,26,1,27,training,zh2x,e,zh2x_e,zh2x_6_exe.wav,,exe.jpg,,,,,,,,,,,,,,,,,,,,,,,,,,,,,,,,,
63d14e0eb3f244e8d5f88f48,2023-06-16_10h43.02.450,phx_ver10,2022.2.5,Win32,59.34718101,,,,,space,0.7201,0,27,27,17,1,18,training,zh2x,e,zh2x_e,zh2x_2_ezhe.wav,,ezhe.jpg,,,,,,,,,,,,,,,,,,,,,,,,,,,,,,,,,
63d14e0eb3f244e8d5f88f48,2023-06-16_10h43.02.450,phx_ver10,2022.2.5,Win32,59.34718101,,,,,space,0.3846,0,28,28,16,1,17,training,zh2x,e,zh2x_e,zh2x_1_ezhe.wav,,ezhe.jpg,,,,,,,,,,,,,,,,,,,,,,,,,,,,,,,,,
63d14e0eb3f244e8d5f88f48,2023-06-16_10h43.02.450,phx_ver10,2022.2.5,Win32,59.34718101,,,,,space,0.6209,0,29,29,44,1,45,training,zh2x,i,zh2x_i,zh2x_7_ixi.wav,,ixi.jpg,,,,,,,,,,,,,,,,,,,,,,,,,,,,,,,,,
63d14e0eb3f244e8d5f88f48,2023-06-16_10h43.02.450,phx_ver10,2022.2.5,Win32,59.34718101,,,,,,,,,,,,,attn_test,,,,zh2x_1_ezhe.wav,zh2x_8_exe.wav,ezhe.jpg,LEFT,,f,3.3574,space,4.1031,0,0,0,0,1,,,,,,,,,,,,,,,,,,,,,,
63d14e0eb3f244e8d5f88f48,2023-06-16_10h43.02.450,phx_ver10,2022.2.5,Win32,59.34718101,,,,,space,2.2688,0,30,30,30,1,31,training,zh2x,e,zh2x_e,zh2x_7_exe.wav,,exe.jpg,,,,,,,,,,,,,,,,,,,,,,,,,,,,,,,,,
63d14e0eb3f244e8d5f88f48,2023-06-16_10h43.02.450,phx_ver10,2022.2.5,Win32,59.34718101,,,,,space,1.0168,0,31,31,36,1,37,training,zh2x,i,zh2x_i,zh2x_2_izhi.wav,,izhi.jpg,,,,,,,,,,,,,,,,,,,,,,,,,,,,,,,,,
63d14e0eb3f244e8d5f88f48,2023-06-16_10h43.02.450,phx_ver10,2022.2.5,Win32,59.34718101,,,,,space,0.6208,0,32,32,14,1,15,training,zh2x,a,zh2x_a,zh2x_7_axa.wav,,axa.jpg,,,,,,,,,,,,,,,,,,,,,,,,,,,,,,,,,
63d14e0eb3f244e8d5f88f48,2023-06-16_10h43.02.450,phx_ver10,2022.2.5,Win32,59.34718101,,,,,space,0.641,0,33,33,33,1,34,training,zh2x,i,zh2x_i,zh2x_2_izhi.wav,,izhi.jpg,,,,,,,,,,,,,,,,,,,,,,,,,,,,,,,,,
63d14e0eb3f244e8d5f88f48,2023-06-16_10h43.02.450,phx_ver10,2022.2.5,Win32,59.34718101,,,,,space,0.9103,0,34,34,39,1,40,training,zh2x,i,zh2x_i,zh2x_4_izhi.wav,,izhi.jpg,,,,,,,,,,,,,,,,,,,,,,,,,,,,,,,,,
63d14e0eb3f244e8d5f88f48,2023-06-16_10h43.02.450,phx_ver10,2022.2.5,Win32,59.34718101,,,,,space,0.6495,0,35,35,21,1,22,training,zh2x,e,zh2x_e,zh2x_3_ezhe.wav,,ezhe.jpg,,,,,,,,,,,,,,,,,,,,,,,,,,,,,,,,,
63d14e0eb3f244e8d5f88f48,2023-06-16_10h43.02.450,phx_ver10,2022.2.5,Win32,59.34718101,,,,,,,,,,,,,attn_test,,,,zh2x_1_azha.wav,zh2x_1_ezhe.wav,ezhe.jpg,RIGHT,,j,2.1352,space,3.0509,0,0,0,0,1,,,,,,,,,,,,,,,,,,,,,,
63d14e0eb3f244e8d5f88f48,2023-06-16_10h43.02.450,phx_ver10,2022.2.5,Win32,59.34718101,,,,,space,1.6695,0,36,36,27,1,28,training,zh2x,e,zh2x_e,zh2x_7_exe.wav,,exe.jpg,,,,,,,,,,,,,,,,,,,,,,,,,,,,,,,,,
63d14e0eb3f244e8d5f88f48,2023-06-16_10h43.02.450,phx_ver10,2022.2.5,Win32,59.34718101,,,,,space,0.6341,0,37,37,29,1,30,training,zh2x,e,zh2x_e,zh2x_7_exe.wav,,exe.jpg,,,,,,,,,,,,,,,,,,,,,,,,,,,,,,,,,
63d14e0eb3f244e8d5f88f48,2023-06-16_10h43.02.450,phx_ver10,2022.2.5,Win32,59.34718101,,,,,space,0.6609,0,38,38,6,1,7,training,zh2x,a,zh2x_a,zh2x_3_azha.wav,,azha.jpg,,,,,,,,,,,,,,,,,,,,,,,,,,,,,,,,,
63d14e0eb3f244e8d5f88f48,2023-06-16_10h43.02.450,phx_ver10,2022.2.5,Win32,59.34718101,,,,,space,0.7934,0,39,39,1,1,2,training,zh2x,a,zh2x_a,zh2x_2_azha.wav,,azha.jpg,,,,,,,,,,,,,,,,,,,,,,,,,,,,,,,,,
63d14e0eb3f244e8d5f88f48,2023-06-16_10h43.02.450,phx_ver10,2022.2.5,Win32,59.34718101,,,,,space,0.1861,0,40,40,15,1,16,training,zh2x,a,zh2x_a,zh2x_8_axa.wav,,axa.jpg,,,,,,,,,,,,,,,,,,,,,,,,,,,,,,,,,
63d14e0eb3f244e8d5f88f48,2023-06-16_10h43.02.450,phx_ver10,2022.2.5,Win32,59.34718101,,,,,space,0.0066,0,41,41,46,1,47,training,zh2x,i,zh2x_i,zh2x_7_ixi.wav,,ixi.jpg,,,,,,,,,,,,,,,,,,,,,,,,,,,,,,,,,
63d14e0eb3f244e8d5f88f48,2023-06-16_10h43.02.450,phx_ver10,2022.2.5,Win32,59.34718101,,,,,,,,,,,,,attn_test,,,,zh2x_1_ezhe.wav,zh2x_8_exe.wav,exe.jpg,RIGHT,,j,0.5189,space,1.1105,0,0,0,0,1,,,,,,,,,,,,,,,,,,,,,,
63d14e0eb3f244e8d5f88f48,2023-06-16_10h43.02.450,phx_ver10,2022.2.5,Win32,59.34718101,,,,,space,11.6804,0,42,42,35,1,36,training,zh2x,i,zh2x_i,zh2x_2_izhi.wav,,izhi.jpg,,,,,,,,,,,,,,,,,,,,,,,,,,,,,,,,,
63d14e0eb3f244e8d5f88f48,2023-06-16_10h43.02.450,phx_ver10,2022.2.5,Win32,59.34718101,,,,,space,0.8999,0,43,43,12,1,13,training,zh2x,a,zh2x_a,zh2x_7_axa.wav,,axa.jpg,,,,,,,,,,,,,,,,,,,,,,,,,,,,,,,,,
63d14e0eb3f244e8d5f88f48,2023-06-16_10h43.02.450,phx_ver10,2022.2.5,Win32,59.34718101,,,,,space,1.3524,0,44,44,28,1,29,training,zh2x,e,zh2x_e,zh2x_7_exe.wav,,exe.jpg,,,,,,,,,,,,,,,,,,,,,,,,,,,,,,,,,
63d14e0eb3f244e8d5f88f48,2023-06-16_10h43.02.450,phx_ver10,2022.2.5,Win32,59.34718101,,,,,space,2.7606,0,45,45,25,1,26,training,zh2x,e,zh2x_e,zh2x_6_exe.wav,,exe.jpg,,,,,,,,,,,,,,,,,,,,,,,,,,,,,,,,,
63d14e0eb3f244e8d5f88f48,2023-06-16_10h43.02.450,phx_ver10,2022.2.5,Win32,59.34718101,,,,,space,0.4044,0,46,46,22,1,23,training,zh2x,e,zh2x_e,zh2x_3_ezhe.wav,,ezhe.jpg,,,,,,,,,,,,,,,,,,,,,,,,,,,,,,,,,
63d14e0eb3f244e8d5f88f48,2023-06-16_10h43.02.450,phx_ver10,2022.2.5,Win32,59.34718101,,,,,space,0.0275,0,47,47,32,1,33,training,zh2x,i,zh2x_i,zh2x_1_izhi.wav,,izhi.jpg,,,,,,,,,,,,,,,,,,,,,,,,,,,,,,,,,
63d14e0eb3f244e8d5f88f48,2023-06-16_10h43.02.450,phx_ver10,2022.2.5,Win32,59.34718101,,,,,,,,,,,,,attn_test,,,,zh2x_1_izhi.wav,zh2x_8_exe.wav,exe.jpg,RIGHT,,j,0.5325,space,1.0852,,,,,,,,,,,,,,,,,,,,,,,,,,,
63d14e0eb3f244e8d5f88f48,2023-06-16_10h43.02.450,phx_ver10,2022.2.5,Win32,59.34718101,,,,,,,,,,,,,,,,,,,,,,,,,,,,,,,space,6.3361,,,,,,,,,,,,,,,,,,,,
63d14e0eb3f244e8d5f88f48,2023-06-16_10h43.02.450,phx_ver10,2022.2.5,Win32,59.34718101,,,,,,,,,,,,,,,,,,,,,,,,,,,,,,,,,space,10.1829,,,,,,,,,,,,,,,,,,
63d14e0eb3f244e8d5f88f48,2023-06-16_10h43.02.450,phx_ver10,2022.2.5,Win32,59.34718101,,,,,,,,,,,,3,testing_pre,,,,afa.wav,aha.wav,,FALSE,,,,,,,,,,,,,,,j,1.3858,space,2.0038,0,0,0,2,1,,,,,,,,,
63d14e0eb3f244e8d5f88f48,2023-06-16_10h43.02.450,phx_ver10,2022.2.5,Win32,59.34718101,,,,,,,,,,,,2,testing_pre,,,,auhau.wav,aufau.wav,,FALSE,,,,,,,,,,,,,,,f,3.0465,space,4.1223,0,1,1,1,1,,,,,,,,,
63d14e0eb3f244e8d5f88f48,2023-06-16_10h43.02.450,phx_ver10,2022.2.5,Win32,59.34718101,,,,,,,,,,,,4,testing_pre,,,,eihei.wav,eihei.wav,,TRUE,,,,,,,,,,,,,,,f,0.4861,space,1.07,0,2,2,3,1,,,,,,,,,
63d14e0eb3f244e8d5f88f48,2023-06-16_10h43.02.450,phx_ver10,2022.2.5,Win32,59.34718101,,,,,,,,,,,,5,testing_pre,,,,ihi.wav,ifi.wav,,FALSE,,,,,,,,,,,,,,,j,0.7428,space,1.3712,0,3,3,4,1,,,,,,,,,
63d14e0eb3f244e8d5f88f48,2023-06-16_10h43.02.450,phx_ver10,2022.2.5,Win32,59.34718101,,,,,,,,,,,,1,testing_pre,,,,ifi.wav,ifi.wav,,TRUE,,,,,,,,,,,,,,,f,1.2522,space,1.8382,0,4,4,0,1,,,,,,,,,
63d14e0eb3f244e8d5f88f48,2023-06-16_10h43.02.450,phx_ver10,2022.2.5,Win32,59.34718101,,,,,,,,,,,,,,,,,,,,,,,,,,,,,,,,,,,,,,,,,,,,space,2,,,,,,,
63d14e0eb3f244e8d5f88f48,2023-06-16_10h43.02.450,phx_ver10,2022.2.5,Win32,59.34718101,,,,,,,,,,,,85,testing_3,j2x,e,j2x_e,j2x_1_eje.wav,j2x_1_eje.wav,,TRUE,FALSE,,,,,,,,,,,,,,f,4.7834,space,5.1987,,,,,,,,0,0,0,84,1,,
63d14e0eb3f244e8d5f88f48,2023-06-16_10h43.02.450,phx_ver10,2022.2.5,Win32,59.34718101,,,,,,,,,,,,94,testing_3,j2x,i,j2x_i,j2x_8_ixi.wav,j2x_8_ixi.wav,,TRUE,FALSE,,,,,,,,,,,,,,f,0.5176,space,0.854,,,,,,,,0,1,1,93,1,,
63d14e0eb3f244e8d5f88f48,2023-06-16_10h43.02.450,phx_ver10,2022.2.5,Win32,59.34718101,,,,,,,,,,,,21,testing_2,zh2x,ei,zh2x_ei,zh2x_1_eizhei.wav,zh2x_1_eizhei.wav,,TRUE,FALSE,,,,,,,,,,,,,,f,1.5058,space,1.9342,,,,,,,,0,2,2,20,1,,
63d14e0eb3f244e8d5f88f48,2023-06-16_10h43.02.450,phx_ver10,2022.2.5,Win32,59.34718101,,,,,,,,,,,,118,testing_3,sh2x,i,sh2x_i,sh2x_8_ixi.wav,sh2x_8_ixi.wav,,TRUE,FALSE,,,,,,,,,,,,,,j,0.7599,space,1.0904,,,,,,,,0,3,3,117,1,,
63d14e0eb3f244e8d5f88f48,2023-06-16_10h43.02.450,phx_ver10,2022.2.5,Win32,59.34718101,,,,,,,,,,,,117,testing_3,sh2x,i,sh2x_i,sh2x_1_ishi.wav,sh2x_1_ishi.wav,,TRUE,FALSE,,,,,,,,,,,,,,f,0.3331,space,0.7857,,,,,,,,0,4,4,116,1,,
63d14e0eb3f244e8d5f88f48,2023-06-16_10h43.02.450,phx_ver10,2022.2.5,Win32,59.34718101,,,,,,,,,,,,139,testing_3,sh2j,ei,sh2j_ei,sh2j_1_eishei.wav,sh2j_8_eijei.wav,,FALSE,FALSE,,,,,,,,,,,,,,j,0.1197,space,0.6189,,,,,,,,0,5,5,138,1,,
63d14e0eb3f244e8d5f88f48,2023-06-16_10h43.02.450,phx_ver10,2022.2.5,Win32,59.34718101,,,,,,,,,,,,50,testing_3,zh2j,a,zh2j_a,zh2j_8_aja.wav,zh2j_8_aja.wav,,TRUE,FALSE,,,,,,,,,,,,,,f,0.3355,space,0.6923,,,,,,,,0,6,6,49,1,,
63d14e0eb3f244e8d5f88f48,2023-06-16_10h43.02.450,phx_ver10,2022.2.5,Win32,59.34718101,,,,,,,,,,,,97,testing_3,sh2x,a,sh2x_a,sh2x_1_asha.wav,sh2x_1_asha.wav,,TRUE,FALSE,,,,,,,,,,,,,,f,0.8773,space,1.056,,,,,,,,0,7,7,96,1,,
63d14e0eb3f244e8d5f88f48,2023-06-16_10h43.02.450,phx_ver10,2022.2.5,Win32,59.34718101,,,,,,,,,,,,92,testing_3,j2x,ei,j2x_ei,j2x_8_eixei.wav,j2x_1_eijei.wav,,FALSE,FALSE,,,,,,,,,,,,,,j,0.737,space,1.0023,,,,,,,,0,8,8,91,1,,
63d14e0eb3f244e8d5f88f48,2023-06-16_10h43.02.450,phx_ver10,2022.2.5,Win32,59.34718101,,,,,,,,,,,,68,testing_3,zh2j,ei,zh2j_ei,zh2j_8_eijei.wav,zh2j_1_eizhei.wav,,FALSE,FALSE,,,,,,,,,,,,,,f,2.6226,space,2.8963,,,,,,,,0,9,9,67,1,,
63d14e0eb3f244e8d5f88f48,2023-06-16_10h43.02.450,phx_ver10,2022.2.5,Win32,59.34718101,,,,,,,,,,,,129,testing_3,sh2j,au,sh2j_au,sh2j_1_aushau.wav,sh2j_1_aushau.wav,,TRUE,FALSE,,,,,,,,,,,,,,f,6.5922,space,6.993,,,,,,,,0,10,10,128,1,,
63d14e0eb3f244e8d5f88f48,2023-06-16_10h43.02.450,phx_ver10,2022.2.5,Win32,59.34718101,,,,,,,,,,,,132,testing_3,sh2j,au,sh2j_au,sh2j_8_aujau.wav,sh2j_1_aushau.wav,,FALSE,FALSE,,,,,,,,,,,,,,j,1.7113,space,2.354,,,,,,,,0,11,11,131,1,,
63d14e0eb3f244e8d5f88f48,2023-06-16_10h43.02.450,phx_ver10,2022.2.5,Win32,59.34718101,,,,,,,,,,,,131,testing_3,sh2j,au,sh2j_au,sh2j_1_aushau.wav,sh2j_8_aujau.wav,,FALSE,FALSE,,,,,,,,,,,,,,j,2.1249,space,3.0446,,,,,,,,0,12,12,130,1,,
63d14e0eb3f244e8d5f88f48,2023-06-16_10h43.02.450,phx_ver10,2022.2.5,Win32,59.34718101,,,,,,,,,,,,128,testing_3,sh2j,ai,sh2j_ai,sh2j_8_aijai.wav,sh2j_1_aishai.wav,,FALSE,FALSE,,,,,,,,,,,,,,f,1.0702,space,1.4913,,,,,,,,0,13,13,127,1,,
63d14e0eb3f244e8d5f88f48,2023-06-16_10h43.02.450,phx_ver10,2022.2.5,Win32,59.34718101,,,,,,,,,,,,2,testing_1,zh2x,a,zh2x_a,zh2x_8_axa.wav,zh2x_8_axa_copy.wav,,TRUE,TRUE,,,,,,,,,,,,,,j,0.8695,space,1.388,,,,,,,,0,14,14,1,1,,
63d14e0eb3f244e8d5f88f48,2023-06-16_10h43.02.450,phx_ver10,2022.2.5,Win32,59.34718101,,,,,,,,,,,,105,testing_3,sh2x,au,sh2x_au,sh2x_1_aushau.wav,sh2x_1_aushau.wav,,TRUE,FALSE,,,,,,,,,,,,,,f,2.2576,space,3.6569,,,,,,,,0,15,15,104,1,,
63d14e0eb3f244e8d5f88f48,2023-06-16_10h43.02.450,phx_ver10,2022.2.5,Win32,59.34718101,,,,,,,,,,,,111,testing_3,sh2x,e,sh2x_e,sh2x_1_eshe.wav,sh2x_8_exe.wav,,FALSE,FALSE,,,,,,,,,,,,,,f,0.6889,space,1.1898,,,,,,,,0,16,16,110,1,,
63d14e0eb3f244e8d5f88f48,2023-06-16_10h43.02.450,phx_ver10,2022.2.5,Win32,59.34718101,,,,,,,,,,,,13,testing_2,zh2x,ai,zh2x_ai,zh2x_1_aizhai.wav,zh2x_1_aizhai.wav,,TRUE,FALSE,,,,,,,,,,,,,,f,2.1704,space,2.7883,,,,,,,,0,17,17,12,1,,
63d14e0eb3f244e8d5f88f48,2023-06-16_10h43.02.450,phx_ver10,2022.2.5,Win32,59.34718101,,,,,,,,,,,,25,testing_3,zh2sh,a,zh2sh_a,zh2sh_1_azha.wav,zh2sh_1_azha.wav,,TRUE,FALSE,,,,,,,,,,,,,,f,0.2848,space,0.6854,,,,,,,,0,18,18,24,1,,
63d14e0eb3f244e8d5f88f48,2023-06-16_10h43.02.450,phx_ver10,2022.2.5,Win32,59.34718101,,,,,,,,,,,,51,testing_3,zh2j,a,zh2j_a,zh2j_1_azha.wav,zh2j_8_aja.wav,,FALSE,FALSE,,,,,,,,,,,,,,f,1.8584,space,2.3034,,,,,,,,0,19,19,50,1,,
63d14e0eb3f244e8d5f88f48,2023-06-16_10h43.02.450,phx_ver10,2022.2.5,Win32,59.34718101,,,,,,,,,,,,127,testing_3,sh2j,ai,sh2j_ai,sh2j_1_aishai.wav,sh2j_8_aijai.wav,,FALSE,FALSE,,,,,,,,,,,,,,j,0.5034,space,1.0731,,,,,,,,0,20,20,126,1,,
63d14e0eb3f244e8d5f88f48,2023-06-16_10h43.02.450,phx_ver10,2022.2.5,Win32,59.34718101,,,,,,,,,,,,60,testing_3,zh2j,au,zh2j_au,zh2j_8_aujau.wav,zh2j_1_auzhau.wav,,FALSE,FALSE,,,,,,,,,,,,,,f,0.276,space,0.6824,,,,,,,,0,21,21,59,1,,
63d14e0eb3f244e8d5f88f48,2023-06-16_10h43.02.450,phx_ver10,2022.2.5,Win32,59.34718101,,,,,,,,,,,,119,testing_3,sh2x,i,sh2x_i,sh2x_1_ishi.wav,sh2x_8_ixi.wav,,FALSE,FALSE,,,,,,,,,,,,,,f,0.4244,space,0.6517,,,,,,,,0,22,22,118,1,,
63d14e0eb3f244e8d5f88f48,2023-06-16_10h43.02.450,phx_ver10,2022.2.5,Win32,59.34718101,,,,,,,,,,,,24,testing_2,zh2x,ei,zh2x_ei,zh2x_8_eixei.wav,zh2x_1_eizhei.wav,,FALSE,FALSE,,,,,,,,,,,,,,j,0.0071,space,0.2707,,,,,,,,0,23,23,23,1,,
63d14e0eb3f244e8d5f88f48,2023-06-16_10h43.02.450,phx_ver10,2022.2.5,Win32,59.34718101,,,,,,,,,,,,70,testing_3,zh2j,i,zh2j_i,zh2j_8_iji.wav,zh2j_8_iji.wav,,TRUE,FALSE,,,,,,,,,,,,,,f,0.3744,space,0.6201,,,,,,,,0,24,24,69,1,,
63d14e0eb3f244e8d5f88f48,2023-06-16_10h43.02.450,phx_ver10,2022.2.5,Win32,59.34718101,,,,,,,,,,,,104,testing_3,sh2x,ai,sh2x_ai,sh2x_8_aixai.wav,sh2x_1_aishai.wav,,FALSE,FALSE,,,,,,,,,,,,,,f,1.8383,space,2.2382,,,,,,,,0,25,25,103,1,,
63d14e0eb3f244e8d5f88f48,2023-06-16_10h43.02.450,phx_ver10,2022.2.5,Win32,59.34718101,,,,,,,,,,,,78,testing_3,j2x,ai,j2x_ai,j2x_8_aixai.wav,j2x_8_aixai.wav,,TRUE,FALSE,,,,,,,,,,,,,,f,0.4992,space,0.8524,,,,,,,,0,26,26,77,1,,
63d14e0eb3f244e8d5f88f48,2023-06-16_10h43.02.450,phx_ver10,2022.2.5,Win32,59.34718101,,,,,,,,,,,,19,testing_2,zh2x,au,zh2x_au,zh2x_1_auzhau.wav,zh2x_8_auxau.wav,,FALSE,FALSE,,,,,,,,,,,,,,j,3.169,space,3.4876,,,,,,,,0,27,27,18,1,,
63d14e0eb3f244e8d5f88f48,2023-06-16_10h43.02.450,phx_ver10,2022.2.5,Win32,59.34718101,,,,,,,,,,,,108,testing_3,sh2x,au,sh2x_au,sh2x_8_auxau.wav,sh2x_1_aushau.wav,,FALSE,FALSE,,,,,,,,,,,,,,f,1.0399,space,1.3884,,,,,,,,0,28,28,107,1,,
63d14e0eb3f244e8d5f88f48,2023-06-16_10h43.02.450,phx_ver10,2022.2.5,Win32,59.34718101,,,,,,,,,,,,77,testing_3,j2x,ai,j2x_ai,j2x_1_aijai.wav,j2x_1_aijai.wav,,TRUE,FALSE,,,,,,,,,,,,,,f,0.0012,space,0.3533,,,,,,,,0,29,29,76,1,,
63d14e0eb3f244e8d5f88f48,2023-06-16_10h43.02.450,phx_ver10,2022.2.5,Win32,59.34718101,,,,,,,,,,,,123,testing_3,sh2j,a,sh2j_a,sh2j_1_asha.wav,sh2j_8_aja.wav,,FALSE,FALSE,,,,,,,,,,,,,,j,0.2215,space,0.621,,,,,,,,0,30,30,122,1,,
63d14e0eb3f244e8d5f88f48,2023-06-16_10h43.02.450,phx_ver10,2022.2.5,Win32,59.34718101,,,,,,,,,,,,58,testing_3,zh2j,au,zh2j_au,zh2j_8_aujau.wav,zh2j_8_aujau.wav,,TRUE,FALSE,,,,,,,,,,,,,,f,0.7267,space,0.9382,,,,,,,,0,31,31,57,1,,
63d14e0eb3f244e8d5f88f48,2023-06-16_10h43.02.450,phx_ver10,2022.2.5,Win32,59.34718101,,,,,,,,,,,,81,testing_3,j2x,au,j2x_au,j2x_1_aujau.wav,j2x_1_aujau.wav,,TRUE,FALSE,,,,,,,,,,,,,,f,0.1328,space,0.3679,,,,,,,,0,32,32,80,1,,
63d14e0eb3f244e8d5f88f48,2023-06-16_10h43.02.450,phx_ver10,2022.2.5,Win32,59.34718101,,,,,,,,,,,,76,testing_3,j2x,a,j2x_a,j2x_8_axa.wav,j2x_1_aja.wav,,FALSE,FALSE,,,,,,,,,,,,,,j,2.7668,space,3.0883,,,,,,,,0,33,33,75,1,,
63d14e0eb3f244e8d5f88f48,2023-06-16_10h43.02.450,phx_ver10,2022.2.5,Win32,59.34718101,,,,,,,,,,,,40,testing_3,zh2sh,e,zh2sh_e,zh2sh_8_eshe.wav,zh2sh_1_ezhe.wav,,FALSE,FALSE,,,,,,,,,,,,,,j,0.0745,space,0.404,,,,,,,,0,34,34,39,1,,
63d14e0eb3f244e8d5f88f48,2023-06-16_10h43.02.450,phx_ver10,2022.2.5,Win32,59.34718101,,,,,,,,,,,,115,testing_3,sh2x,ei,sh2x_ei,sh2x_1_eishei.wav,sh2x_8_eixei.wav,,FALSE,FALSE,,,,,,,,,,,,,,j,0.1517,space,0.5687,,,,,,,,0,35,35,114,1,,
63d14e0eb3f244e8d5f88f48,2023-06-16_10h43.02.450,phx_ver10,2022.2.5,Win32,59.34718101,,,,,,,,,,,,48,testing_3,zh2sh,i,zh2sh_i,zh2sh_8_ishi.wav,zh2sh_1_izhi.wav,,FALSE,FALSE,,,,,,,,,,,,,,j,0.2181,space,0.672,,,,,,,,0,36,36,47,1,,
63d14e0eb3f244e8d5f88f48,2023-06-16_10h43.02.450,phx_ver10,2022.2.5,Win32,59.34718101,,,,,,,,,,,,34,testing_3,zh2sh,au,zh2sh_au,zh2sh_8_aushau.wav,zh2sh_8_aushau.wav,,TRUE,FALSE,,,,,,,,,,,,,,f,0.0257,space,0.4428,,,,,,,,0,37,37,33,1,,
63d14e0eb3f244e8d5f88f48,2023-06-16_10h43.02.450,phx_ver10,2022.2.5,Win32,59.34718101,,,,,,,,,,,,79,testing_3,j2x,ai,j2x_ai,j2x_1_aijai.wav,j2x_8_aixai.wav,,FALSE,FALSE,,,,,,,,,,,,,,j,0.6019,space,0.9257,,,,,,,,0,38,38,78,1,,
63d14e0eb3f244e8d5f88f48,2023-06-16_10h43.02.450,phx_ver10,2022.2.5,Win32,59.34718101,,,,,,,,,,,,122,testing_3,sh2j,a,sh2j_a,sh2j_8_aja.wav,sh2j_8_aja.wav,,TRUE,FALSE,,,,,,,,,,,,,,f,0.0214,space,0.4525,,,,,,,,0,39,39,121,1,,
63d14e0eb3f244e8d5f88f48,2023-06-16_10h43.02.450,phx_ver10,2022.2.5,Win32,59.34718101,,,,,,,,,,,,98,testing_3,sh2x,a,sh2x_a,sh2x_8_axa.wav,sh2x_8_axa.wav,,TRUE,FALSE,,,,,,,,,,,,,,f,1.0832,space,1.6891,,,,,,,,0,40,40,97,1,,
63d14e0eb3f244e8d5f88f48,2023-06-16_10h43.02.450,phx_ver10,2022.2.5,Win32,59.34718101,,,,,,,,,,,,87,testing_3,j2x,e,j2x_e,j2x_1_eje.wav,j2x_8_exe.wav,,FALSE,FALSE,,,,,,,,,,,,,,j,0.2392,space,0.6076,,,,,,,,0,41,41,86,1,,
63d14e0eb3f244e8d5f88f48,2023-06-16_10h43.02.450,phx_ver10,2022.2.5,Win32,59.34718101,,,,,,,,,,,,10,testing_1,zh2x,i,zh2x_i,zh2x_8_ixi.wav,zh2x_8_ixi_copy.wav,,TRUE,TRUE,,,,,,,,,,,,,,f,0.2177,space,0.5277,,,,,,,,0,42,42,9,1,,
63d14e0eb3f244e8d5f88f48,2023-06-16_10h43.02.450,phx_ver10,2022.2.5,Win32,59.34718101,,,,,,,,,,,,18,testing_2,zh2x,au,zh2x_au,zh2x_8_auxau.wav,zh2x_8_auxau.wav,,TRUE,FALSE,,,,,,,,,,,,,,f,2.1034,space,2.3944,,,,,,,,0,43,43,17,1,,
63d14e0eb3f244e8d5f88f48,2023-06-16_10h43.02.450,phx_ver10,2022.2.5,Win32,59.34718101,,,,,,,,,,,,6,testing_1,zh2x,e,zh2x_e,zh2x_8_exe.wav,zh2x_8_exe_copy.wav,,TRUE,TRUE,,,,,,,,,,,,,,f,2.621,space,5.0379,,,,,,,,0,44,44,5,1,,
63d14e0eb3f244e8d5f88f48,2023-06-16_10h43.02.450,phx_ver10,2022.2.5,Win32,59.34718101,,,,,,,,,,,,138,testing_3,sh2j,ei,sh2j_ei,sh2j_8_eijei.wav,sh2j_8_eijei.wav,,TRUE,FALSE,,,,,,,,,,,,,,f,0.1829,space,0.5262,,,,,,,,0,45,45,137,1,,
63d14e0eb3f244e8d5f88f48,2023-06-16_10h43.02.450,phx_ver10,2022.2.5,Win32,59.34718101,,,,,,,,,,,,93,testing_3,j2x,i,j2x_i,j2x_1_iji.wav,j2x_1_iji.wav,,TRUE,FALSE,,,,,,,,,,,,,,f,3.7086,space,4.242,,,,,,,,0,46,46,92,1,,
63d14e0eb3f244e8d5f88f48,2023-06-16_10h43.02.450,phx_ver10,2022.2.5,Win32,59.34718101,,,,,,,,,,,,75,testing_3,j2x,a,j2x_a,j2x_1_aja.wav,j2x_8_axa.wav,,FALSE,FALSE,,,,,,,,,,,,,,j,0.3347,space,0.6944,,,,,,,,0,47,47,74,1,,
63d14e0eb3f244e8d5f88f48,2023-06-16_10h43.02.450,phx_ver10,2022.2.5,Win32,59.34718101,,,,,,,,,,,,134,testing_3,sh2j,e,sh2j_e,sh2j_8_eje.wav,sh2j_8_eje.wav,,TRUE,FALSE,,,,,,,,,,,,,,j,0.2403,space,0.7193,,,,,,,,0,48,48,133,1,,
63d14e0eb3f244e8d5f88f48,2023-06-16_10h43.02.450,phx_ver10,2022.2.5,Win32,59.34718101,,,,,,,,,,,,103,testing_3,sh2x,ai,sh2x_ai,sh2x_1_aishai.wav,sh2x_8_aixai.wav,,FALSE,FALSE,,,,,,,,,,,,,,f,0.8355,space,1.2856,,,,,,,,0,49,49,102,1,,
63d14e0eb3f244e8d5f88f48,2023-06-16_10h43.02.450,phx_ver10,2022.2.5,Win32,59.34718101,,,,,,,,,,,,15,testing_2,zh2x,ai,zh2x_ai,zh2x_1_aizhai.wav,zh2x_8_aixai.wav,,FALSE,FALSE,,,,,,,,,,,,,,j,0.3034,space,0.7257,,,,,,,,0,50,50,14,1,,
63d14e0eb3f244e8d5f88f48,2023-06-16_10h43.02.450,phx_ver10,2022.2.5,Win32,59.34718101,,,,,,,,,,,,44,testing_3,zh2sh,ei,zh2sh_ei,zh2sh_8_eishei.wav,zh2sh_1_eizhei.wav,,FALSE,FALSE,,,,,,,,,,,,,,f,0.9855,space,1.5861,,,,,,,,0,51,51,43,1,,
63d14e0eb3f244e8d5f88f48,2023-06-16_10h43.02.450,phx_ver10,2022.2.5,Win32,59.34718101,,,,,,,,,,,,36,testing_3,zh2sh,au,zh2sh_au,zh2sh_8_aushau.wav,zh2sh_1_auzhau.wav,,FALSE,FALSE,,,,,,,,,,,,,,j,1.0515,space,1.4348,,,,,,,,0,52,52,35,1,,
63d14e0eb3f244e8d5f88f48,2023-06-16_10h43.02.450,phx_ver10,2022.2.5,Win32,59.34718101,,,,,,,,,,,,96,testing_3,j2x,i,j2x_i,j2x_8_ixi.wav,j2x_1_iji.wav,,FALSE,FALSE,,,,,,,,,,,,,,j,2.3515,space,2.6685,,,,,,,,0,53,53,95,1,,
63d14e0eb3f244e8d5f88f48,2023-06-16_10h43.02.450,phx_ver10,2022.2.5,Win32,59.34718101,,,,,,,,,,,,90,testing_3,j2x,ei,j2x_ei,j2x_8_eixei.wav,j2x_8_eixei.wav,,TRUE,FALSE,,,,,,,,,,,,,,f,0.6254,space,1.0367,,,,,,,,0,54,54,89,1,,
63d14e0eb3f244e8d5f88f48,2023-06-16_10h43.02.450,phx_ver10,2022.2.5,Win32,59.34718101,,,,,,,,,,,,135,testing_3,sh2j,e,sh2j_e,sh2j_1_eshe.wav,sh2j_8_eje.wav,,FALSE,FALSE,,,,,,,,,,,,,,j,0.1499,space,0.4927,,,,,,,,0,55,55,134,1,,
63d14e0eb3f244e8d5f88f48,2023-06-16_10h43.02.450,phx_ver10,2022.2.5,Win32,59.34718101,,,,,,,,,,,,114,testing_3,sh2x,ei,sh2x_ei,sh2x_8_eixei.wav,sh2x_8_eixei.wav,,TRUE,FALSE,,,,,,,,,,,,,,f,0.7681,space,1.0689,,,,,,,,0,56,56,113,1,,
63d14e0eb3f244e8d5f88f48,2023-06-16_10h43.02.450,phx_ver10,2022.2.5,Win32,59.34718101,,,,,,,,,,,,141,testing_3,sh2j,i,sh2j_i,sh2j_1_ishi.wav,sh2j_1_ishi.wav,,TRUE,FALSE,,,,,,,,,,,,,,f,0.1683,space,0.5042,,,,,,,,0,57,57,140,1,,
63d14e0eb3f244e8d5f88f48,2023-06-16_10h43.02.450,phx_ver10,2022.2.5,Win32,59.34718101,,,,,,,,,,,,107,testing_3,sh2x,au,sh2x_au,sh2x_1_aushau.wav,sh2x_8_auxau.wav,,FALSE,FALSE,,,,,,,,,,,,,,j,2.1784,space,2.4877,,,,,,,,0,58,58,106,1,,
63d14e0eb3f244e8d5f88f48,2023-06-16_10h43.02.450,phx_ver10,2022.2.5,Win32,59.34718101,,,,,,,,,,,,95,testing_3,j2x,i,j2x_i,j2x_1_iji.wav,j2x_8_ixi.wav,,FALSE,FALSE,,,,,,,,,,,,,,j,0.0058,space,0.4035,,,,,,,,0,59,59,94,1,,
63d14e0eb3f244e8d5f88f48,2023-06-16_10h43.02.450,phx_ver10,2022.2.5,Win32,59.34718101,,,,,,,,,,,,7,testing_1,zh2x,e,zh2x_e,zh2x_1_ezhe.wav,zh2x_8_exe.wav,,FALSE,TRUE,,,,,,,,,,,,,,j,0.1229,space,0.5175,,,,,,,,0,60,60,6,1,,
63d14e0eb3f244e8d5f88f48,2023-06-16_10h43.02.450,phx_ver10,2022.2.5,Win32,59.34718101,,,,,,,,,,,,23,testing_2,zh2x,ei,zh2x_ei,zh2x_1_eizhei.wav,zh2x_8_eixei.wav,,FALSE,FALSE,,,,,,,,,,,,,,f,0.9268,space,1.5526,,,,,,,,0,61,61,22,1,,
63d14e0eb3f244e8d5f88f48,2023-06-16_10h43.02.450,phx_ver10,2022.2.5,Win32,59.34718101,,,,,,,,,,,,46,testing_3,zh2sh,i,zh2sh_i,zh2sh_8_ishi.wav,zh2sh_8_ishi.wav,,TRUE,FALSE,,,,,,,,,,,,,,j,0.1055,space,0.7577,,,,,,,,0,62,62,45,1,,
63d14e0eb3f244e8d5f88f48,2023-06-16_10h43.02.450,phx_ver10,2022.2.5,Win32,59.34718101,,,,,,,,,,,,16,testing_2,zh2x,ai,zh2x_ai,zh2x_8_aixai.wav,zh2x_1_aizhai.wav,,FALSE,FALSE,,,,,,,,,,,,,,f,1.7789,space,3.0266,,,,,,,,0,63,63,15,1,,
63d14e0eb3f244e8d5f88f48,2023-06-16_10h43.02.450,phx_ver10,2022.2.5,Win32,59.34718101,,,,,,,,,,,,91,testing_3,j2x,ei,j2x_ei,j2x_1_eijei.wav,j2x_8_eixei.wav,,FALSE,FALSE,,,,,,,,,,,,,,f,4.1829,space,4.4661,,,,,,,,0,64,64,90,1,,
63d14e0eb3f244e8d5f88f48,2023-06-16_10h43.02.450,phx_ver10,2022.2.5,Win32,59.34718101,,,,,,,,,,,,137,testing_3,sh2j,ei,sh2j_ei,sh2j_1_eishei.wav,sh2j_1_eishei.wav,,TRUE,FALSE,,,,,,,,,,,,,,f,0.0844,space,0.4084,,,,,,,,0,65,65,136,1,,
63d14e0eb3f244e8d5f88f48,2023-06-16_10h43.02.450,phx_ver10,2022.2.5,Win32,59.34718101,,,,,,,,,,,,1,testing_1,zh2x,a,zh2x_a,zh2x_1_azha.wav,zh2x_1_azha_copy.wav,,TRUE,TRUE,,,,,,,,,,,,,,f,0.1252,space,0.4385,,,,,,,,0,66,66,0,1,,
63d14e0eb3f244e8d5f88f48,2023-06-16_10h43.02.450,phx_ver10,2022.2.5,Win32,59.34718101,,,,,,,,,,,,120,testing_3,sh2x,i,sh2x_i,sh2x_8_ixi.wav,sh2x_1_ishi.wav,,FALSE,FALSE,,,,,,,,,,,,,,f,2.1629,space,2.3207,,,,,,,,0,67,67,119,1,,
63d14e0eb3f244e8d5f88f48,2023-06-16_10h43.02.450,phx_ver10,2022.2.5,Win32,59.34718101,,,,,,,,,,,,41,testing_3,zh2sh,ei,zh2sh_ei,zh2sh_1_eizhei.wav,zh2sh_1_eizhei.wav,,TRUE,FALSE,,,,,,,,,,,,,,f,0.3856,space,0.7191,,,,,,,,0,68,68,40,1,,
63d14e0eb3f244e8d5f88f48,2023-06-16_10h43.02.450,phx_ver10,2022.2.5,Win32,59.34718101,,,,,,,,,,,,49,testing_3,zh2j,a,zh2j_a,zh2j_1_azha.wav,zh2j_1_azha.wav,,TRUE,FALSE,,,,,,,,,,,,,,f,1.926,space,2.1247,,,,,,,,0,69,69,48,1,,
63d14e0eb3f244e8d5f88f48,2023-06-16_10h43.02.450,phx_ver10,2022.2.5,Win32,59.34718101,,,,,,,,,,,,4,testing_1,zh2x,a,zh2x_a,zh2x_8_axa.wav,zh2x_1_azha.wav,,FALSE,TRUE,,,,,,,,,,,,,,j,0.0653,space,0.419,,,,,,,,0,70,70,3,1,,
63d14e0eb3f244e8d5f88f48,2023-06-16_10h43.02.450,phx_ver10,2022.2.5,Win32,59.34718101,,,,,,,,,,,,43,testing_3,zh2sh,ei,zh2sh_ei,zh2sh_1_eizhei.wav,zh2sh_8_eishei.wav,,FALSE,FALSE,,,,,,,,,,,,,,j,0.1056,space,0.4034,,,,,,,,0,71,71,42,1,,
63d14e0eb3f244e8d5f88f48,2023-06-16_10h43.02.450,phx_ver10,2022.2.5,Win32,59.34718101,,,,,,,,,,,,130,testing_3,sh2j,au,sh2j_au,sh2j_8_aujau.wav,sh2j_8_aujau.wav,,TRUE,FALSE,,,,,,,,,,,,,,f,2.8229,space,3.0068,,,,,,,,0,72,72,129,1,,
63d14e0eb3f244e8d5f88f48,2023-06-16_10h43.02.450,phx_ver10,2022.2.5,Win32,59.34718101,,,,,,,,,,,,45,testing_3,zh2sh,i,zh2sh_i,zh2sh_1_izhi.wav,zh2sh_1_izhi.wav,,TRUE,FALSE,,,,,,,,,,,,,,f,0.905,space,1.1723,,,,,,,,0,73,73,44,1,,
63d14e0eb3f244e8d5f88f48,2023-06-16_10h43.02.450,phx_ver10,2022.2.5,Win32,59.34718101,,,,,,,,,,,,89,testing_3,j2x,ei,j2x_ei,j2x_1_eijei.wav,j2x_1_eijei.wav,,TRUE,FALSE,,,,,,,,,,,,,,f,0.9688,space,1.2881,,,,,,,,0,74,74,88,1,,
63d14e0eb3f244e8d5f88f48,2023-06-16_10h43.02.450,phx_ver10,2022.2.5,Win32,59.34718101,,,,,,,,,,,,126,testing_3,sh2j,ai,sh2j_ai,sh2j_8_aijai.wav,sh2j_8_aijai.wav,,TRUE,FALSE,,,,,,,,,,,,,,f,0.0015,space,0.5428,,,,,,,,0,75,75,125,1,,
63d14e0eb3f244e8d5f88f48,2023-06-16_10h43.02.450,phx_ver10,2022.2.5,Win32,59.34718101,,,,,,,,,,,,32,testing_3,zh2sh,ai,zh2sh_ai,zh2sh_8_aishai.wav,zh2sh_1_aizhai.wav,,FALSE,FALSE,,,,,,,,,,,,,,j,0.7677,space,1.0026,,,,,,,,0,76,76,31,1,,
63d14e0eb3f244e8d5f88f48,2023-06-16_10h43.02.450,phx_ver10,2022.2.5,Win32,59.34718101,,,,,,,,,,,,39,testing_3,zh2sh,e,zh2sh_e,zh2sh_1_ezhe.wav,zh2sh_8_eshe.wav,,FALSE,FALSE,,,,,,,,,,,,,,j,0.0714,space,0.3909,,,,,,,,0,77,77,38,1,,
63d14e0eb3f244e8d5f88f48,2023-06-16_10h43.02.450,phx_ver10,2022.2.5,Win32,59.34718101,,,,,,,,,,,,56,testing_3,zh2j,ai,zh2j_ai,zh2j_8_aijai.wav,zh2j_1_aizhai.wav,,FALSE,FALSE,,,,,,,,,,,,,,f,1.4529,space,1.722,,,,,,,,0,78,78,55,1,,
63d14e0eb3f244e8d5f88f48,2023-06-16_10h43.02.450,phx_ver10,2022.2.5,Win32,59.34718101,,,,,,,,,,,,20,testing_2,zh2x,au,zh2x_au,zh2x_8_auxau.wav,zh2x_1_auzhau.wav,,FALSE,FALSE,,,,,,,,,,,,,,j,0.845,space,1.203,,,,,,,,0,79,79,19,1,,
63d14e0eb3f244e8d5f88f48,2023-06-16_10h43.02.450,phx_ver10,2022.2.5,Win32,59.34718101,,,,,,,,,,,,62,testing_3,zh2j,e,zh2j_e,zh2j_8_eje.wav,zh2j_8_eje.wav,,TRUE,FALSE,,,,,,,,,,,,,,f,0.5037,space,0.8783,,,,,,,,0,80,80,61,1,,
63d14e0eb3f244e8d5f88f48,2023-06-16_10h43.02.450,phx_ver10,2022.2.5,Win32,59.34718101,,,,,,,,,,,,144,testing_3,sh2j,i,sh2j_i,sh2j_8_iji.wav,sh2j_1_ishi.wav,,FALSE,FALSE,,,,,,,,,,,,,,j,0.27,space,1.979,,,,,,,,0,81,81,143,1,,
63d14e0eb3f244e8d5f88f48,2023-06-16_10h43.02.450,phx_ver10,2022.2.5,Win32,59.34718101,,,,,,,,,,,,102,testing_3,sh2x,ai,sh2x_ai,sh2x_8_aixai.wav,sh2x_8_aixai.wav,,TRUE,FALSE,,,,,,,,,,,,,,f,1.0104,space,1.436,,,,,,,,0,82,82,101,1,,
63d14e0eb3f244e8d5f88f48,2023-06-16_10h43.02.450,phx_ver10,2022.2.5,Win32,59.34718101,,,,,,,,,,,,125,testing_3,sh2j,ai,sh2j_ai,sh2j_1_aishai.wav,sh2j_1_aishai.wav,,TRUE,FALSE,,,,,,,,,,,,,,f,0.47,space,1.2867,,,,,,,,0,83,83,124,1,,
63d14e0eb3f244e8d5f88f48,2023-06-16_10h43.02.450,phx_ver10,2022.2.5,Win32,59.34718101,,,,,,,,,,,,112,testing_3,sh2x,e,sh2x_e,sh2x_8_exe.wav,sh2x_1_eshe.wav,,FALSE,FALSE,,,,,,,,,,,,,,f,3.9888,space,4.3489,,,,,,,,0,84,84,111,1,,
63d14e0eb3f244e8d5f88f48,2023-06-16_10h43.02.450,phx_ver10,2022.2.5,Win32,59.34718101,,,,,,,,,,,,72,testing_3,zh2j,i,zh2j_i,zh2j_8_iji.wav,zh2j_1_izhi.wav,,FALSE,FALSE,,,,,,,,,,,,,,f,1.3255,space,1.5833,,,,,,,,0,85,85,71,1,,
63d14e0eb3f244e8d5f88f48,2023-06-16_10h43.02.450,phx_ver10,2022.2.5,Win32,59.34718101,,,,,,,,,,,,99,testing_3,sh2x,a,sh2x_a,sh2x_1_asha.wav,sh2x_8_axa.wav,,FALSE,FALSE,,,,,,,,,,,,,,j,1.1342,space,1.8369,,,,,,,,0,86,86,98,1,,
63d14e0eb3f244e8d5f88f48,2023-06-16_10h43.02.450,phx_ver10,2022.2.5,Win32,59.34718101,,,,,,,,,,,,69,testing_3,zh2j,i,zh2j_i,zh2j_1_izhi.wav,zh2j_1_izhi.wav,,TRUE,FALSE,,,,,,,,,,,,,,f,0.7063,space,1.0557,,,,,,,,0,87,87,68,1,,
63d14e0eb3f244e8d5f88f48,2023-06-16_10h43.02.450,phx_ver10,2022.2.5,Win32,59.34718101,,,,,,,,,,,,61,testing_3,zh2j,e,zh2j_e,zh2j_1_ezhe.wav,zh2j_1_ezhe.wav,,TRUE,FALSE,,,,,,,,,,,,,,j,0.0733,space,0.4569,,,,,,,,0,88,88,60,1,,
63d14e0eb3f244e8d5f88f48,2023-06-16_10h43.02.450,phx_ver10,2022.2.5,Win32,59.34718101,,,,,,,,,,,,80,testing_3,j2x,ai,j2x_ai,j2x_8_aixai.wav,j2x_1_aijai.wav,,FALSE,FALSE,,,,,,,,,,,,,,f,0.1352,space,0.5232,,,,,,,,0,89,89,79,1,,
63d14e0eb3f244e8d5f88f48,2023-06-16_10h43.02.450,phx_ver10,2022.2.5,Win32,59.34718101,,,,,,,,,,,,30,testing_3,zh2sh,ai,zh2sh_ai,zh2sh_8_aishai.wav,zh2sh_8_aishai.wav,,TRUE,FALSE,,,,,,,,,,,,,,f,0.0546,space,0.399,,,,,,,,0,90,90,29,1,,
63d14e0eb3f244e8d5f88f48,2023-06-16_10h43.02.450,phx_ver10,2022.2.5,Win32,59.34718101,,,,,,,,,,,,53,testing_3,zh2j,ai,zh2j_ai,zh2j_1_aizhai.wav,zh2j_1_aizhai.wav,,TRUE,FALSE,,,,,,,,,,,,,,f,0.3512,space,0.7852,,,,,,,,0,91,91,52,1,,
63d14e0eb3f244e8d5f88f48,2023-06-16_10h43.02.450,phx_ver10,2022.2.5,Win32,59.34718101,,,,,,,,,,,,3,testing_1,zh2x,a,zh2x_a,zh2x_1_azha.wav,zh2x_8_axa.wav,,FALSE,TRUE,,,,,,,,,,,,,,j,0.6958,space,1.0125,,,,,,,,0,92,92,2,1,,
63d14e0eb3f244e8d5f88f48,2023-06-16_10h43.02.450,phx_ver10,2022.2.5,Win32,59.34718101,,,,,,,,,,,,63,testing_3,zh2j,e,zh2j_e,zh2j_1_ezhe.wav,zh2j_8_eje.wav,,FALSE,FALSE,,,,,,,,,,,,,,f,1.468,space,1.9544,,,,,,,,0,93,93,62,1,,
63d14e0eb3f244e8d5f88f48,2023-06-16_10h43.02.450,phx_ver10,2022.2.5,Win32,59.34718101,,,,,,,,,,,,124,testing_3,sh2j,a,sh2j_a,sh2j_8_aja.wav,sh2j_1_asha.wav,,FALSE,FALSE,,,,,,,,,,,,,,j,0.2433,space,0.724,,,,,,,,0,94,94,123,1,,
63d14e0eb3f244e8d5f88f48,2023-06-16_10h43.02.450,phx_ver10,2022.2.5,Win32,59.34718101,,,,,,,,,,,,31,testing_3,zh2sh,ai,zh2sh_ai,zh2sh_1_aizhai.wav,zh2sh_8_aishai.wav,,FALSE,FALSE,,,,,,,,,,,,,,f,0.1475,space,0.4669,,,,,,,,0,95,95,30,1,,
63d14e0eb3f244e8d5f88f48,2023-06-16_10h43.02.450,phx_ver10,2022.2.5,Win32,59.34718101,,,,,,,,,,,,65,testing_3,zh2j,ei,zh2j_ei,zh2j_1_eizhei.wav,zh2j_1_eizhei.wav,,TRUE,FALSE,,,,,,,,,,,,,,f,0.2751,space,0.5857,,,,,,,,0,96,96,64,1,,
63d14e0eb3f244e8d5f88f48,2023-06-16_10h43.02.450,phx_ver10,2022.2.5,Win32,59.34718101,,,,,,,,,,,,9,testing_1,zh2x,i,zh2x_i,zh2x_1_izhi.wav,zh2x_1_izhi_copy.wav,,TRUE,TRUE,,,,,,,,,,,,,,f,0.2199,space,0.5702,,,,,,,,0,97,97,8,1,,
63d14e0eb3f244e8d5f88f48,2023-06-16_10h43.02.450,phx_ver10,2022.2.5,Win32,59.34718101,,,,,,,,,,,,101,testing_3,sh2x,ai,sh2x_ai,sh2x_1_aishai.wav,sh2x_1_aishai.wav,,TRUE,FALSE,,,,,,,,,,,,,,f,1.2527,space,1.6578,,,,,,,,0,98,98,100,1,,
63d14e0eb3f244e8d5f88f48,2023-06-16_10h43.02.450,phx_ver10,2022.2.5,Win32,59.34718101,,,,,,,,,,,,73,testing_3,j2x,a,j2x_a,j2x_1_aja.wav,j2x_1_aja.wav,,TRUE,FALSE,,,,,,,,,,,,,,f,0.0588,space,0.418,,,,,,,,0,99,99,72,1,,
63d14e0eb3f244e8d5f88f48,2023-06-16_10h43.02.450,phx_ver10,2022.2.5,Win32,59.34718101,,,,,,,,,,,,59,testing_3,zh2j,au,zh2j_au,zh2j_1_auzhau.wav,zh2j_8_aujau.wav,,FALSE,FALSE,,,,,,,,,,,,,,f,0.9025,space,1.3526,,,,,,,,0,100,100,58,1,,
63d14e0eb3f244e8d5f88f48,2023-06-16_10h43.02.450,phx_ver10,2022.2.5,Win32,59.34718101,,,,,,,,,,,,100,testing_3,sh2x,a,sh2x_a,sh2x_8_axa.wav,sh2x_1_asha.wav,,FALSE,FALSE,,,,,,,,,,,,,,f,0.6189,space,0.9603,,,,,,,,0,101,101,99,1,,
63d14e0eb3f244e8d5f88f48,2023-06-16_10h43.02.450,phx_ver10,2022.2.5,Win32,59.34718101,,,,,,,,,,,,52,testing_3,zh2j,a,zh2j_a,zh2j_8_aja.wav,zh2j_1_azha.wav,,FALSE,FALSE,,,,,,,,,,,,,,f,0.2158,space,0.5405,,,,,,,,0,102,102,51,1,,
63d14e0eb3f244e8d5f88f48,2023-06-16_10h43.02.450,phx_ver10,2022.2.5,Win32,59.34718101,,,,,,,,,,,,37,testing_3,zh2sh,e,zh2sh_e,zh2sh_1_ezhe.wav,zh2sh_1_ezhe.wav,,TRUE,FALSE,,,,,,,,,,,,,,f,3.5945,space,3.9652,,,,,,,,0,103,103,36,1,,
63d14e0eb3f244e8d5f88f48,2023-06-16_10h43.02.450,phx_ver10,2022.2.5,Win32,59.34718101,,,,,,,,,,,,57,testing_3,zh2j,au,zh2j_au,zh2j_1_auzhau.wav,zh2j_1_auzhau.wav,,TRUE,FALSE,,,,,,,,,,,,,,f,0.2655,space,0.6097,,,,,,,,0,104,104,56,1,,
63d14e0eb3f244e8d5f88f48,2023-06-16_10h43.02.450,phx_ver10,2022.2.5,Win32,59.34718101,,,,,,,,,,,,55,testing_3,zh2j,ai,zh2j_ai,zh2j_1_aizhai.wav,zh2j_8_aijai.wav,,FALSE,FALSE,,,,,,,,,,,,,,f,0.0677,space,0.3677,,,,,,,,0,105,105,54,1,,
63d14e0eb3f244e8d5f88f48,2023-06-16_10h43.02.450,phx_ver10,2022.2.5,Win32,59.34718101,,,,,,,,,,,,42,testing_3,zh2sh,ei,zh2sh_ei,zh2sh_8_eishei.wav,zh2sh_8_eishei.wav,,TRUE,FALSE,,,,,,,,,,,,,,f,0.7068,space,0.9364,,,,,,,,0,106,106,41,1,,
63d14e0eb3f244e8d5f88f48,2023-06-16_10h43.02.450,phx_ver10,2022.2.5,Win32,59.34718101,,,,,,,,,,,,116,testing_3,sh2x,ei,sh2x_ei,sh2x_8_eixei.wav,sh2x_1_eishei.wav,,FALSE,FALSE,,,,,,,,,,,,,,f,0.4693,space,0.923,,,,,,,,0,107,107,115,1,,
63d14e0eb3f244e8d5f88f48,2023-06-16_10h43.02.450,phx_ver10,2022.2.5,Win32,59.34718101,,,,,,,,,,,,28,testing_3,zh2sh,a,zh2sh_a,zh2sh_8_asha.wav,zh2sh_1_azha.wav,,FALSE,FALSE,,,,,,,,,,,,,,f,0.2007,space,0.6906,,,,,,,,0,108,108,27,1,,
63d14e0eb3f244e8d5f88f48,2023-06-16_10h43.02.450,phx_ver10,2022.2.5,Win32,59.34718101,,,,,,,,,,,,83,testing_3,j2x,au,j2x_au,j2x_1_aujau.wav,j2x_8_auxau.wav,,FALSE,FALSE,,,,,,,,,,,,,,f,0.4453,space,0.8273,,,,,,,,0,109,109,82,1,,
63d14e0eb3f244e8d5f88f48,2023-06-16_10h43.02.450,phx_ver10,2022.2.5,Win32,59.34718101,,,,,,,,,,,,17,testing_2,zh2x,au,zh2x_au,zh2x_1_auzhau.wav,zh2x_1_auzhau.wav,,TRUE,FALSE,,,,,,,,,,,,,,f,0.0716,space,1.0615,,,,,,,,0,110,110,16,1,,
63d14e0eb3f244e8d5f88f48,2023-06-16_10h43.02.450,phx_ver10,2022.2.5,Win32,59.34718101,,,,,,,,,,,,106,testing_3,sh2x,au,sh2x_au,sh2x_8_auxau.wav,sh2x_8_auxau.wav,,TRUE,FALSE,,,,,,,,,,,,,,j,0.1416,space,0.6545,,,,,,,,0,111,111,105,1,,
63d14e0eb3f244e8d5f88f48,2023-06-16_10h43.02.450,phx_ver10,2022.2.5,Win32,59.34718101,,,,,,,,,,,,5,testing_1,zh2x,e,zh2x_e,zh2x_1_ezhe.wav,zh2x_1_ezhe_copy.wav,,TRUE,TRUE,,,,,,,,,,,,,,f,0.6836,space,1.0439,,,,,,,,0,112,112,4,1,,
63d14e0eb3f244e8d5f88f48,2023-06-16_10h43.02.450,phx_ver10,2022.2.5,Win32,59.34718101,,,,,,,,,,,,64,testing_3,zh2j,e,zh2j_e,zh2j_8_eje.wav,zh2j_1_ezhe.wav,,FALSE,FALSE,,,,,,,,,,,,,,f,0.4043,space,0.7726,,,,,,,,0,113,113,63,1,,
63d14e0eb3f244e8d5f88f48,2023-06-16_10h43.02.450,phx_ver10,2022.2.5,Win32,59.34718101,,,,,,,,,,,,121,testing_3,sh2j,a,sh2j_a,sh2j_1_asha.wav,sh2j_1_asha.wav,,TRUE,FALSE,,,,,,,,,,,,,,j,0.8548,space,1.0618,,,,,,,,0,114,114,120,1,,
63d14e0eb3f244e8d5f88f48,2023-06-16_10h43.02.450,phx_ver10,2022.2.5,Win32,59.34718101,,,,,,,,,,,,86,testing_3,j2x,e,j2x_e,j2x_8_exe.wav,j2x_8_exe.wav,,TRUE,FALSE,,,,,,,,,,,,,,f,0.2093,space,0.4274,,,,,,,,0,115,115,85,1,,
63d14e0eb3f244e8d5f88f48,2023-06-16_10h43.02.450,phx_ver10,2022.2.5,Win32,59.34718101,,,,,,,,,,,,66,testing_3,zh2j,ei,zh2j_ei,zh2j_8_eijei.wav,zh2j_8_eijei.wav,,TRUE,FALSE,,,,,,,,,,,,,,f,0.0227,space,0.3216,,,,,,,,0,116,116,65,1,,
63d14e0eb3f244e8d5f88f48,2023-06-16_10h43.02.450,phx_ver10,2022.2.5,Win32,59.34718101,,,,,,,,,,,,8,testing_1,zh2x,e,zh2x_e,zh2x_8_exe.wav,zh2x_1_ezhe.wav,,FALSE,TRUE,,,,,,,,,,,,,,f,1.2003,space,1.77,,,,,,,,0,117,117,7,1,,
63d14e0eb3f244e8d5f88f48,2023-06-16_10h43.02.450,phx_ver10,2022.2.5,Win32,59.34718101,,,,,,,,,,,,74,testing_3,j2x,a,j2x_a,j2x_8_axa.wav,j2x_8_axa.wav,,TRUE,FALSE,,,,,,,,,,,,,,f,0.6015,space,0.8356,,,,,,,,0,118,118,73,1,,
63d14e0eb3f244e8d5f88f48,2023-06-16_10h43.02.450,phx_ver10,2022.2.5,Win32,59.34718101,,,,,,,,,,,,11,testing_1,zh2x,i,zh2x_i,zh2x_1_izhi.wav,zh2x_8_ixi.wav,,FALSE,TRUE,,,,,,,,,,,,,,f,0.4346,space,0.6851,,,,,,,,0,119,119,10,1,,
63d14e0eb3f244e8d5f88f48,2023-06-16_10h43.02.450,phx_ver10,2022.2.5,Win32,59.34718101,,,,,,,,,,,,54,testing_3,zh2j,ai,zh2j_ai,zh2j_8_aijai.wav,zh2j_8_aijai.wav,,TRUE,FALSE,,,,,,,,,,,,,,f,0.3682,space,0.5694,,,,,,,,0,120,120,53,1,,
63d14e0eb3f244e8d5f88f48,2023-06-16_10h43.02.450,phx_ver10,2022.2.5,Win32,59.34718101,,,,,,,,,,,,110,testing_3,sh2x,e,sh2x_e,sh2x_8_exe.wav,sh2x_8_exe.wav,,TRUE,FALSE,,,,,,,,,,,,,,f,0.1514,space,0.3274,,,,,,,,0,121,121,109,1,,
63d14e0eb3f244e8d5f88f48,2023-06-16_10h43.02.450,phx_ver10,2022.2.5,Win32,59.34718101,,,,,,,,,,,,33,testing_3,zh2sh,au,zh2sh_au,zh2sh_1_auzhau.wav,zh2sh_1_auzhau.wav,,TRUE,FALSE,,,,,,,,,,,,,,f,0.0538,space,0.2757,,,,,,,,0,122,122,32,1,,
63d14e0eb3f244e8d5f88f48,2023-06-16_10h43.02.450,phx_ver10,2022.2.5,Win32,59.34718101,,,,,,,,,,,,82,testing_3,j2x,au,j2x_au,j2x_8_auxau.wav,j2x_8_auxau.wav,,TRUE,FALSE,,,,,,,,,,,,,,f,0.2183,space,0.468,,,,,,,,0,123,123,81,1,,
63d14e0eb3f244e8d5f88f48,2023-06-16_10h43.02.450,phx_ver10,2022.2.5,Win32,59.34718101,,,,,,,,,,,,38,testing_3,zh2sh,e,zh2sh_e,zh2sh_8_eshe.wav,zh2sh_8_eshe.wav,,TRUE,FALSE,,,,,,,,,,,,,,f,0.6381,space,0.7543,,,,,,,,0,124,124,37,1,,
63d14e0eb3f244e8d5f88f48,2023-06-16_10h43.02.450,phx_ver10,2022.2.5,Win32,59.34718101,,,,,,,,,,,,14,testing_2,zh2x,ai,zh2x_ai,zh2x_8_aixai.wav,zh2x_8_aixai.wav,,TRUE,FALSE,,,,,,,,,,,,,,f,0.2538,space,0.4424,,,,,,,,0,125,125,13,1,,
63d14e0eb3f244e8d5f88f48,2023-06-16_10h43.02.450,phx_ver10,2022.2.5,Win32,59.34718101,,,,,,,,,,,,136,testing_3,sh2j,e,sh2j_e,sh2j_8_eje.wav,sh2j_1_eshe.wav,,FALSE,FALSE,,,,,,,,,,,,,,f,0.2678,space,0.4536,,,,,,,,0,126,126,135,1,,
63d14e0eb3f244e8d5f88f48,2023-06-16_10h43.02.450,phx_ver10,2022.2.5,Win32,59.34718101,,,,,,,,,,,,12,testing_1,zh2x,i,zh2x_i,zh2x_8_ixi.wav,zh2x_1_izhi.wav,,FALSE,TRUE,,,,,,,,,,,,,,f,0.0191,space,0.1894,,,,,,,,0,127,127,11,1,,
63d14e0eb3f244e8d5f88f48,2023-06-16_10h43.02.450,phx_ver10,2022.2.5,Win32,59.34718101,,,,,,,,,,,,88,testing_3,j2x,e,j2x_e,j2x_8_exe.wav,j2x_1_eje.wav,,FALSE,FALSE,,,,,,,,,,,,,,f,2.2263,space,2.3587,,,,,,,,0,128,128,87,1,,
63d14e0eb3f244e8d5f88f48,2023-06-16_10h43.02.450,phx_ver10,2022.2.5,Win32,59.34718101,,,,,,,,,,,,142,testing_3,sh2j,i,sh2j_i,sh2j_8_iji.wav,sh2j_8_iji.wav,,TRUE,FALSE,,,,,,,,,,,,,,f,0.0364,space,0.235,,,,,,,,0,129,129,141,1,,
63d14e0eb3f244e8d5f88f48,2023-06-16_10h43.02.450,phx_ver10,2022.2.5,Win32,59.34718101,,,,,,,,,,,,27,testing_3,zh2sh,a,zh2sh_a,zh2sh_1_azha.wav,zh2sh_8_asha.wav,,FALSE,FALSE,,,,,,,,,,,,,,f,1.369,space,1.5531,,,,,,,,0,130,130,26,1,,
63d14e0eb3f244e8d5f88f48,2023-06-16_10h43.02.450,phx_ver10,2022.2.5,Win32,59.34718101,,,,,,,,,,,,109,testing_3,sh2x,e,sh2x_e,sh2x_1_eshe.wav,sh2x_1_eshe.wav,,TRUE,FALSE,,,,,,,,,,,,,,f,1.7892,space,2.0461,,,,,,,,0,131,131,108,1,,
63d14e0eb3f244e8d5f88f48,2023-06-16_10h43.02.450,phx_ver10,2022.2.5,Win32,59.34718101,,,,,,,,,,,,143,testing_3,sh2j,i,sh2j_i,sh2j_1_ishi.wav,sh2j_8_iji.wav,,FALSE,FALSE,,,,,,,,,,,,,,f,0.6994,space,1.2666,,,,,,,,0,132,132,142,1,,
63d14e0eb3f244e8d5f88f48,2023-06-16_10h43.02.450,phx_ver10,2022.2.5,Win32,59.34718101,,,,,,,,,,,,140,testing_3,sh2j,ei,sh2j_ei,sh2j_8_eijei.wav,sh2j_1_eishei.wav,,FALSE,FALSE,,,,,,,,,,,,,,j,1.5355,space,1.8934,,,,,,,,0,133,133,139,1,,
63d14e0eb3f244e8d5f88f48,2023-06-16_10h43.02.450,phx_ver10,2022.2.5,Win32,59.34718101,,,,,,,,,,,,29,testing_3,zh2sh,ai,zh2sh_ai,zh2sh_1_aizhai.wav,zh2sh_1_aizhai.wav,,TRUE,FALSE,,,,,,,,,,,,,,j,0.4714,space,3.1379,,,,,,,,0,134,134,28,1,,
63d14e0eb3f244e8d5f88f48,2023-06-16_10h43.02.450,phx_ver10,2022.2.5,Win32,59.34718101,,,,,,,,,,,,35,testing_3,zh2sh,au,zh2sh_au,zh2sh_1_auzhau.wav,zh2sh_8_aushau.wav,,FALSE,FALSE,,,,,,,,,,,,,,j,0.0501,space,0.371,,,,,,,,0,135,135,34,1,,
63d14e0eb3f244e8d5f88f48,2023-06-16_10h43.02.450,phx_ver10,2022.2.5,Win32,59.34718101,,,,,,,,,,,,113,testing_3,sh2x,ei,sh2x_ei,sh2x_1_eishei.wav,sh2x_1_eishei.wav,,TRUE,FALSE,,,,,,,,,,,,,,j,0.9682,space,1.1693,,,,,,,,0,136,136,112,1,,
63d14e0eb3f244e8d5f88f48,2023-06-16_10h43.02.450,phx_ver10,2022.2.5,Win32,59.34718101,,,,,,,,,,,,133,testing_3,sh2j,e,sh2j_e,sh2j_1_eshe.wav,sh2j_1_eshe.wav,,TRUE,FALSE,,,,,,,,,,,,,,f,2.7594,space,3.3075,,,,,,,,0,137,137,132,1,,
63d14e0eb3f244e8d5f88f48,2023-06-16_10h43.02.450,phx_ver10,2022.2.5,Win32,59.34718101,,,,,,,,,,,,47,testing_3,zh2sh,i,zh2sh_i,zh2sh_1_izhi.wav,zh2sh_8_ishi.wav,,FALSE,FALSE,,,,,,,,,,,,,,f,0.4705,space,1.1568,,,,,,,,0,138,138,46,1,,
63d14e0eb3f244e8d5f88f48,2023-06-16_10h43.02.450,phx_ver10,2022.2.5,Win32,59.34718101,,,,,,,,,,,,22,testing_2,zh2x,ei,zh2x_ei,zh2x_8_eixei.wav,zh2x_8_eixei.wav,,TRUE,FALSE,,,,,,,,,,,,,,f,0.0863,space,0.6568,,,,,,,,0,139,139,21,1,,
63d14e0eb3f244e8d5f88f48,2023-06-16_10h43.02.450,phx_ver10,2022.2.5,Win32,59.34718101,,,,,,,,,,,,67,testing_3,zh2j,ei,zh2j_ei,zh2j_1_eizhei.wav,zh2j_8_eijei.wav,,FALSE,FALSE,,,,,,,,,,,,,,j,0.3995,space,0.7087,,,,,,,,0,140,140,66,1,,
63d14e0eb3f244e8d5f88f48,2023-06-16_10h43.02.450,phx_ver10,2022.2.5,Win32,59.34718101,,,,,,,,,,,,26,testing_3,zh2sh,a,zh2sh_a,zh2sh_8_asha.wav,zh2sh_8_asha.wav,,TRUE,FALSE,,,,,,,,,,,,,,f,0.1258,space,0.5852,,,,,,,,0,141,141,25,1,,
63d14e0eb3f244e8d5f88f48,2023-06-16_10h43.02.450,phx_ver10,2022.2.5,Win32,59.34718101,,,,,,,,,,,,84,testing_3,j2x,au,j2x_au,j2x_8_auxau.wav,j2x_1_aujau.wav,,FALSE,FALSE,,,,,,,,,,,,,,j,0.4928,space,0.9184,,,,,,,,0,142,142,83,1,,
63d14e0eb3f244e8d5f88f48,2023-06-16_10h43.02.450,phx_ver10,2022.2.5,Win32,59.34718101,,,,,,,,,,,,71,testing_3,zh2j,i,zh2j_i,zh2j_1_izhi.wav,zh2j_8_iji.wav,,FALSE,FALSE,,,,,,,,,,,,,,j,0.605,space,1.0695,,,,,,,,0,143,143,70,1,,
63d14e0eb3f244e8d5f88f48,2023-06-16_10h43.02.450,phx_ver10,2022.2.5,Win32,59.34718101,,,,,,,,,,,,,,,,,,,,,,,,,,,,,,,,,,,,,,,,,,,,,,,,,,,space,7.4355
