participant,date,expName,psychopyVersion,OS,frameRate,space_1.keys,space_1.rt,space_2.keys,space_2.rt,space_train.keys,space_train.rt,training.thisRepN,training.thisTrialN,training.thisN,training.thisIndex,training.ran,token_id,task,continuum,vowel,series,sound_1,sound_2,img,same,trained,FJ_attn.keys,FJ_attn.rt,space_attn.keys,space_attn.rt,if_attn_test.thisRepN,if_attn_test.thisTrialN,if_attn_test.thisN,if_attn_test.thisIndex,if_attn_test.ran,space_trans_1.keys,space_trans_1.rt,space_trans_11.keys,space_trans_11.rt,FJ_test.keys,FJ_test.rt,space_test.keys,space_test.rt,testing_pre.thisRepN,testing_pre.thisTrialN,testing_pre.thisN,testing_pre.thisIndex,testing_pre.ran,space_trans_2.keys,space_trans_2.rt,testing_all.thisRepN,testing_all.thisTrialN,testing_all.thisN,testing_all.thisIndex,testing_all.ran,space_ending.keys,space_ending.rt
63d3fada47de3a294210f997,2023-06-16_10h29.59.013,phx_ver10,2022.2.5,Win32,60.20832079,,,,,,,,,,,,,,,,,,,,,,,,,,,,,,,,,,,,,,,,,,,,,,,,,,,,
63d3fada47de3a294210f997,2023-06-16_10h29.59.013,phx_ver10,2022.2.5,Win32,60.20832079,space,2.7827,,,,,,,,,,,,,,,,,,,,,,,,,,,,,,,,,,,,,,,,,,,,,,,,,,
63d3fada47de3a294210f997,2023-06-16_10h29.59.013,phx_ver10,2022.2.5,Win32,60.20832079,,,space,1.8643,,,,,,,,,,,,,,,,,,,,,,,,,,,,,,,,,,,,,,,,,,,,,,,,
63d3fada47de3a294210f997,2023-06-16_10h29.59.013,phx_ver10,2022.2.5,Win32,60.20832079,,,,,space,3.8971,0,0,0,8,1,9,training,zh2x,a,zh2x_a,zh2x_5_axa.wav,,axa.jpg,,,,,,,,,,,,,,,,,,,,,,,,,,,,,,,,,
63d3fada47de3a294210f997,2023-06-16_10h29.59.013,phx_ver10,2022.2.5,Win32,60.20832079,,,,,space,2.4898,0,1,1,21,1,22,training,zh2x,e,zh2x_e,zh2x_3_ezhe.wav,,ezhe.jpg,,,,,,,,,,,,,,,,,,,,,,,,,,,,,,,,,
63d3fada47de3a294210f997,2023-06-16_10h29.59.013,phx_ver10,2022.2.5,Win32,60.20832079,,,,,space,1.8996,0,2,2,34,1,35,training,zh2x,i,zh2x_i,zh2x_2_izhi.wav,,izhi.jpg,,,,,,,,,,,,,,,,,,,,,,,,,,,,,,,,,
63d3fada47de3a294210f997,2023-06-16_10h29.59.013,phx_ver10,2022.2.5,Win32,60.20832079,,,,,space,1.3651,0,3,3,31,1,32,training,zh2x,e,zh2x_e,zh2x_8_exe.wav,,exe.jpg,,,,,,,,,,,,,,,,,,,,,,,,,,,,,,,,,
63d3fada47de3a294210f997,2023-06-16_10h29.59.013,phx_ver10,2022.2.5,Win32,60.20832079,,,,,space,1.241,0,4,4,32,1,33,training,zh2x,i,zh2x_i,zh2x_1_izhi.wav,,izhi.jpg,,,,,,,,,,,,,,,,,,,,,,,,,,,,,,,,,
63d3fada47de3a294210f997,2023-06-16_10h29.59.013,phx_ver10,2022.2.5,Win32,60.20832079,,,,,space,1.1753,0,5,5,5,1,6,training,zh2x,a,zh2x_a,zh2x_3_azha.wav,,azha.jpg,,,,,,,,,,,,,,,,,,,,,,,,,,,,,,,,,
63d3fada47de3a294210f997,2023-06-16_10h29.59.013,phx_ver10,2022.2.5,Win32,60.20832079,,,,,,,,,,,,,attn_test,,,,zh2x_1_izhi.wav,zh2x_1_azha.wav,azha.jpg,RIGHT,,j,10.939,space,12.0056,0,0,0,0,1,,,,,,,,,,,,,,,,,,,,,,
63d3fada47de3a294210f997,2023-06-16_10h29.59.013,phx_ver10,2022.2.5,Win32,60.20832079,,,,,space,2.076,0,6,6,35,1,36,training,zh2x,i,zh2x_i,zh2x_2_izhi.wav,,izhi.jpg,,,,,,,,,,,,,,,,,,,,,,,,,,,,,,,,,
63d3fada47de3a294210f997,2023-06-16_10h29.59.013,phx_ver10,2022.2.5,Win32,60.20832079,,,,,space,0.6831,0,7,7,6,1,7,training,zh2x,a,zh2x_a,zh2x_3_azha.wav,,azha.jpg,,,,,,,,,,,,,,,,,,,,,,,,,,,,,,,,,
63d3fada47de3a294210f997,2023-06-16_10h29.59.013,phx_ver10,2022.2.5,Win32,60.20832079,,,,,space,0.5337,0,8,8,7,1,8,training,zh2x,a,zh2x_a,zh2x_4_azha.wav,,azha.jpg,,,,,,,,,,,,,,,,,,,,,,,,,,,,,,,,,
63d3fada47de3a294210f997,2023-06-16_10h29.59.013,phx_ver10,2022.2.5,Win32,60.20832079,,,,,space,0.4972,0,9,9,3,1,4,training,zh2x,a,zh2x_a,zh2x_2_azha.wav,,azha.jpg,,,,,,,,,,,,,,,,,,,,,,,,,,,,,,,,,
63d3fada47de3a294210f997,2023-06-16_10h29.59.013,phx_ver10,2022.2.5,Win32,60.20832079,,,,,space,0.9726,0,10,10,40,1,41,training,zh2x,i,zh2x_i,zh2x_5_ixi.wav,,ixi.jpg,,,,,,,,,,,,,,,,,,,,,,,,,,,,,,,,,
63d3fada47de3a294210f997,2023-06-16_10h29.59.013,phx_ver10,2022.2.5,Win32,60.20832079,,,,,space,0.6726,0,11,11,29,1,30,training,zh2x,e,zh2x_e,zh2x_7_exe.wav,,exe.jpg,,,,,,,,,,,,,,,,,,,,,,,,,,,,,,,,,
63d3fada47de3a294210f997,2023-06-16_10h29.59.013,phx_ver10,2022.2.5,Win32,60.20832079,,,,,,,,,,,,,attn_test,,,,zh2x_1_izhi.wav,zh2x_1_ezhe.wav,izhi.jpg,LEFT,,f,0.4509,space,1.3502,0,0,0,0,1,,,,,,,,,,,,,,,,,,,,,,
63d3fada47de3a294210f997,2023-06-16_10h29.59.013,phx_ver10,2022.2.5,Win32,60.20832079,,,,,space,1.2815,0,12,12,30,1,31,training,zh2x,e,zh2x_e,zh2x_7_exe.wav,,exe.jpg,,,,,,,,,,,,,,,,,,,,,,,,,,,,,,,,,
63d3fada47de3a294210f997,2023-06-16_10h29.59.013,phx_ver10,2022.2.5,Win32,60.20832079,,,,,space,0.4923,0,13,13,36,1,37,training,zh2x,i,zh2x_i,zh2x_2_izhi.wav,,izhi.jpg,,,,,,,,,,,,,,,,,,,,,,,,,,,,,,,,,
63d3fada47de3a294210f997,2023-06-16_10h29.59.013,phx_ver10,2022.2.5,Win32,60.20832079,,,,,space,0.4708,0,14,14,37,1,38,training,zh2x,i,zh2x_i,zh2x_3_izhi.wav,,izhi.jpg,,,,,,,,,,,,,,,,,,,,,,,,,,,,,,,,,
63d3fada47de3a294210f997,2023-06-16_10h29.59.013,phx_ver10,2022.2.5,Win32,60.20832079,,,,,space,0.8695,0,15,15,18,1,19,training,zh2x,e,zh2x_e,zh2x_2_ezhe.wav,,ezhe.jpg,,,,,,,,,,,,,,,,,,,,,,,,,,,,,,,,,
63d3fada47de3a294210f997,2023-06-16_10h29.59.013,phx_ver10,2022.2.5,Win32,60.20832079,,,,,space,0.5502,0,16,16,1,1,2,training,zh2x,a,zh2x_a,zh2x_2_azha.wav,,azha.jpg,,,,,,,,,,,,,,,,,,,,,,,,,,,,,,,,,
63d3fada47de3a294210f997,2023-06-16_10h29.59.013,phx_ver10,2022.2.5,Win32,60.20832079,,,,,space,0.9407,0,17,17,45,1,46,training,zh2x,i,zh2x_i,zh2x_7_ixi.wav,,ixi.jpg,,,,,,,,,,,,,,,,,,,,,,,,,,,,,,,,,
63d3fada47de3a294210f997,2023-06-16_10h29.59.013,phx_ver10,2022.2.5,Win32,60.20832079,,,,,,,,,,,,,attn_test,,,,zh2x_8_axa.wav,zh2x_1_ezhe.wav,ezhe.jpg,RIGHT,,j,0.8501,space,1.5005,0,0,0,0,1,,,,,,,,,,,,,,,,,,,,,,
63d3fada47de3a294210f997,2023-06-16_10h29.59.013,phx_ver10,2022.2.5,Win32,60.20832079,,,,,space,1.7824,0,18,18,47,1,48,training,zh2x,i,zh2x_i,zh2x_8_ixi.wav,,ixi.jpg,,,,,,,,,,,,,,,,,,,,,,,,,,,,,,,,,
63d3fada47de3a294210f997,2023-06-16_10h29.59.013,phx_ver10,2022.2.5,Win32,60.20832079,,,,,space,2.2067,0,19,19,26,1,27,training,zh2x,e,zh2x_e,zh2x_6_exe.wav,,exe.jpg,,,,,,,,,,,,,,,,,,,,,,,,,,,,,,,,,
63d3fada47de3a294210f997,2023-06-16_10h29.59.013,phx_ver10,2022.2.5,Win32,60.20832079,,,,,space,0.5967,0,20,20,11,1,12,training,zh2x,a,zh2x_a,zh2x_7_axa.wav,,axa.jpg,,,,,,,,,,,,,,,,,,,,,,,,,,,,,,,,,
63d3fada47de3a294210f997,2023-06-16_10h29.59.013,phx_ver10,2022.2.5,Win32,60.20832079,,,,,space,0.9726,0,21,21,13,1,14,training,zh2x,a,zh2x_a,zh2x_7_axa.wav,,axa.jpg,,,,,,,,,,,,,,,,,,,,,,,,,,,,,,,,,
63d3fada47de3a294210f997,2023-06-16_10h29.59.013,phx_ver10,2022.2.5,Win32,60.20832079,,,,,space,0.8363,0,22,22,46,1,47,training,zh2x,i,zh2x_i,zh2x_7_ixi.wav,,ixi.jpg,,,,,,,,,,,,,,,,,,,,,,,,,,,,,,,,,
63d3fada47de3a294210f997,2023-06-16_10h29.59.013,phx_ver10,2022.2.5,Win32,60.20832079,,,,,space,0.2562,0,23,23,15,1,16,training,zh2x,a,zh2x_a,zh2x_8_axa.wav,,axa.jpg,,,,,,,,,,,,,,,,,,,,,,,,,,,,,,,,,
63d3fada47de3a294210f997,2023-06-16_10h29.59.013,phx_ver10,2022.2.5,Win32,60.20832079,,,,,,,,,,,,,attn_test,,,,zh2x_8_axa.wav,zh2x_8_exe.wav,axa.jpg,LEFT,,f,0.2802,space,0.9504,0,0,0,0,1,,,,,,,,,,,,,,,,,,,,,,
63d3fada47de3a294210f997,2023-06-16_10h29.59.013,phx_ver10,2022.2.5,Win32,60.20832079,,,,,space,0.7673,0,24,24,22,1,23,training,zh2x,e,zh2x_e,zh2x_3_ezhe.wav,,ezhe.jpg,,,,,,,,,,,,,,,,,,,,,,,,,,,,,,,,,
63d3fada47de3a294210f997,2023-06-16_10h29.59.013,phx_ver10,2022.2.5,Win32,60.20832079,,,,,space,0.4152,0,25,25,4,1,5,training,zh2x,a,zh2x_a,zh2x_2_azha.wav,,azha.jpg,,,,,,,,,,,,,,,,,,,,,,,,,,,,,,,,,
63d3fada47de3a294210f997,2023-06-16_10h29.59.013,phx_ver10,2022.2.5,Win32,60.20832079,,,,,space,0.8973,0,26,26,28,1,29,training,zh2x,e,zh2x_e,zh2x_7_exe.wav,,exe.jpg,,,,,,,,,,,,,,,,,,,,,,,,,,,,,,,,,
63d3fada47de3a294210f997,2023-06-16_10h29.59.013,phx_ver10,2022.2.5,Win32,60.20832079,,,,,space,0.7076,0,27,27,41,1,42,training,zh2x,i,zh2x_i,zh2x_6_ixi.wav,,ixi.jpg,,,,,,,,,,,,,,,,,,,,,,,,,,,,,,,,,
63d3fada47de3a294210f997,2023-06-16_10h29.59.013,phx_ver10,2022.2.5,Win32,60.20832079,,,,,space,0.4524,0,28,28,44,1,45,training,zh2x,i,zh2x_i,zh2x_7_ixi.wav,,ixi.jpg,,,,,,,,,,,,,,,,,,,,,,,,,,,,,,,,,
63d3fada47de3a294210f997,2023-06-16_10h29.59.013,phx_ver10,2022.2.5,Win32,60.20832079,,,,,space,0.305,0,29,29,14,1,15,training,zh2x,a,zh2x_a,zh2x_7_axa.wav,,axa.jpg,,,,,,,,,,,,,,,,,,,,,,,,,,,,,,,,,
63d3fada47de3a294210f997,2023-06-16_10h29.59.013,phx_ver10,2022.2.5,Win32,60.20832079,,,,,,,,,,,,,attn_test,,,,zh2x_8_ixi.wav,zh2x_1_izhi.wav,ixi.jpg,LEFT,,j,2.4698,space,3.0869,0,0,0,0,1,,,,,,,,,,,,,,,,,,,,,,
63d3fada47de3a294210f997,2023-06-16_10h29.59.013,phx_ver10,2022.2.5,Win32,60.20832079,,,,,space,0.5575,0,30,30,33,1,34,training,zh2x,i,zh2x_i,zh2x_2_izhi.wav,,izhi.jpg,,,,,,,,,,,,,,,,,,,,,,,,,,,,,,,,,
63d3fada47de3a294210f997,2023-06-16_10h29.59.013,phx_ver10,2022.2.5,Win32,60.20832079,,,,,space,0.1697,0,31,31,39,1,40,training,zh2x,i,zh2x_i,zh2x_4_izhi.wav,,izhi.jpg,,,,,,,,,,,,,,,,,,,,,,,,,,,,,,,,,
63d3fada47de3a294210f997,2023-06-16_10h29.59.013,phx_ver10,2022.2.5,Win32,60.20832079,,,,,space,0.3203,0,32,32,24,1,25,training,zh2x,e,zh2x_e,zh2x_5_exe.wav,,exe.jpg,,,,,,,,,,,,,,,,,,,,,,,,,,,,,,,,,
63d3fada47de3a294210f997,2023-06-16_10h29.59.013,phx_ver10,2022.2.5,Win32,60.20832079,,,,,space,0.5413,0,33,33,42,1,43,training,zh2x,i,zh2x_i,zh2x_6_ixi.wav,,ixi.jpg,,,,,,,,,,,,,,,,,,,,,,,,,,,,,,,,,
63d3fada47de3a294210f997,2023-06-16_10h29.59.013,phx_ver10,2022.2.5,Win32,60.20832079,,,,,space,0.3017,0,34,34,19,1,20,training,zh2x,e,zh2x_e,zh2x_2_ezhe.wav,,ezhe.jpg,,,,,,,,,,,,,,,,,,,,,,,,,,,,,,,,,
63d3fada47de3a294210f997,2023-06-16_10h29.59.013,phx_ver10,2022.2.5,Win32,60.20832079,,,,,space,0.3031,0,35,35,23,1,24,training,zh2x,e,zh2x_e,zh2x_4_ezhe.wav,,ezhe.jpg,,,,,,,,,,,,,,,,,,,,,,,,,,,,,,,,,
63d3fada47de3a294210f997,2023-06-16_10h29.59.013,phx_ver10,2022.2.5,Win32,60.20832079,,,,,,,,,,,,,attn_test,,,,zh2x_8_exe.wav,zh2x_8_ixi.wav,exe.jpg,LEFT,,f,0.3347,space,0.9042,0,0,0,0,1,,,,,,,,,,,,,,,,,,,,,,
63d3fada47de3a294210f997,2023-06-16_10h29.59.013,phx_ver10,2022.2.5,Win32,60.20832079,,,,,space,0.5521,0,36,36,2,1,3,training,zh2x,a,zh2x_a,zh2x_2_azha.wav,,azha.jpg,,,,,,,,,,,,,,,,,,,,,,,,,,,,,,,,,
63d3fada47de3a294210f997,2023-06-16_10h29.59.013,phx_ver10,2022.2.5,Win32,60.20832079,,,,,space,0.7997,0,37,37,43,1,44,training,zh2x,i,zh2x_i,zh2x_7_ixi.wav,,ixi.jpg,,,,,,,,,,,,,,,,,,,,,,,,,,,,,,,,,
63d3fada47de3a294210f997,2023-06-16_10h29.59.013,phx_ver10,2022.2.5,Win32,60.20832079,,,,,space,0.1537,0,38,38,38,1,39,training,zh2x,i,zh2x_i,zh2x_3_izhi.wav,,izhi.jpg,,,,,,,,,,,,,,,,,,,,,,,,,,,,,,,,,
63d3fada47de3a294210f997,2023-06-16_10h29.59.013,phx_ver10,2022.2.5,Win32,60.20832079,,,,,space,0.2753,0,39,39,0,1,1,training,zh2x,a,zh2x_a,zh2x_1_azha.wav,,azha.jpg,,,,,,,,,,,,,,,,,,,,,,,,,,,,,,,,,
63d3fada47de3a294210f997,2023-06-16_10h29.59.013,phx_ver10,2022.2.5,Win32,60.20832079,,,,,space,0.0705,0,40,40,10,1,11,training,zh2x,a,zh2x_a,zh2x_6_axa.wav,,axa.jpg,,,,,,,,,,,,,,,,,,,,,,,,,,,,,,,,,
63d3fada47de3a294210f997,2023-06-16_10h29.59.013,phx_ver10,2022.2.5,Win32,60.20832079,,,,,space,0.2039,0,41,41,9,1,10,training,zh2x,a,zh2x_a,zh2x_6_axa.wav,,axa.jpg,,,,,,,,,,,,,,,,,,,,,,,,,,,,,,,,,
63d3fada47de3a294210f997,2023-06-16_10h29.59.013,phx_ver10,2022.2.5,Win32,60.20832079,,,,,,,,,,,,,attn_test,,,,zh2x_8_ixi.wav,zh2x_1_azha.wav,ixi.jpg,LEFT,,f,0.4878,space,0.9365,0,0,0,0,1,,,,,,,,,,,,,,,,,,,,,,
63d3fada47de3a294210f997,2023-06-16_10h29.59.013,phx_ver10,2022.2.5,Win32,60.20832079,,,,,space,0.4556,0,42,42,27,1,28,training,zh2x,e,zh2x_e,zh2x_7_exe.wav,,exe.jpg,,,,,,,,,,,,,,,,,,,,,,,,,,,,,,,,,
63d3fada47de3a294210f997,2023-06-16_10h29.59.013,phx_ver10,2022.2.5,Win32,60.20832079,,,,,space,1.6356,0,43,43,16,1,17,training,zh2x,e,zh2x_e,zh2x_1_ezhe.wav,,ezhe.jpg,,,,,,,,,,,,,,,,,,,,,,,,,,,,,,,,,
63d3fada47de3a294210f997,2023-06-16_10h29.59.013,phx_ver10,2022.2.5,Win32,60.20832079,,,,,space,0.3147,0,44,44,17,1,18,training,zh2x,e,zh2x_e,zh2x_2_ezhe.wav,,ezhe.jpg,,,,,,,,,,,,,,,,,,,,,,,,,,,,,,,,,
63d3fada47de3a294210f997,2023-06-16_10h29.59.013,phx_ver10,2022.2.5,Win32,60.20832079,,,,,space,0.7523,0,45,45,25,1,26,training,zh2x,e,zh2x_e,zh2x_6_exe.wav,,exe.jpg,,,,,,,,,,,,,,,,,,,,,,,,,,,,,,,,,
63d3fada47de3a294210f997,2023-06-16_10h29.59.013,phx_ver10,2022.2.5,Win32,60.20832079,,,,,space,0.1374,0,46,46,12,1,13,training,zh2x,a,zh2x_a,zh2x_7_axa.wav,,axa.jpg,,,,,,,,,,,,,,,,,,,,,,,,,,,,,,,,,
63d3fada47de3a294210f997,2023-06-16_10h29.59.013,phx_ver10,2022.2.5,Win32,60.20832079,,,,,space,0.2468,0,47,47,20,1,21,training,zh2x,e,zh2x_e,zh2x_2_ezhe.wav,,ezhe.jpg,,,,,,,,,,,,,,,,,,,,,,,,,,,,,,,,,
63d3fada47de3a294210f997,2023-06-16_10h29.59.013,phx_ver10,2022.2.5,Win32,60.20832079,,,,,,,,,,,,,attn_test,,,,zh2x_1_ezhe.wav,zh2x_8_exe.wav,exe.jpg,RIGHT,,j,1.0231,space,1.6192,,,,,,,,,,,,,,,,,,,,,,,,,,,
63d3fada47de3a294210f997,2023-06-16_10h29.59.013,phx_ver10,2022.2.5,Win32,60.20832079,,,,,,,,,,,,,,,,,,,,,,,,,,,,,,,space,0.7187,,,,,,,,,,,,,,,,,,,,
63d3fada47de3a294210f997,2023-06-16_10h29.59.013,phx_ver10,2022.2.5,Win32,60.20832079,,,,,,,,,,,,,,,,,,,,,,,,,,,,,,,,,space,7.5602,,,,,,,,,,,,,,,,,,
63d3fada47de3a294210f997,2023-06-16_10h29.59.013,phx_ver10,2022.2.5,Win32,60.20832079,,,,,,,,,,,,1,testing_pre,,,,ifi.wav,ifi.wav,,TRUE,,,,,,,,,,,,,,,f,3.0436,space,4.3634,0,0,0,0,1,,,,,,,,,
63d3fada47de3a294210f997,2023-06-16_10h29.59.013,phx_ver10,2022.2.5,Win32,60.20832079,,,,,,,,,,,,4,testing_pre,,,,eihei.wav,eihei.wav,,TRUE,,,,,,,,,,,,,,,f,0.8828,space,1.5206,0,1,1,3,1,,,,,,,,,
63d3fada47de3a294210f997,2023-06-16_10h29.59.013,phx_ver10,2022.2.5,Win32,60.20832079,,,,,,,,,,,,3,testing_pre,,,,afa.wav,aha.wav,,FALSE,,,,,,,,,,,,,,,j,0.5257,space,1.0379,0,2,2,2,1,,,,,,,,,
63d3fada47de3a294210f997,2023-06-16_10h29.59.013,phx_ver10,2022.2.5,Win32,60.20832079,,,,,,,,,,,,2,testing_pre,,,,auhau.wav,aufau.wav,,FALSE,,,,,,,,,,,,,,,j,2.0906,space,2.4385,0,3,3,1,1,,,,,,,,,
63d3fada47de3a294210f997,2023-06-16_10h29.59.013,phx_ver10,2022.2.5,Win32,60.20832079,,,,,,,,,,,,5,testing_pre,,,,ihi.wav,ifi.wav,,FALSE,,,,,,,,,,,,,,,j,0.6319,space,0.9656,0,4,4,4,1,,,,,,,,,
63d3fada47de3a294210f997,2023-06-16_10h29.59.013,phx_ver10,2022.2.5,Win32,60.20832079,,,,,,,,,,,,,,,,,,,,,,,,,,,,,,,,,,,,,,,,,,,,space,1.5631,,,,,,,
63d3fada47de3a294210f997,2023-06-16_10h29.59.013,phx_ver10,2022.2.5,Win32,60.20832079,,,,,,,,,,,,5,testing_1,zh2x,e,zh2x_e,zh2x_1_ezhe.wav,zh2x_1_ezhe_copy.wav,,TRUE,TRUE,,,,,,,,,,,,,,f,0.6183,space,1.4023,,,,,,,,0,0,0,4,1,,
63d3fada47de3a294210f997,2023-06-16_10h29.59.013,phx_ver10,2022.2.5,Win32,60.20832079,,,,,,,,,,,,124,testing_3,sh2j,a,sh2j_a,sh2j_8_aja.wav,sh2j_1_asha.wav,,FALSE,FALSE,,,,,,,,,,,,,,j,0.2441,space,0.651,,,,,,,,0,1,1,123,1,,
63d3fada47de3a294210f997,2023-06-16_10h29.59.013,phx_ver10,2022.2.5,Win32,60.20832079,,,,,,,,,,,,144,testing_3,sh2j,i,sh2j_i,sh2j_8_iji.wav,sh2j_1_ishi.wav,,FALSE,FALSE,,,,,,,,,,,,,,j,1.0083,space,1.2965,,,,,,,,0,2,2,143,1,,
63d3fada47de3a294210f997,2023-06-16_10h29.59.013,phx_ver10,2022.2.5,Win32,60.20832079,,,,,,,,,,,,31,testing_3,zh2sh,ai,zh2sh_ai,zh2sh_1_aizhai.wav,zh2sh_8_aishai.wav,,FALSE,FALSE,,,,,,,,,,,,,,j,0.6564,space,0.9029,,,,,,,,0,3,3,30,1,,
63d3fada47de3a294210f997,2023-06-16_10h29.59.013,phx_ver10,2022.2.5,Win32,60.20832079,,,,,,,,,,,,96,testing_3,j2x,i,j2x_i,j2x_8_ixi.wav,j2x_1_iji.wav,,FALSE,FALSE,,,,,,,,,,,,,,j,1.3349,space,1.5822,,,,,,,,0,4,4,95,1,,
63d3fada47de3a294210f997,2023-06-16_10h29.59.013,phx_ver10,2022.2.5,Win32,60.20832079,,,,,,,,,,,,30,testing_3,zh2sh,ai,zh2sh_ai,zh2sh_8_aishai.wav,zh2sh_8_aishai.wav,,TRUE,FALSE,,,,,,,,,,,,,,f,0.4079,space,0.9298,,,,,,,,0,5,5,29,1,,
63d3fada47de3a294210f997,2023-06-16_10h29.59.013,phx_ver10,2022.2.5,Win32,60.20832079,,,,,,,,,,,,137,testing_3,sh2j,ei,sh2j_ei,sh2j_1_eishei.wav,sh2j_1_eishei.wav,,TRUE,FALSE,,,,,,,,,,,,,,f,0.4578,space,0.8672,,,,,,,,0,6,6,136,1,,
63d3fada47de3a294210f997,2023-06-16_10h29.59.013,phx_ver10,2022.2.5,Win32,60.20832079,,,,,,,,,,,,64,testing_3,zh2j,e,zh2j_e,zh2j_8_eje.wav,zh2j_1_ezhe.wav,,FALSE,FALSE,,,,,,,,,,,,,,f,0.6548,space,0.9839,,,,,,,,0,7,7,63,1,,
63d3fada47de3a294210f997,2023-06-16_10h29.59.013,phx_ver10,2022.2.5,Win32,60.20832079,,,,,,,,,,,,69,testing_3,zh2j,i,zh2j_i,zh2j_1_izhi.wav,zh2j_1_izhi.wav,,TRUE,FALSE,,,,,,,,,,,,,,f,1.3498,space,1.6638,,,,,,,,0,8,8,68,1,,
63d3fada47de3a294210f997,2023-06-16_10h29.59.013,phx_ver10,2022.2.5,Win32,60.20832079,,,,,,,,,,,,121,testing_3,sh2j,a,sh2j_a,sh2j_1_asha.wav,sh2j_1_asha.wav,,TRUE,FALSE,,,,,,,,,,,,,,f,0.1049,space,0.4819,,,,,,,,0,9,9,120,1,,
63d3fada47de3a294210f997,2023-06-16_10h29.59.013,phx_ver10,2022.2.5,Win32,60.20832079,,,,,,,,,,,,33,testing_3,zh2sh,au,zh2sh_au,zh2sh_1_auzhau.wav,zh2sh_1_auzhau.wav,,TRUE,FALSE,,,,,,,,,,,,,,f,0.0567,space,0.3839,,,,,,,,0,10,10,32,1,,
63d3fada47de3a294210f997,2023-06-16_10h29.59.013,phx_ver10,2022.2.5,Win32,60.20832079,,,,,,,,,,,,63,testing_3,zh2j,e,zh2j_e,zh2j_1_ezhe.wav,zh2j_8_eje.wav,,FALSE,FALSE,,,,,,,,,,,,,,f,0.085,space,0.4478,,,,,,,,0,11,11,62,1,,
63d3fada47de3a294210f997,2023-06-16_10h29.59.013,phx_ver10,2022.2.5,Win32,60.20832079,,,,,,,,,,,,43,testing_3,zh2sh,ei,zh2sh_ei,zh2sh_1_eizhei.wav,zh2sh_8_eishei.wav,,FALSE,FALSE,,,,,,,,,,,,,,j,0.2336,space,0.5428,,,,,,,,0,12,12,42,1,,
63d3fada47de3a294210f997,2023-06-16_10h29.59.013,phx_ver10,2022.2.5,Win32,60.20832079,,,,,,,,,,,,26,testing_3,zh2sh,a,zh2sh_a,zh2sh_8_asha.wav,zh2sh_8_asha.wav,,TRUE,FALSE,,,,,,,,,,,,,,f,0.0202,space,0.4426,,,,,,,,0,13,13,25,1,,
63d3fada47de3a294210f997,2023-06-16_10h29.59.013,phx_ver10,2022.2.5,Win32,60.20832079,,,,,,,,,,,,142,testing_3,sh2j,i,sh2j_i,sh2j_8_iji.wav,sh2j_8_iji.wav,,TRUE,FALSE,,,,,,,,,,,,,,f,0.3256,space,0.6723,,,,,,,,0,14,14,141,1,,
63d3fada47de3a294210f997,2023-06-16_10h29.59.013,phx_ver10,2022.2.5,Win32,60.20832079,,,,,,,,,,,,62,testing_3,zh2j,e,zh2j_e,zh2j_8_eje.wav,zh2j_8_eje.wav,,TRUE,FALSE,,,,,,,,,,,,,,f,0.0176,space,0.3975,,,,,,,,0,15,15,61,1,,
63d3fada47de3a294210f997,2023-06-16_10h29.59.013,phx_ver10,2022.2.5,Win32,60.20832079,,,,,,,,,,,,103,testing_3,sh2x,ai,sh2x_ai,sh2x_1_aishai.wav,sh2x_8_aixai.wav,,FALSE,FALSE,,,,,,,,,,,,,,f,0.1963,space,0.5487,,,,,,,,0,16,16,102,1,,
63d3fada47de3a294210f997,2023-06-16_10h29.59.013,phx_ver10,2022.2.5,Win32,60.20832079,,,,,,,,,,,,136,testing_3,sh2j,e,sh2j_e,sh2j_8_eje.wav,sh2j_1_eshe.wav,,FALSE,FALSE,,,,,,,,,,,,,,j,0.3556,space,0.6529,,,,,,,,0,17,17,135,1,,
63d3fada47de3a294210f997,2023-06-16_10h29.59.013,phx_ver10,2022.2.5,Win32,60.20832079,,,,,,,,,,,,131,testing_3,sh2j,au,sh2j_au,sh2j_1_aushau.wav,sh2j_8_aujau.wav,,FALSE,FALSE,,,,,,,,,,,,,,j,1.268,space,1.5384,,,,,,,,0,18,18,130,1,,
63d3fada47de3a294210f997,2023-06-16_10h29.59.013,phx_ver10,2022.2.5,Win32,60.20832079,,,,,,,,,,,,127,testing_3,sh2j,ai,sh2j_ai,sh2j_1_aishai.wav,sh2j_8_aijai.wav,,FALSE,FALSE,,,,,,,,,,,,,,j,0.2049,space,0.5732,,,,,,,,0,19,19,126,1,,
63d3fada47de3a294210f997,2023-06-16_10h29.59.013,phx_ver10,2022.2.5,Win32,60.20832079,,,,,,,,,,,,37,testing_3,zh2sh,e,zh2sh_e,zh2sh_1_ezhe.wav,zh2sh_1_ezhe.wav,,TRUE,FALSE,,,,,,,,,,,,,,f,0.6838,space,1.01,,,,,,,,0,20,20,36,1,,
63d3fada47de3a294210f997,2023-06-16_10h29.59.013,phx_ver10,2022.2.5,Win32,60.20832079,,,,,,,,,,,,49,testing_3,zh2j,a,zh2j_a,zh2j_1_azha.wav,zh2j_1_azha.wav,,TRUE,FALSE,,,,,,,,,,,,,,f,0.4224,space,0.7545,,,,,,,,0,21,21,48,1,,
63d3fada47de3a294210f997,2023-06-16_10h29.59.013,phx_ver10,2022.2.5,Win32,60.20832079,,,,,,,,,,,,86,testing_3,j2x,e,j2x_e,j2x_8_exe.wav,j2x_8_exe.wav,,TRUE,FALSE,,,,,,,,,,,,,,f,0.2691,space,0.6311,,,,,,,,0,22,22,85,1,,
63d3fada47de3a294210f997,2023-06-16_10h29.59.013,phx_ver10,2022.2.5,Win32,60.20832079,,,,,,,,,,,,42,testing_3,zh2sh,ei,zh2sh_ei,zh2sh_8_eishei.wav,zh2sh_8_eishei.wav,,TRUE,FALSE,,,,,,,,,,,,,,f,0.2239,space,0.5812,,,,,,,,0,23,23,41,1,,
63d3fada47de3a294210f997,2023-06-16_10h29.59.013,phx_ver10,2022.2.5,Win32,60.20832079,,,,,,,,,,,,134,testing_3,sh2j,e,sh2j_e,sh2j_8_eje.wav,sh2j_8_eje.wav,,TRUE,FALSE,,,,,,,,,,,,,,f,0.7307,space,1.3695,,,,,,,,0,24,24,133,1,,
63d3fada47de3a294210f997,2023-06-16_10h29.59.013,phx_ver10,2022.2.5,Win32,60.20832079,,,,,,,,,,,,112,testing_3,sh2x,e,sh2x_e,sh2x_8_exe.wav,sh2x_1_eshe.wav,,FALSE,FALSE,,,,,,,,,,,,,,j,0.3634,space,0.6889,,,,,,,,0,25,25,111,1,,
63d3fada47de3a294210f997,2023-06-16_10h29.59.013,phx_ver10,2022.2.5,Win32,60.20832079,,,,,,,,,,,,133,testing_3,sh2j,e,sh2j_e,sh2j_1_eshe.wav,sh2j_1_eshe.wav,,TRUE,FALSE,,,,,,,,,,,,,,f,0.1984,space,0.5355,,,,,,,,0,26,26,132,1,,
63d3fada47de3a294210f997,2023-06-16_10h29.59.013,phx_ver10,2022.2.5,Win32,60.20832079,,,,,,,,,,,,119,testing_3,sh2x,i,sh2x_i,sh2x_1_ishi.wav,sh2x_8_ixi.wav,,FALSE,FALSE,,,,,,,,,,,,,,f,0.5707,space,0.8865,,,,,,,,0,27,27,118,1,,
63d3fada47de3a294210f997,2023-06-16_10h29.59.013,phx_ver10,2022.2.5,Win32,60.20832079,,,,,,,,,,,,55,testing_3,zh2j,ai,zh2j_ai,zh2j_1_aizhai.wav,zh2j_8_aijai.wav,,FALSE,FALSE,,,,,,,,,,,,,,f,0.3664,space,0.6361,,,,,,,,0,28,28,54,1,,
63d3fada47de3a294210f997,2023-06-16_10h29.59.013,phx_ver10,2022.2.5,Win32,60.20832079,,,,,,,,,,,,82,testing_3,j2x,au,j2x_au,j2x_8_auxau.wav,j2x_8_auxau.wav,,TRUE,FALSE,,,,,,,,,,,,,,f,0.0285,space,0.4895,,,,,,,,0,29,29,81,1,,
63d3fada47de3a294210f997,2023-06-16_10h29.59.013,phx_ver10,2022.2.5,Win32,60.20832079,,,,,,,,,,,,58,testing_3,zh2j,au,zh2j_au,zh2j_8_aujau.wav,zh2j_8_aujau.wav,,TRUE,FALSE,,,,,,,,,,,,,,f,0.2036,space,0.5695,,,,,,,,0,30,30,57,1,,
63d3fada47de3a294210f997,2023-06-16_10h29.59.013,phx_ver10,2022.2.5,Win32,60.20832079,,,,,,,,,,,,71,testing_3,zh2j,i,zh2j_i,zh2j_1_izhi.wav,zh2j_8_iji.wav,,FALSE,FALSE,,,,,,,,,,,,,,f,0.0523,space,0.4176,,,,,,,,0,31,31,70,1,,
63d3fada47de3a294210f997,2023-06-16_10h29.59.013,phx_ver10,2022.2.5,Win32,60.20832079,,,,,,,,,,,,141,testing_3,sh2j,i,sh2j_i,sh2j_1_ishi.wav,sh2j_1_ishi.wav,,TRUE,FALSE,,,,,,,,,,,,,,f,0.0419,space,0.4387,,,,,,,,0,32,32,140,1,,
63d3fada47de3a294210f997,2023-06-16_10h29.59.013,phx_ver10,2022.2.5,Win32,60.20832079,,,,,,,,,,,,90,testing_3,j2x,ei,j2x_ei,j2x_8_eixei.wav,j2x_8_eixei.wav,,TRUE,FALSE,,,,,,,,,,,,,,f,0.0756,space,0.4681,,,,,,,,0,33,33,89,1,,
63d3fada47de3a294210f997,2023-06-16_10h29.59.013,phx_ver10,2022.2.5,Win32,60.20832079,,,,,,,,,,,,139,testing_3,sh2j,ei,sh2j_ei,sh2j_1_eishei.wav,sh2j_8_eijei.wav,,FALSE,FALSE,,,,,,,,,,,,,,j,2.5738,space,2.8346,,,,,,,,0,34,34,138,1,,
63d3fada47de3a294210f997,2023-06-16_10h29.59.013,phx_ver10,2022.2.5,Win32,60.20832079,,,,,,,,,,,,24,testing_2,zh2x,ei,zh2x_ei,zh2x_8_eixei.wav,zh2x_1_eizhei.wav,,FALSE,FALSE,,,,,,,,,,,,,,j,0.4372,space,1.8523,,,,,,,,0,35,35,23,1,,
63d3fada47de3a294210f997,2023-06-16_10h29.59.013,phx_ver10,2022.2.5,Win32,60.20832079,,,,,,,,,,,,84,testing_3,j2x,au,j2x_au,j2x_8_auxau.wav,j2x_1_aujau.wav,,FALSE,FALSE,,,,,,,,,,,,,,j,0.7858,space,1.1184,,,,,,,,0,36,36,83,1,,
63d3fada47de3a294210f997,2023-06-16_10h29.59.013,phx_ver10,2022.2.5,Win32,60.20832079,,,,,,,,,,,,105,testing_3,sh2x,au,sh2x_au,sh2x_1_aushau.wav,sh2x_1_aushau.wav,,TRUE,FALSE,,,,,,,,,,,,,,f,0.1519,space,0.3908,,,,,,,,0,37,37,104,1,,
63d3fada47de3a294210f997,2023-06-16_10h29.59.013,phx_ver10,2022.2.5,Win32,60.20832079,,,,,,,,,,,,17,testing_2,zh2x,au,zh2x_au,zh2x_1_auzhau.wav,zh2x_1_auzhau.wav,,TRUE,FALSE,,,,,,,,,,,,,,f,0.2179,space,0.4579,,,,,,,,0,38,38,16,1,,
63d3fada47de3a294210f997,2023-06-16_10h29.59.013,phx_ver10,2022.2.5,Win32,60.20832079,,,,,,,,,,,,135,testing_3,sh2j,e,sh2j_e,sh2j_1_eshe.wav,sh2j_8_eje.wav,,FALSE,FALSE,,,,,,,,,,,,,,j,0.2507,space,0.6058,,,,,,,,0,39,39,134,1,,
63d3fada47de3a294210f997,2023-06-16_10h29.59.013,phx_ver10,2022.2.5,Win32,60.20832079,,,,,,,,,,,,22,testing_2,zh2x,ei,zh2x_ei,zh2x_8_eixei.wav,zh2x_8_eixei.wav,,TRUE,FALSE,,,,,,,,,,,,,,f,0.1518,space,0.4729,,,,,,,,0,40,40,21,1,,
63d3fada47de3a294210f997,2023-06-16_10h29.59.013,phx_ver10,2022.2.5,Win32,60.20832079,,,,,,,,,,,,111,testing_3,sh2x,e,sh2x_e,sh2x_1_eshe.wav,sh2x_8_exe.wav,,FALSE,FALSE,,,,,,,,,,,,,,j,0.874,space,1.2332,,,,,,,,0,41,41,110,1,,
63d3fada47de3a294210f997,2023-06-16_10h29.59.013,phx_ver10,2022.2.5,Win32,60.20832079,,,,,,,,,,,,2,testing_1,zh2x,a,zh2x_a,zh2x_8_axa.wav,zh2x_8_axa_copy.wav,,TRUE,TRUE,,,,,,,,,,,,,,f,0.1903,space,0.5673,,,,,,,,0,42,42,1,1,,
63d3fada47de3a294210f997,2023-06-16_10h29.59.013,phx_ver10,2022.2.5,Win32,60.20832079,,,,,,,,,,,,36,testing_3,zh2sh,au,zh2sh_au,zh2sh_8_aushau.wav,zh2sh_1_auzhau.wav,,FALSE,FALSE,,,,,,,,,,,,,,j,1.1198,space,1.3753,,,,,,,,0,43,43,35,1,,
63d3fada47de3a294210f997,2023-06-16_10h29.59.013,phx_ver10,2022.2.5,Win32,60.20832079,,,,,,,,,,,,113,testing_3,sh2x,ei,sh2x_ei,sh2x_1_eishei.wav,sh2x_1_eishei.wav,,TRUE,FALSE,,,,,,,,,,,,,,f,0.5502,space,1.3376,,,,,,,,0,44,44,112,1,,
63d3fada47de3a294210f997,2023-06-16_10h29.59.013,phx_ver10,2022.2.5,Win32,60.20832079,,,,,,,,,,,,7,testing_1,zh2x,e,zh2x_e,zh2x_1_ezhe.wav,zh2x_8_exe.wav,,FALSE,TRUE,,,,,,,,,,,,,,j,0.1678,space,0.5179,,,,,,,,0,45,45,6,1,,
63d3fada47de3a294210f997,2023-06-16_10h29.59.013,phx_ver10,2022.2.5,Win32,60.20832079,,,,,,,,,,,,109,testing_3,sh2x,e,sh2x_e,sh2x_1_eshe.wav,sh2x_1_eshe.wav,,TRUE,FALSE,,,,,,,,,,,,,,f,0.1828,space,0.5551,,,,,,,,0,46,46,108,1,,
63d3fada47de3a294210f997,2023-06-16_10h29.59.013,phx_ver10,2022.2.5,Win32,60.20832079,,,,,,,,,,,,46,testing_3,zh2sh,i,zh2sh_i,zh2sh_8_ishi.wav,zh2sh_8_ishi.wav,,TRUE,FALSE,,,,,,,,,,,,,,f,2.1658,space,2.5319,,,,,,,,0,47,47,45,1,,
63d3fada47de3a294210f997,2023-06-16_10h29.59.013,phx_ver10,2022.2.5,Win32,60.20832079,,,,,,,,,,,,20,testing_2,zh2x,au,zh2x_au,zh2x_8_auxau.wav,zh2x_1_auzhau.wav,,FALSE,FALSE,,,,,,,,,,,,,,j,0.1581,space,0.411,,,,,,,,0,48,48,19,1,,
63d3fada47de3a294210f997,2023-06-16_10h29.59.013,phx_ver10,2022.2.5,Win32,60.20832079,,,,,,,,,,,,87,testing_3,j2x,e,j2x_e,j2x_1_eje.wav,j2x_8_exe.wav,,FALSE,FALSE,,,,,,,,,,,,,,j,1.1709,space,1.3861,,,,,,,,0,49,49,86,1,,
63d3fada47de3a294210f997,2023-06-16_10h29.59.013,phx_ver10,2022.2.5,Win32,60.20832079,,,,,,,,,,,,122,testing_3,sh2j,a,sh2j_a,sh2j_8_aja.wav,sh2j_8_aja.wav,,TRUE,FALSE,,,,,,,,,,,,,,f,0.5583,space,0.8868,,,,,,,,0,50,50,121,1,,
63d3fada47de3a294210f997,2023-06-16_10h29.59.013,phx_ver10,2022.2.5,Win32,60.20832079,,,,,,,,,,,,106,testing_3,sh2x,au,sh2x_au,sh2x_8_auxau.wav,sh2x_8_auxau.wav,,TRUE,FALSE,,,,,,,,,,,,,,f,0.351,space,0.6247,,,,,,,,0,51,51,105,1,,
63d3fada47de3a294210f997,2023-06-16_10h29.59.013,phx_ver10,2022.2.5,Win32,60.20832079,,,,,,,,,,,,98,testing_3,sh2x,a,sh2x_a,sh2x_8_axa.wav,sh2x_8_axa.wav,,TRUE,FALSE,,,,,,,,,,,,,,f,0.0274,space,0.3664,,,,,,,,0,52,52,97,1,,
63d3fada47de3a294210f997,2023-06-16_10h29.59.013,phx_ver10,2022.2.5,Win32,60.20832079,,,,,,,,,,,,3,testing_1,zh2x,a,zh2x_a,zh2x_1_azha.wav,zh2x_8_axa.wav,,FALSE,TRUE,,,,,,,,,,,,,,j,0.1533,space,0.3836,,,,,,,,0,53,53,2,1,,
63d3fada47de3a294210f997,2023-06-16_10h29.59.013,phx_ver10,2022.2.5,Win32,60.20832079,,,,,,,,,,,,57,testing_3,zh2j,au,zh2j_au,zh2j_1_auzhau.wav,zh2j_1_auzhau.wav,,TRUE,FALSE,,,,,,,,,,,,,,f,0.3589,space,0.681,,,,,,,,0,54,54,56,1,,
63d3fada47de3a294210f997,2023-06-16_10h29.59.013,phx_ver10,2022.2.5,Win32,60.20832079,,,,,,,,,,,,41,testing_3,zh2sh,ei,zh2sh_ei,zh2sh_1_eizhei.wav,zh2sh_1_eizhei.wav,,TRUE,FALSE,,,,,,,,,,,,,,f,0.0092,space,0.3174,,,,,,,,0,55,55,40,1,,
63d3fada47de3a294210f997,2023-06-16_10h29.59.013,phx_ver10,2022.2.5,Win32,60.20832079,,,,,,,,,,,,88,testing_3,j2x,e,j2x_e,j2x_8_exe.wav,j2x_1_eje.wav,,FALSE,FALSE,,,,,,,,,,,,,,j,0.2665,space,0.584,,,,,,,,0,56,56,87,1,,
63d3fada47de3a294210f997,2023-06-16_10h29.59.013,phx_ver10,2022.2.5,Win32,60.20832079,,,,,,,,,,,,18,testing_2,zh2x,au,zh2x_au,zh2x_8_auxau.wav,zh2x_8_auxau.wav,,TRUE,FALSE,,,,,,,,,,,,,,f,2.0892,space,2.2991,,,,,,,,0,57,57,17,1,,
63d3fada47de3a294210f997,2023-06-16_10h29.59.013,phx_ver10,2022.2.5,Win32,60.20832079,,,,,,,,,,,,107,testing_3,sh2x,au,sh2x_au,sh2x_1_aushau.wav,sh2x_8_auxau.wav,,FALSE,FALSE,,,,,,,,,,,,,,f,0.1031,space,0.3874,,,,,,,,0,58,58,106,1,,
63d3fada47de3a294210f997,2023-06-16_10h29.59.013,phx_ver10,2022.2.5,Win32,60.20832079,,,,,,,,,,,,14,testing_2,zh2x,ai,zh2x_ai,zh2x_8_aixai.wav,zh2x_8_aixai.wav,,TRUE,FALSE,,,,,,,,,,,,,,f,0.168,space,0.4344,,,,,,,,0,59,59,13,1,,
63d3fada47de3a294210f997,2023-06-16_10h29.59.013,phx_ver10,2022.2.5,Win32,60.20832079,,,,,,,,,,,,21,testing_2,zh2x,ei,zh2x_ei,zh2x_1_eizhei.wav,zh2x_1_eizhei.wav,,TRUE,FALSE,,,,,,,,,,,,,,f,0.3487,space,0.5814,,,,,,,,0,60,60,20,1,,
63d3fada47de3a294210f997,2023-06-16_10h29.59.013,phx_ver10,2022.2.5,Win32,60.20832079,,,,,,,,,,,,100,testing_3,sh2x,a,sh2x_a,sh2x_8_axa.wav,sh2x_1_asha.wav,,FALSE,FALSE,,,,,,,,,,,,,,f,0.9327,space,1.1666,,,,,,,,0,61,61,99,1,,
63d3fada47de3a294210f997,2023-06-16_10h29.59.013,phx_ver10,2022.2.5,Win32,60.20832079,,,,,,,,,,,,29,testing_3,zh2sh,ai,zh2sh_ai,zh2sh_1_aizhai.wav,zh2sh_1_aizhai.wav,,TRUE,FALSE,,,,,,,,,,,,,,f,0.0008,space,0.3385,,,,,,,,0,62,62,28,1,,
63d3fada47de3a294210f997,2023-06-16_10h29.59.013,phx_ver10,2022.2.5,Win32,60.20832079,,,,,,,,,,,,102,testing_3,sh2x,ai,sh2x_ai,sh2x_8_aixai.wav,sh2x_8_aixai.wav,,TRUE,FALSE,,,,,,,,,,,,,,f,0.1396,space,0.4495,,,,,,,,0,63,63,101,1,,
63d3fada47de3a294210f997,2023-06-16_10h29.59.013,phx_ver10,2022.2.5,Win32,60.20832079,,,,,,,,,,,,70,testing_3,zh2j,i,zh2j_i,zh2j_8_iji.wav,zh2j_8_iji.wav,,TRUE,FALSE,,,,,,,,,,,,,,f,0.1038,space,0.4222,,,,,,,,0,64,64,69,1,,
63d3fada47de3a294210f997,2023-06-16_10h29.59.013,phx_ver10,2022.2.5,Win32,60.20832079,,,,,,,,,,,,117,testing_3,sh2x,i,sh2x_i,sh2x_1_ishi.wav,sh2x_1_ishi.wav,,TRUE,FALSE,,,,,,,,,,,,,,f,0.4833,space,0.7386,,,,,,,,0,65,65,116,1,,
63d3fada47de3a294210f997,2023-06-16_10h29.59.013,phx_ver10,2022.2.5,Win32,60.20832079,,,,,,,,,,,,25,testing_3,zh2sh,a,zh2sh_a,zh2sh_1_azha.wav,zh2sh_1_azha.wav,,TRUE,FALSE,,,,,,,,,,,,,,f,0.077,space,0.3264,,,,,,,,0,66,66,24,1,,
63d3fada47de3a294210f997,2023-06-16_10h29.59.013,phx_ver10,2022.2.5,Win32,60.20832079,,,,,,,,,,,,125,testing_3,sh2j,ai,sh2j_ai,sh2j_1_aishai.wav,sh2j_1_aishai.wav,,TRUE,FALSE,,,,,,,,,,,,,,f,0.0886,space,0.4168,,,,,,,,0,67,67,124,1,,
63d3fada47de3a294210f997,2023-06-16_10h29.59.013,phx_ver10,2022.2.5,Win32,60.20832079,,,,,,,,,,,,8,testing_1,zh2x,e,zh2x_e,zh2x_8_exe.wav,zh2x_1_ezhe.wav,,FALSE,TRUE,,,,,,,,,,,,,,j,0.203,space,0.4676,,,,,,,,0,68,68,7,1,,
63d3fada47de3a294210f997,2023-06-16_10h29.59.013,phx_ver10,2022.2.5,Win32,60.20832079,,,,,,,,,,,,11,testing_1,zh2x,i,zh2x_i,zh2x_1_izhi.wav,zh2x_8_ixi.wav,,FALSE,TRUE,,,,,,,,,,,,,,j,0.1645,space,0.4141,,,,,,,,0,69,69,10,1,,
63d3fada47de3a294210f997,2023-06-16_10h29.59.013,phx_ver10,2022.2.5,Win32,60.20832079,,,,,,,,,,,,1,testing_1,zh2x,a,zh2x_a,zh2x_1_azha.wav,zh2x_1_azha_copy.wav,,TRUE,TRUE,,,,,,,,,,,,,,f,0.0572,space,0.3194,,,,,,,,0,70,70,0,1,,
63d3fada47de3a294210f997,2023-06-16_10h29.59.013,phx_ver10,2022.2.5,Win32,60.20832079,,,,,,,,,,,,15,testing_2,zh2x,ai,zh2x_ai,zh2x_1_aizhai.wav,zh2x_8_aixai.wav,,FALSE,FALSE,,,,,,,,,,,,,,j,0.5256,space,0.7212,,,,,,,,0,71,71,14,1,,
63d3fada47de3a294210f997,2023-06-16_10h29.59.013,phx_ver10,2022.2.5,Win32,60.20832079,,,,,,,,,,,,23,testing_2,zh2x,ei,zh2x_ei,zh2x_1_eizhei.wav,zh2x_8_eixei.wav,,FALSE,FALSE,,,,,,,,,,,,,,j,0.8024,space,0.986,,,,,,,,0,72,72,22,1,,
63d3fada47de3a294210f997,2023-06-16_10h29.59.013,phx_ver10,2022.2.5,Win32,60.20832079,,,,,,,,,,,,13,testing_2,zh2x,ai,zh2x_ai,zh2x_1_aizhai.wav,zh2x_1_aizhai.wav,,TRUE,FALSE,,,,,,,,,,,,,,f,0.8002,space,1.0534,,,,,,,,0,73,73,12,1,,
63d3fada47de3a294210f997,2023-06-16_10h29.59.013,phx_ver10,2022.2.5,Win32,60.20832079,,,,,,,,,,,,52,testing_3,zh2j,a,zh2j_a,zh2j_8_aja.wav,zh2j_1_azha.wav,,FALSE,FALSE,,,,,,,,,,,,,,f,0.7168,space,1.1497,,,,,,,,0,74,74,51,1,,
63d3fada47de3a294210f997,2023-06-16_10h29.59.013,phx_ver10,2022.2.5,Win32,60.20832079,,,,,,,,,,,,53,testing_3,zh2j,ai,zh2j_ai,zh2j_1_aizhai.wav,zh2j_1_aizhai.wav,,TRUE,FALSE,,,,,,,,,,,,,,f,2.0155,space,2.3826,,,,,,,,0,75,75,52,1,,
63d3fada47de3a294210f997,2023-06-16_10h29.59.013,phx_ver10,2022.2.5,Win32,60.20832079,,,,,,,,,,,,72,testing_3,zh2j,i,zh2j_i,zh2j_8_iji.wav,zh2j_1_izhi.wav,,FALSE,FALSE,,,,,,,,,,,,,,f,0.2242,space,0.5928,,,,,,,,0,76,76,71,1,,
63d3fada47de3a294210f997,2023-06-16_10h29.59.013,phx_ver10,2022.2.5,Win32,60.20832079,,,,,,,,,,,,101,testing_3,sh2x,ai,sh2x_ai,sh2x_1_aishai.wav,sh2x_1_aishai.wav,,TRUE,FALSE,,,,,,,,,,,,,,f,0.7156,space,0.9911,,,,,,,,0,77,77,100,1,,
63d3fada47de3a294210f997,2023-06-16_10h29.59.013,phx_ver10,2022.2.5,Win32,60.20832079,,,,,,,,,,,,79,testing_3,j2x,ai,j2x_ai,j2x_1_aijai.wav,j2x_8_aixai.wav,,FALSE,FALSE,,,,,,,,,,,,,,j,0.485,space,0.6833,,,,,,,,0,78,78,78,1,,
63d3fada47de3a294210f997,2023-06-16_10h29.59.013,phx_ver10,2022.2.5,Win32,60.20832079,,,,,,,,,,,,40,testing_3,zh2sh,e,zh2sh_e,zh2sh_8_eshe.wav,zh2sh_1_ezhe.wav,,FALSE,FALSE,,,,,,,,,,,,,,j,0.2012,space,0.4842,,,,,,,,0,79,79,39,1,,
63d3fada47de3a294210f997,2023-06-16_10h29.59.013,phx_ver10,2022.2.5,Win32,60.20832079,,,,,,,,,,,,110,testing_3,sh2x,e,sh2x_e,sh2x_8_exe.wav,sh2x_8_exe.wav,,TRUE,FALSE,,,,,,,,,,,,,,f,0.2008,space,0.5368,,,,,,,,0,80,80,109,1,,
63d3fada47de3a294210f997,2023-06-16_10h29.59.013,phx_ver10,2022.2.5,Win32,60.20832079,,,,,,,,,,,,104,testing_3,sh2x,ai,sh2x_ai,sh2x_8_aixai.wav,sh2x_1_aishai.wav,,FALSE,FALSE,,,,,,,,,,,,,,f,0.418,space,0.6553,,,,,,,,0,81,81,103,1,,
63d3fada47de3a294210f997,2023-06-16_10h29.59.013,phx_ver10,2022.2.5,Win32,60.20832079,,,,,,,,,,,,78,testing_3,j2x,ai,j2x_ai,j2x_8_aixai.wav,j2x_8_aixai.wav,,TRUE,FALSE,,,,,,,,,,,,,,f,0.151,space,0.5003,,,,,,,,0,82,82,77,1,,
63d3fada47de3a294210f997,2023-06-16_10h29.59.013,phx_ver10,2022.2.5,Win32,60.20832079,,,,,,,,,,,,118,testing_3,sh2x,i,sh2x_i,sh2x_8_ixi.wav,sh2x_8_ixi.wav,,TRUE,FALSE,,,,,,,,,,,,,,f,0.6849,space,0.9557,,,,,,,,0,83,83,117,1,,
63d3fada47de3a294210f997,2023-06-16_10h29.59.013,phx_ver10,2022.2.5,Win32,60.20832079,,,,,,,,,,,,116,testing_3,sh2x,ei,sh2x_ei,sh2x_8_eixei.wav,sh2x_1_eishei.wav,,FALSE,FALSE,,,,,,,,,,,,,,f,0.2365,space,0.4871,,,,,,,,0,84,84,115,1,,
63d3fada47de3a294210f997,2023-06-16_10h29.59.013,phx_ver10,2022.2.5,Win32,60.20832079,,,,,,,,,,,,47,testing_3,zh2sh,i,zh2sh_i,zh2sh_1_izhi.wav,zh2sh_8_ishi.wav,,FALSE,FALSE,,,,,,,,,,,,,,f,2.5627,space,2.7691,,,,,,,,0,85,85,46,1,,
63d3fada47de3a294210f997,2023-06-16_10h29.59.013,phx_ver10,2022.2.5,Win32,60.20832079,,,,,,,,,,,,91,testing_3,j2x,ei,j2x_ei,j2x_1_eijei.wav,j2x_8_eixei.wav,,FALSE,FALSE,,,,,,,,,,,,,,j,1.1535,space,1.3189,,,,,,,,0,86,86,90,1,,
63d3fada47de3a294210f997,2023-06-16_10h29.59.013,phx_ver10,2022.2.5,Win32,60.20832079,,,,,,,,,,,,83,testing_3,j2x,au,j2x_au,j2x_1_aujau.wav,j2x_8_auxau.wav,,FALSE,FALSE,,,,,,,,,,,,,,j,0.8501,space,1.057,,,,,,,,0,87,87,82,1,,
63d3fada47de3a294210f997,2023-06-16_10h29.59.013,phx_ver10,2022.2.5,Win32,60.20832079,,,,,,,,,,,,9,testing_1,zh2x,i,zh2x_i,zh2x_1_izhi.wav,zh2x_1_izhi_copy.wav,,TRUE,TRUE,,,,,,,,,,,,,,f,1.4296,space,1.6985,,,,,,,,0,88,88,8,1,,
63d3fada47de3a294210f997,2023-06-16_10h29.59.013,phx_ver10,2022.2.5,Win32,60.20832079,,,,,,,,,,,,45,testing_3,zh2sh,i,zh2sh_i,zh2sh_1_izhi.wav,zh2sh_1_izhi.wav,,TRUE,FALSE,,,,,,,,,,,,,,f,0.2896,space,0.5375,,,,,,,,0,89,89,44,1,,
63d3fada47de3a294210f997,2023-06-16_10h29.59.013,phx_ver10,2022.2.5,Win32,60.20832079,,,,,,,,,,,,123,testing_3,sh2j,a,sh2j_a,sh2j_1_asha.wav,sh2j_8_aja.wav,,FALSE,FALSE,,,,,,,,,,,,,,j,5.2109,space,5.4197,,,,,,,,0,90,90,122,1,,
63d3fada47de3a294210f997,2023-06-16_10h29.59.013,phx_ver10,2022.2.5,Win32,60.20832079,,,,,,,,,,,,27,testing_3,zh2sh,a,zh2sh_a,zh2sh_1_azha.wav,zh2sh_8_asha.wav,,FALSE,FALSE,,,,,,,,,,,,,,j,0.164,space,0.4004,,,,,,,,0,91,91,26,1,,
63d3fada47de3a294210f997,2023-06-16_10h29.59.013,phx_ver10,2022.2.5,Win32,60.20832079,,,,,,,,,,,,60,testing_3,zh2j,au,zh2j_au,zh2j_8_aujau.wav,zh2j_1_auzhau.wav,,FALSE,FALSE,,,,,,,,,,,,,,f,0.3328,space,0.6135,,,,,,,,0,92,92,59,1,,
63d3fada47de3a294210f997,2023-06-16_10h29.59.013,phx_ver10,2022.2.5,Win32,60.20832079,,,,,,,,,,,,67,testing_3,zh2j,ei,zh2j_ei,zh2j_1_eizhei.wav,zh2j_8_eijei.wav,,FALSE,FALSE,,,,,,,,,,,,,,f,0.1575,space,0.3898,,,,,,,,0,93,93,66,1,,
63d3fada47de3a294210f997,2023-06-16_10h29.59.013,phx_ver10,2022.2.5,Win32,60.20832079,,,,,,,,,,,,89,testing_3,j2x,ei,j2x_ei,j2x_1_eijei.wav,j2x_1_eijei.wav,,TRUE,FALSE,,,,,,,,,,,,,,f,0.1367,space,0.3835,,,,,,,,0,94,94,88,1,,
63d3fada47de3a294210f997,2023-06-16_10h29.59.013,phx_ver10,2022.2.5,Win32,60.20832079,,,,,,,,,,,,59,testing_3,zh2j,au,zh2j_au,zh2j_1_auzhau.wav,zh2j_8_aujau.wav,,FALSE,FALSE,,,,,,,,,,,,,,f,0.1509,space,0.3846,,,,,,,,0,95,95,58,1,,
63d3fada47de3a294210f997,2023-06-16_10h29.59.013,phx_ver10,2022.2.5,Win32,60.20832079,,,,,,,,,,,,95,testing_3,j2x,i,j2x_i,j2x_1_iji.wav,j2x_8_ixi.wav,,FALSE,FALSE,,,,,,,,,,,,,,j,0.1036,space,0.3368,,,,,,,,0,96,96,94,1,,
63d3fada47de3a294210f997,2023-06-16_10h29.59.013,phx_ver10,2022.2.5,Win32,60.20832079,,,,,,,,,,,,77,testing_3,j2x,ai,j2x_ai,j2x_1_aijai.wav,j2x_1_aijai.wav,,TRUE,FALSE,,,,,,,,,,,,,,f,0.0931,space,0.2895,,,,,,,,0,97,97,76,1,,
63d3fada47de3a294210f997,2023-06-16_10h29.59.013,phx_ver10,2022.2.5,Win32,60.20832079,,,,,,,,,,,,81,testing_3,j2x,au,j2x_au,j2x_1_aujau.wav,j2x_1_aujau.wav,,TRUE,FALSE,,,,,,,,,,,,,,f,0.1164,space,0.3061,,,,,,,,0,98,98,80,1,,
63d3fada47de3a294210f997,2023-06-16_10h29.59.013,phx_ver10,2022.2.5,Win32,60.20832079,,,,,,,,,,,,114,testing_3,sh2x,ei,sh2x_ei,sh2x_8_eixei.wav,sh2x_8_eixei.wav,,TRUE,FALSE,,,,,,,,,,,,,,f,0.0697,space,0.2612,,,,,,,,0,99,99,113,1,,
63d3fada47de3a294210f997,2023-06-16_10h29.59.013,phx_ver10,2022.2.5,Win32,60.20832079,,,,,,,,,,,,35,testing_3,zh2sh,au,zh2sh_au,zh2sh_1_auzhau.wav,zh2sh_8_aushau.wav,,FALSE,FALSE,,,,,,,,,,,,,,j,0.047,space,0.2392,,,,,,,,0,100,100,34,1,,
63d3fada47de3a294210f997,2023-06-16_10h29.59.013,phx_ver10,2022.2.5,Win32,60.20832079,,,,,,,,,,,,75,testing_3,j2x,a,j2x_a,j2x_1_aja.wav,j2x_8_axa.wav,,FALSE,FALSE,,,,,,,,,,,,,,j,0.2511,space,0.4223,,,,,,,,0,101,101,74,1,,
63d3fada47de3a294210f997,2023-06-16_10h29.59.013,phx_ver10,2022.2.5,Win32,60.20832079,,,,,,,,,,,,92,testing_3,j2x,ei,j2x_ei,j2x_8_eixei.wav,j2x_1_eijei.wav,,FALSE,FALSE,,,,,,,,,,,,,,j,0.1444,space,0.3049,,,,,,,,0,102,102,91,1,,
63d3fada47de3a294210f997,2023-06-16_10h29.59.013,phx_ver10,2022.2.5,Win32,60.20832079,,,,,,,,,,,,12,testing_1,zh2x,i,zh2x_i,zh2x_8_ixi.wav,zh2x_1_izhi.wav,,FALSE,TRUE,,,,,,,,,,,,,,j,1.3582,space,1.5083,,,,,,,,0,103,103,11,1,,
63d3fada47de3a294210f997,2023-06-16_10h29.59.013,phx_ver10,2022.2.5,Win32,60.20832079,,,,,,,,,,,,138,testing_3,sh2j,ei,sh2j_ei,sh2j_8_eijei.wav,sh2j_8_eijei.wav,,TRUE,FALSE,,,,,,,,,,,,,,f,0.2222,space,0.4195,,,,,,,,0,104,104,137,1,,
63d3fada47de3a294210f997,2023-06-16_10h29.59.013,phx_ver10,2022.2.5,Win32,60.20832079,,,,,,,,,,,,94,testing_3,j2x,i,j2x_i,j2x_8_ixi.wav,j2x_8_ixi.wav,,TRUE,FALSE,,,,,,,,,,,,,,f,0.4915,space,0.6664,,,,,,,,0,105,105,93,1,,
63d3fada47de3a294210f997,2023-06-16_10h29.59.013,phx_ver10,2022.2.5,Win32,60.20832079,,,,,,,,,,,,132,testing_3,sh2j,au,sh2j_au,sh2j_8_aujau.wav,sh2j_1_aushau.wav,,FALSE,FALSE,,,,,,,,,,,,,,j,0.0678,space,0.2388,,,,,,,,0,106,106,131,1,,
63d3fada47de3a294210f997,2023-06-16_10h29.59.013,phx_ver10,2022.2.5,Win32,60.20832079,,,,,,,,,,,,39,testing_3,zh2sh,e,zh2sh_e,zh2sh_1_ezhe.wav,zh2sh_8_eshe.wav,,FALSE,FALSE,,,,,,,,,,,,,,f,4.0188,space,4.2482,,,,,,,,0,107,107,38,1,,
63d3fada47de3a294210f997,2023-06-16_10h29.59.013,phx_ver10,2022.2.5,Win32,60.20832079,,,,,,,,,,,,80,testing_3,j2x,ai,j2x_ai,j2x_8_aixai.wav,j2x_1_aijai.wav,,FALSE,FALSE,,,,,,,,,,,,,,j,0.4003,space,0.583,,,,,,,,0,108,108,79,1,,
63d3fada47de3a294210f997,2023-06-16_10h29.59.013,phx_ver10,2022.2.5,Win32,60.20832079,,,,,,,,,,,,130,testing_3,sh2j,au,sh2j_au,sh2j_8_aujau.wav,sh2j_8_aujau.wav,,TRUE,FALSE,,,,,,,,,,,,,,f,0.9415,space,1.1167,,,,,,,,0,109,109,129,1,,
63d3fada47de3a294210f997,2023-06-16_10h29.59.013,phx_ver10,2022.2.5,Win32,60.20832079,,,,,,,,,,,,120,testing_3,sh2x,i,sh2x_i,sh2x_8_ixi.wav,sh2x_1_ishi.wav,,FALSE,FALSE,,,,,,,,,,,,,,f,0.2756,space,0.4413,,,,,,,,0,110,110,119,1,,
63d3fada47de3a294210f997,2023-06-16_10h29.59.013,phx_ver10,2022.2.5,Win32,60.20832079,,,,,,,,,,,,93,testing_3,j2x,i,j2x_i,j2x_1_iji.wav,j2x_1_iji.wav,,TRUE,FALSE,,,,,,,,,,,,,,f,1.189,space,1.3842,,,,,,,,0,111,111,92,1,,
63d3fada47de3a294210f997,2023-06-16_10h29.59.013,phx_ver10,2022.2.5,Win32,60.20832079,,,,,,,,,,,,34,testing_3,zh2sh,au,zh2sh_au,zh2sh_8_aushau.wav,zh2sh_8_aushau.wav,,TRUE,FALSE,,,,,,,,,,,,,,f,0.3587,space,0.601,,,,,,,,0,112,112,33,1,,
63d3fada47de3a294210f997,2023-06-16_10h29.59.013,phx_ver10,2022.2.5,Win32,60.20832079,,,,,,,,,,,,99,testing_3,sh2x,a,sh2x_a,sh2x_1_asha.wav,sh2x_8_axa.wav,,FALSE,FALSE,,,,,,,,,,,,,,j,0.0835,space,0.3,,,,,,,,0,113,113,98,1,,
63d3fada47de3a294210f997,2023-06-16_10h29.59.013,phx_ver10,2022.2.5,Win32,60.20832079,,,,,,,,,,,,74,testing_3,j2x,a,j2x_a,j2x_8_axa.wav,j2x_8_axa.wav,,TRUE,FALSE,,,,,,,,,,,,,,f,0.7689,space,1.0002,,,,,,,,0,114,114,73,1,,
63d3fada47de3a294210f997,2023-06-16_10h29.59.013,phx_ver10,2022.2.5,Win32,60.20832079,,,,,,,,,,,,10,testing_1,zh2x,i,zh2x_i,zh2x_8_ixi.wav,zh2x_8_ixi_copy.wav,,TRUE,TRUE,,,,,,,,,,,,,,f,0.319,space,0.5834,,,,,,,,0,115,115,9,1,,
63d3fada47de3a294210f997,2023-06-16_10h29.59.013,phx_ver10,2022.2.5,Win32,60.20832079,,,,,,,,,,,,108,testing_3,sh2x,au,sh2x_au,sh2x_8_auxau.wav,sh2x_1_aushau.wav,,FALSE,FALSE,,,,,,,,,,,,,,f,0.3166,space,0.5261,,,,,,,,0,116,116,107,1,,
63d3fada47de3a294210f997,2023-06-16_10h29.59.013,phx_ver10,2022.2.5,Win32,60.20832079,,,,,,,,,,,,16,testing_2,zh2x,ai,zh2x_ai,zh2x_8_aixai.wav,zh2x_1_aizhai.wav,,FALSE,FALSE,,,,,,,,,,,,,,j,0.2386,space,0.5343,,,,,,,,0,117,117,15,1,,
63d3fada47de3a294210f997,2023-06-16_10h29.59.013,phx_ver10,2022.2.5,Win32,60.20832079,,,,,,,,,,,,126,testing_3,sh2j,ai,sh2j_ai,sh2j_8_aijai.wav,sh2j_8_aijai.wav,,TRUE,FALSE,,,,,,,,,,,,,,f,0.2537,space,0.5564,,,,,,,,0,118,118,125,1,,
63d3fada47de3a294210f997,2023-06-16_10h29.59.013,phx_ver10,2022.2.5,Win32,60.20832079,,,,,,,,,,,,56,testing_3,zh2j,ai,zh2j_ai,zh2j_8_aijai.wav,zh2j_1_aizhai.wav,,FALSE,FALSE,,,,,,,,,,,,,,f,0.1334,space,0.4057,,,,,,,,0,119,119,55,1,,
63d3fada47de3a294210f997,2023-06-16_10h29.59.013,phx_ver10,2022.2.5,Win32,60.20832079,,,,,,,,,,,,85,testing_3,j2x,e,j2x_e,j2x_1_eje.wav,j2x_1_eje.wav,,TRUE,FALSE,,,,,,,,,,,,,,f,0.234,space,0.5006,,,,,,,,0,120,120,84,1,,
63d3fada47de3a294210f997,2023-06-16_10h29.59.013,phx_ver10,2022.2.5,Win32,60.20832079,,,,,,,,,,,,140,testing_3,sh2j,ei,sh2j_ei,sh2j_8_eijei.wav,sh2j_1_eishei.wav,,FALSE,FALSE,,,,,,,,,,,,,,j,0.3219,space,0.5253,,,,,,,,0,121,121,139,1,,
63d3fada47de3a294210f997,2023-06-16_10h29.59.013,phx_ver10,2022.2.5,Win32,60.20832079,,,,,,,,,,,,66,testing_3,zh2j,ei,zh2j_ei,zh2j_8_eijei.wav,zh2j_8_eijei.wav,,TRUE,FALSE,,,,,,,,,,,,,,f,0.1877,space,0.4668,,,,,,,,0,122,122,65,1,,
63d3fada47de3a294210f997,2023-06-16_10h29.59.013,phx_ver10,2022.2.5,Win32,60.20832079,,,,,,,,,,,,73,testing_3,j2x,a,j2x_a,j2x_1_aja.wav,j2x_1_aja.wav,,TRUE,FALSE,,,,,,,,,,,,,,f,0.1484,space,0.3671,,,,,,,,0,123,123,72,1,,
63d3fada47de3a294210f997,2023-06-16_10h29.59.013,phx_ver10,2022.2.5,Win32,60.20832079,,,,,,,,,,,,6,testing_1,zh2x,e,zh2x_e,zh2x_8_exe.wav,zh2x_8_exe_copy.wav,,TRUE,TRUE,,,,,,,,,,,,,,f,0.285,space,0.5837,,,,,,,,0,124,124,5,1,,
63d3fada47de3a294210f997,2023-06-16_10h29.59.013,phx_ver10,2022.2.5,Win32,60.20832079,,,,,,,,,,,,32,testing_3,zh2sh,ai,zh2sh_ai,zh2sh_8_aishai.wav,zh2sh_1_aizhai.wav,,FALSE,FALSE,,,,,,,,,,,,,,j,1.6161,space,1.8049,,,,,,,,0,125,125,31,1,,
63d3fada47de3a294210f997,2023-06-16_10h29.59.013,phx_ver10,2022.2.5,Win32,60.20832079,,,,,,,,,,,,50,testing_3,zh2j,a,zh2j_a,zh2j_8_aja.wav,zh2j_8_aja.wav,,TRUE,FALSE,,,,,,,,,,,,,,f,0.0208,space,0.348,,,,,,,,0,126,126,49,1,,
63d3fada47de3a294210f997,2023-06-16_10h29.59.013,phx_ver10,2022.2.5,Win32,60.20832079,,,,,,,,,,,,48,testing_3,zh2sh,i,zh2sh_i,zh2sh_8_ishi.wav,zh2sh_1_izhi.wav,,FALSE,FALSE,,,,,,,,,,,,,,j,0.1167,space,0.3306,,,,,,,,0,127,127,47,1,,
63d3fada47de3a294210f997,2023-06-16_10h29.59.013,phx_ver10,2022.2.5,Win32,60.20832079,,,,,,,,,,,,19,testing_2,zh2x,au,zh2x_au,zh2x_1_auzhau.wav,zh2x_8_auxau.wav,,FALSE,FALSE,,,,,,,,,,,,,,j,1.373,space,1.567,,,,,,,,0,128,128,18,1,,
63d3fada47de3a294210f997,2023-06-16_10h29.59.013,phx_ver10,2022.2.5,Win32,60.20832079,,,,,,,,,,,,143,testing_3,sh2j,i,sh2j_i,sh2j_1_ishi.wav,sh2j_8_iji.wav,,FALSE,FALSE,,,,,,,,,,,,,,j,0.2542,space,0.4695,,,,,,,,0,129,129,142,1,,
63d3fada47de3a294210f997,2023-06-16_10h29.59.013,phx_ver10,2022.2.5,Win32,60.20832079,,,,,,,,,,,,76,testing_3,j2x,a,j2x_a,j2x_8_axa.wav,j2x_1_aja.wav,,FALSE,FALSE,,,,,,,,,,,,,,j,0.1083,space,0.3533,,,,,,,,0,130,130,75,1,,
63d3fada47de3a294210f997,2023-06-16_10h29.59.013,phx_ver10,2022.2.5,Win32,60.20832079,,,,,,,,,,,,65,testing_3,zh2j,ei,zh2j_ei,zh2j_1_eizhei.wav,zh2j_1_eizhei.wav,,TRUE,FALSE,,,,,,,,,,,,,,f,0.187,space,0.3955,,,,,,,,0,131,131,64,1,,
63d3fada47de3a294210f997,2023-06-16_10h29.59.013,phx_ver10,2022.2.5,Win32,60.20832079,,,,,,,,,,,,51,testing_3,zh2j,a,zh2j_a,zh2j_1_azha.wav,zh2j_8_aja.wav,,FALSE,FALSE,,,,,,,,,,,,,,f,0.2583,space,0.4553,,,,,,,,0,132,132,50,1,,
63d3fada47de3a294210f997,2023-06-16_10h29.59.013,phx_ver10,2022.2.5,Win32,60.20832079,,,,,,,,,,,,61,testing_3,zh2j,e,zh2j_e,zh2j_1_ezhe.wav,zh2j_1_ezhe.wav,,TRUE,FALSE,,,,,,,,,,,,,,f,0.2122,space,0.4277,,,,,,,,0,133,133,60,1,,
63d3fada47de3a294210f997,2023-06-16_10h29.59.013,phx_ver10,2022.2.5,Win32,60.20832079,,,,,,,,,,,,97,testing_3,sh2x,a,sh2x_a,sh2x_1_asha.wav,sh2x_1_asha.wav,,TRUE,FALSE,,,,,,,,,,,,,,f,0.2172,space,0.4644,,,,,,,,0,134,134,96,1,,
63d3fada47de3a294210f997,2023-06-16_10h29.59.013,phx_ver10,2022.2.5,Win32,60.20832079,,,,,,,,,,,,28,testing_3,zh2sh,a,zh2sh_a,zh2sh_8_asha.wav,zh2sh_1_azha.wav,,FALSE,FALSE,,,,,,,,,,,,,,j,2.9972,space,3.1978,,,,,,,,0,135,135,27,1,,
63d3fada47de3a294210f997,2023-06-16_10h29.59.013,phx_ver10,2022.2.5,Win32,60.20832079,,,,,,,,,,,,38,testing_3,zh2sh,e,zh2sh_e,zh2sh_8_eshe.wav,zh2sh_8_eshe.wav,,TRUE,FALSE,,,,,,,,,,,,,,f,0.1669,space,0.3881,,,,,,,,0,136,136,37,1,,
63d3fada47de3a294210f997,2023-06-16_10h29.59.013,phx_ver10,2022.2.5,Win32,60.20832079,,,,,,,,,,,,54,testing_3,zh2j,ai,zh2j_ai,zh2j_8_aijai.wav,zh2j_8_aijai.wav,,TRUE,FALSE,,,,,,,,,,,,,,f,0.1821,space,0.3669,,,,,,,,0,137,137,53,1,,
63d3fada47de3a294210f997,2023-06-16_10h29.59.013,phx_ver10,2022.2.5,Win32,60.20832079,,,,,,,,,,,,68,testing_3,zh2j,ei,zh2j_ei,zh2j_8_eijei.wav,zh2j_1_eizhei.wav,,FALSE,FALSE,,,,,,,,,,,,,,f,0.1218,space,0.5447,,,,,,,,0,138,138,67,1,,
63d3fada47de3a294210f997,2023-06-16_10h29.59.013,phx_ver10,2022.2.5,Win32,60.20832079,,,,,,,,,,,,4,testing_1,zh2x,a,zh2x_a,zh2x_8_axa.wav,zh2x_1_azha.wav,,FALSE,TRUE,,,,,,,,,,,,,,j,0.4712,space,0.648,,,,,,,,0,139,139,3,1,,
63d3fada47de3a294210f997,2023-06-16_10h29.59.013,phx_ver10,2022.2.5,Win32,60.20832079,,,,,,,,,,,,129,testing_3,sh2j,au,sh2j_au,sh2j_1_aushau.wav,sh2j_1_aushau.wav,,TRUE,FALSE,,,,,,,,,,,,,,f,0.1836,space,0.3476,,,,,,,,0,140,140,128,1,,
63d3fada47de3a294210f997,2023-06-16_10h29.59.013,phx_ver10,2022.2.5,Win32,60.20832079,,,,,,,,,,,,115,testing_3,sh2x,ei,sh2x_ei,sh2x_1_eishei.wav,sh2x_8_eixei.wav,,FALSE,FALSE,,,,,,,,,,,,,,f,1.3719,space,1.55,,,,,,,,0,141,141,114,1,,
63d3fada47de3a294210f997,2023-06-16_10h29.59.013,phx_ver10,2022.2.5,Win32,60.20832079,,,,,,,,,,,,44,testing_3,zh2sh,ei,zh2sh_ei,zh2sh_8_eishei.wav,zh2sh_1_eizhei.wav,,FALSE,FALSE,,,,,,,,,,,,,,j,0.5077,space,0.658,,,,,,,,0,142,142,43,1,,
63d3fada47de3a294210f997,2023-06-16_10h29.59.013,phx_ver10,2022.2.5,Win32,60.20832079,,,,,,,,,,,,128,testing_3,sh2j,ai,sh2j_ai,sh2j_8_aijai.wav,sh2j_1_aishai.wav,,FALSE,FALSE,,,,,,,,,,,,,,j,0.3009,space,0.4655,,,,,,,,0,143,143,127,1,,
63d3fada47de3a294210f997,2023-06-16_10h29.59.013,phx_ver10,2022.2.5,Win32,60.20832079,,,,,,,,,,,,,,,,,,,,,,,,,,,,,,,,,,,,,,,,,,,,,,,,,,,space,3.1317
