participant,date,expName,psychopyVersion,OS,frameRate,space_1.keys,space_1.rt,space_2.keys,space_2.rt,space_train.keys,space_train.rt,training.thisRepN,training.thisTrialN,training.thisN,training.thisIndex,training.ran,token_id,task,continuum,vowel,series,sound_1,sound_2,img,same,trained,FJ_attn.keys,FJ_attn.rt,space_attn.keys,space_attn.rt,if_attn_test.thisRepN,if_attn_test.thisTrialN,if_attn_test.thisN,if_attn_test.thisIndex,if_attn_test.ran,space_trans_1.keys,space_trans_1.rt,space_trans_11.keys,space_trans_11.rt,FJ_test.keys,FJ_test.rt,space_test.keys,space_test.rt,testing_pre.thisRepN,testing_pre.thisTrialN,testing_pre.thisN,testing_pre.thisIndex,testing_pre.ran,space_trans_2.keys,space_trans_2.rt,testing_all.thisRepN,testing_all.thisTrialN,testing_all.thisN,testing_all.thisIndex,testing_all.ran,space_ending.keys,space_ending.rt
63dcf52406a122c6bdcd054c,2023-06-16_13h58.04.507,phx_ver10,2022.2.5,Win32,4.999075171,,,,,,,,,,,,,,,,,,,,,,,,,,,,,,,,,,,,,,,,,,,,,,,,,,,,
63dcf52406a122c6bdcd054c,2023-06-16_13h58.04.507,phx_ver10,2022.2.5,Win32,4.999075171,space,4.3213,,,,,,,,,,,,,,,,,,,,,,,,,,,,,,,,,,,,,,,,,,,,,,,,,,
63dcf52406a122c6bdcd054c,2023-06-16_13h58.04.507,phx_ver10,2022.2.5,Win32,4.999075171,,,space,2.583,,,,,,,,,,,,,,,,,,,,,,,,,,,,,,,,,,,,,,,,,,,,,,,,
63dcf52406a122c6bdcd054c,2023-06-16_13h58.04.507,phx_ver10,2022.2.5,Win32,4.999075171,,,,,space,1.5575,0,0,0,24,1,25,training,zh2x,e,zh2x_e,zh2x_5_exe.wav,,exe.jpg,,,,,,,,,,,,,,,,,,,,,,,,,,,,,,,,,
63dcf52406a122c6bdcd054c,2023-06-16_13h58.04.507,phx_ver10,2022.2.5,Win32,4.999075171,,,,,space,1.4278,0,1,1,36,1,37,training,zh2x,i,zh2x_i,zh2x_2_izhi.wav,,izhi.jpg,,,,,,,,,,,,,,,,,,,,,,,,,,,,,,,,,
63dcf52406a122c6bdcd054c,2023-06-16_13h58.04.507,phx_ver10,2022.2.5,Win32,4.999075171,,,,,space,1.9208,0,2,2,20,1,21,training,zh2x,e,zh2x_e,zh2x_2_ezhe.wav,,ezhe.jpg,,,,,,,,,,,,,,,,,,,,,,,,,,,,,,,,,
63dcf52406a122c6bdcd054c,2023-06-16_13h58.04.507,phx_ver10,2022.2.5,Win32,4.999075171,,,,,space,1.6602,0,3,3,26,1,27,training,zh2x,e,zh2x_e,zh2x_6_exe.wav,,exe.jpg,,,,,,,,,,,,,,,,,,,,,,,,,,,,,,,,,
63dcf52406a122c6bdcd054c,2023-06-16_13h58.04.507,phx_ver10,2022.2.5,Win32,4.999075171,,,,,space,0.9825,0,4,4,9,1,10,training,zh2x,a,zh2x_a,zh2x_6_axa.wav,,axa.jpg,,,,,,,,,,,,,,,,,,,,,,,,,,,,,,,,,
63dcf52406a122c6bdcd054c,2023-06-16_13h58.04.507,phx_ver10,2022.2.5,Win32,4.999075171,,,,,space,1.6853,0,5,5,6,1,7,training,zh2x,a,zh2x_a,zh2x_3_azha.wav,,azha.jpg,,,,,,,,,,,,,,,,,,,,,,,,,,,,,,,,,
63dcf52406a122c6bdcd054c,2023-06-16_13h58.04.507,phx_ver10,2022.2.5,Win32,4.999075171,,,,,,,,,,,,,attn_test,,,,zh2x_8_exe.wav,zh2x_1_izhi.wav,exe.jpg,LEFT,,f,9.9662,space,11.3784,0,0,0,0,1,,,,,,,,,,,,,,,,,,,,,,
63dcf52406a122c6bdcd054c,2023-06-16_13h58.04.507,phx_ver10,2022.2.5,Win32,4.999075171,,,,,space,1.3004,0,6,6,39,1,40,training,zh2x,i,zh2x_i,zh2x_4_izhi.wav,,izhi.jpg,,,,,,,,,,,,,,,,,,,,,,,,,,,,,,,,,
63dcf52406a122c6bdcd054c,2023-06-16_13h58.04.507,phx_ver10,2022.2.5,Win32,4.999075171,,,,,space,2.285,0,7,7,38,1,39,training,zh2x,i,zh2x_i,zh2x_3_izhi.wav,,izhi.jpg,,,,,,,,,,,,,,,,,,,,,,,,,,,,,,,,,
63dcf52406a122c6bdcd054c,2023-06-16_13h58.04.507,phx_ver10,2022.2.5,Win32,4.999075171,,,,,space,1.4144,0,8,8,8,1,9,training,zh2x,a,zh2x_a,zh2x_5_axa.wav,,axa.jpg,,,,,,,,,,,,,,,,,,,,,,,,,,,,,,,,,
63dcf52406a122c6bdcd054c,2023-06-16_13h58.04.507,phx_ver10,2022.2.5,Win32,4.999075171,,,,,space,0.2753,0,9,9,11,1,12,training,zh2x,a,zh2x_a,zh2x_7_axa.wav,,axa.jpg,,,,,,,,,,,,,,,,,,,,,,,,,,,,,,,,,
63dcf52406a122c6bdcd054c,2023-06-16_13h58.04.507,phx_ver10,2022.2.5,Win32,4.999075171,,,,,space,0.9993,0,10,10,0,1,1,training,zh2x,a,zh2x_a,zh2x_1_azha.wav,,azha.jpg,,,,,,,,,,,,,,,,,,,,,,,,,,,,,,,,,
63dcf52406a122c6bdcd054c,2023-06-16_13h58.04.507,phx_ver10,2022.2.5,Win32,4.999075171,,,,,space,1.0065,0,11,11,44,1,45,training,zh2x,i,zh2x_i,zh2x_7_ixi.wav,,ixi.jpg,,,,,,,,,,,,,,,,,,,,,,,,,,,,,,,,,
63dcf52406a122c6bdcd054c,2023-06-16_13h58.04.507,phx_ver10,2022.2.5,Win32,4.999075171,,,,,,,,,,,,,attn_test,,,,zh2x_8_ixi.wav,zh2x_8_axa.wav,axa.jpg,RIGHT,,j,4.7814,space,6.0855,0,0,0,0,1,,,,,,,,,,,,,,,,,,,,,,
63dcf52406a122c6bdcd054c,2023-06-16_13h58.04.507,phx_ver10,2022.2.5,Win32,4.999075171,,,,,space,1.0144,0,12,12,31,1,32,training,zh2x,e,zh2x_e,zh2x_8_exe.wav,,exe.jpg,,,,,,,,,,,,,,,,,,,,,,,,,,,,,,,,,
63dcf52406a122c6bdcd054c,2023-06-16_13h58.04.507,phx_ver10,2022.2.5,Win32,4.999075171,,,,,space,1.0124,0,13,13,22,1,23,training,zh2x,e,zh2x_e,zh2x_3_ezhe.wav,,ezhe.jpg,,,,,,,,,,,,,,,,,,,,,,,,,,,,,,,,,
63dcf52406a122c6bdcd054c,2023-06-16_13h58.04.507,phx_ver10,2022.2.5,Win32,4.999075171,,,,,space,0.7655,0,14,14,2,1,3,training,zh2x,a,zh2x_a,zh2x_2_azha.wav,,azha.jpg,,,,,,,,,,,,,,,,,,,,,,,,,,,,,,,,,
63dcf52406a122c6bdcd054c,2023-06-16_13h58.04.507,phx_ver10,2022.2.5,Win32,4.999075171,,,,,space,0.7435,0,15,15,46,1,47,training,zh2x,i,zh2x_i,zh2x_7_ixi.wav,,ixi.jpg,,,,,,,,,,,,,,,,,,,,,,,,,,,,,,,,,
63dcf52406a122c6bdcd054c,2023-06-16_13h58.04.507,phx_ver10,2022.2.5,Win32,4.999075171,,,,,space,0.7382,0,16,16,29,1,30,training,zh2x,e,zh2x_e,zh2x_7_exe.wav,,exe.jpg,,,,,,,,,,,,,,,,,,,,,,,,,,,,,,,,,
63dcf52406a122c6bdcd054c,2023-06-16_13h58.04.507,phx_ver10,2022.2.5,Win32,4.999075171,,,,,space,0.7472,0,17,17,34,1,35,training,zh2x,i,zh2x_i,zh2x_2_izhi.wav,,izhi.jpg,,,,,,,,,,,,,,,,,,,,,,,,,,,,,,,,,
63dcf52406a122c6bdcd054c,2023-06-16_13h58.04.507,phx_ver10,2022.2.5,Win32,4.999075171,,,,,,,,,,,,,attn_test,,,,zh2x_8_ixi.wav,zh2x_1_izhi.wav,izhi.jpg,RIGHT,,f,2.3456,space,3.4118,0,0,0,0,1,,,,,,,,,,,,,,,,,,,,,,
63dcf52406a122c6bdcd054c,2023-06-16_13h58.04.507,phx_ver10,2022.2.5,Win32,4.999075171,,,,,space,1.2497,0,18,18,7,1,8,training,zh2x,a,zh2x_a,zh2x_4_azha.wav,,azha.jpg,,,,,,,,,,,,,,,,,,,,,,,,,,,,,,,,,
63dcf52406a122c6bdcd054c,2023-06-16_13h58.04.507,phx_ver10,2022.2.5,Win32,4.999075171,,,,,space,1.2587,0,19,19,47,1,48,training,zh2x,i,zh2x_i,zh2x_8_ixi.wav,,ixi.jpg,,,,,,,,,,,,,,,,,,,,,,,,,,,,,,,,,
63dcf52406a122c6bdcd054c,2023-06-16_13h58.04.507,phx_ver10,2022.2.5,Win32,4.999075171,,,,,space,1.528,0,20,20,33,1,34,training,zh2x,i,zh2x_i,zh2x_2_izhi.wav,,izhi.jpg,,,,,,,,,,,,,,,,,,,,,,,,,,,,,,,,,
63dcf52406a122c6bdcd054c,2023-06-16_13h58.04.507,phx_ver10,2022.2.5,Win32,4.999075171,,,,,space,1.2893,0,21,21,27,1,28,training,zh2x,e,zh2x_e,zh2x_7_exe.wav,,exe.jpg,,,,,,,,,,,,,,,,,,,,,,,,,,,,,,,,,
63dcf52406a122c6bdcd054c,2023-06-16_13h58.04.507,phx_ver10,2022.2.5,Win32,4.999075171,,,,,space,1.7473,0,22,22,42,1,43,training,zh2x,i,zh2x_i,zh2x_6_ixi.wav,,ixi.jpg,,,,,,,,,,,,,,,,,,,,,,,,,,,,,,,,,
63dcf52406a122c6bdcd054c,2023-06-16_13h58.04.507,phx_ver10,2022.2.5,Win32,4.999075171,,,,,space,1.0342,0,23,23,45,1,46,training,zh2x,i,zh2x_i,zh2x_7_ixi.wav,,ixi.jpg,,,,,,,,,,,,,,,,,,,,,,,,,,,,,,,,,
63dcf52406a122c6bdcd054c,2023-06-16_13h58.04.507,phx_ver10,2022.2.5,Win32,4.999075171,,,,,,,,,,,,,attn_test,,,,zh2x_8_ixi.wav,zh2x_8_exe.wav,exe.jpg,RIGHT,,j,2.3389,space,3.6513,0,0,0,0,1,,,,,,,,,,,,,,,,,,,,,,
63dcf52406a122c6bdcd054c,2023-06-16_13h58.04.507,phx_ver10,2022.2.5,Win32,4.999075171,,,,,space,1.0081,0,24,24,16,1,17,training,zh2x,e,zh2x_e,zh2x_1_ezhe.wav,,ezhe.jpg,,,,,,,,,,,,,,,,,,,,,,,,,,,,,,,,,
63dcf52406a122c6bdcd054c,2023-06-16_13h58.04.507,phx_ver10,2022.2.5,Win32,4.999075171,,,,,space,1.2339,0,25,25,5,1,6,training,zh2x,a,zh2x_a,zh2x_3_azha.wav,,azha.jpg,,,,,,,,,,,,,,,,,,,,,,,,,,,,,,,,,
63dcf52406a122c6bdcd054c,2023-06-16_13h58.04.507,phx_ver10,2022.2.5,Win32,4.999075171,,,,,space,1.2454,0,26,26,41,1,42,training,zh2x,i,zh2x_i,zh2x_6_ixi.wav,,ixi.jpg,,,,,,,,,,,,,,,,,,,,,,,,,,,,,,,,,
63dcf52406a122c6bdcd054c,2023-06-16_13h58.04.507,phx_ver10,2022.2.5,Win32,4.999075171,,,,,space,0.5186,0,27,27,21,1,22,training,zh2x,e,zh2x_e,zh2x_3_ezhe.wav,,ezhe.jpg,,,,,,,,,,,,,,,,,,,,,,,,,,,,,,,,,
63dcf52406a122c6bdcd054c,2023-06-16_13h58.04.507,phx_ver10,2022.2.5,Win32,4.999075171,,,,,space,0.7273,0,28,28,40,1,41,training,zh2x,i,zh2x_i,zh2x_5_ixi.wav,,ixi.jpg,,,,,,,,,,,,,,,,,,,,,,,,,,,,,,,,,
63dcf52406a122c6bdcd054c,2023-06-16_13h58.04.507,phx_ver10,2022.2.5,Win32,4.999075171,,,,,space,0.2875,0,29,29,18,1,19,training,zh2x,e,zh2x_e,zh2x_2_ezhe.wav,,ezhe.jpg,,,,,,,,,,,,,,,,,,,,,,,,,,,,,,,,,
63dcf52406a122c6bdcd054c,2023-06-16_13h58.04.507,phx_ver10,2022.2.5,Win32,4.999075171,,,,,,,,,,,,,attn_test,,,,zh2x_8_axa.wav,zh2x_8_ixi.wav,ixi.jpg,RIGHT,,j,1.0641,space,2.3439,0,0,0,0,1,,,,,,,,,,,,,,,,,,,,,,
63dcf52406a122c6bdcd054c,2023-06-16_13h58.04.507,phx_ver10,2022.2.5,Win32,4.999075171,,,,,space,3.2634,0,30,30,1,1,2,training,zh2x,a,zh2x_a,zh2x_2_azha.wav,,azha.jpg,,,,,,,,,,,,,,,,,,,,,,,,,,,,,,,,,
63dcf52406a122c6bdcd054c,2023-06-16_13h58.04.507,phx_ver10,2022.2.5,Win32,4.999075171,,,,,space,1.2425,0,31,31,10,1,11,training,zh2x,a,zh2x_a,zh2x_6_axa.wav,,axa.jpg,,,,,,,,,,,,,,,,,,,,,,,,,,,,,,,,,
63dcf52406a122c6bdcd054c,2023-06-16_13h58.04.507,phx_ver10,2022.2.5,Win32,4.999075171,,,,,space,0.4893,0,32,32,37,1,38,training,zh2x,i,zh2x_i,zh2x_3_izhi.wav,,izhi.jpg,,,,,,,,,,,,,,,,,,,,,,,,,,,,,,,,,
63dcf52406a122c6bdcd054c,2023-06-16_13h58.04.507,phx_ver10,2022.2.5,Win32,4.999075171,,,,,space,0.5176,0,33,33,19,1,20,training,zh2x,e,zh2x_e,zh2x_2_ezhe.wav,,ezhe.jpg,,,,,,,,,,,,,,,,,,,,,,,,,,,,,,,,,
63dcf52406a122c6bdcd054c,2023-06-16_13h58.04.507,phx_ver10,2022.2.5,Win32,4.999075171,,,,,space,0.7511,0,34,34,32,1,33,training,zh2x,i,zh2x_i,zh2x_1_izhi.wav,,izhi.jpg,,,,,,,,,,,,,,,,,,,,,,,,,,,,,,,,,
63dcf52406a122c6bdcd054c,2023-06-16_13h58.04.507,phx_ver10,2022.2.5,Win32,4.999075171,,,,,space,0.9899,0,35,35,30,1,31,training,zh2x,e,zh2x_e,zh2x_7_exe.wav,,exe.jpg,,,,,,,,,,,,,,,,,,,,,,,,,,,,,,,,,
63dcf52406a122c6bdcd054c,2023-06-16_13h58.04.507,phx_ver10,2022.2.5,Win32,4.999075171,,,,,,,,,,,,,attn_test,,,,zh2x_1_azha.wav,zh2x_8_exe.wav,azha.jpg,LEFT,,f,0.9746,space,2.3976,0,0,0,0,1,,,,,,,,,,,,,,,,,,,,,,
63dcf52406a122c6bdcd054c,2023-06-16_13h58.04.507,phx_ver10,2022.2.5,Win32,4.999075171,,,,,space,0.996,0,36,36,17,1,18,training,zh2x,e,zh2x_e,zh2x_2_ezhe.wav,,ezhe.jpg,,,,,,,,,,,,,,,,,,,,,,,,,,,,,,,,,
63dcf52406a122c6bdcd054c,2023-06-16_13h58.04.507,phx_ver10,2022.2.5,Win32,4.999075171,,,,,space,1.0133,0,37,37,14,1,15,training,zh2x,a,zh2x_a,zh2x_7_axa.wav,,axa.jpg,,,,,,,,,,,,,,,,,,,,,,,,,,,,,,,,,
63dcf52406a122c6bdcd054c,2023-06-16_13h58.04.507,phx_ver10,2022.2.5,Win32,4.999075171,,,,,space,1.2328,0,38,38,43,1,44,training,zh2x,i,zh2x_i,zh2x_7_ixi.wav,,ixi.jpg,,,,,,,,,,,,,,,,,,,,,,,,,,,,,,,,,
63dcf52406a122c6bdcd054c,2023-06-16_13h58.04.507,phx_ver10,2022.2.5,Win32,4.999075171,,,,,space,0.7589,0,39,39,3,1,4,training,zh2x,a,zh2x_a,zh2x_2_azha.wav,,azha.jpg,,,,,,,,,,,,,,,,,,,,,,,,,,,,,,,,,
63dcf52406a122c6bdcd054c,2023-06-16_13h58.04.507,phx_ver10,2022.2.5,Win32,4.999075171,,,,,space,0.5219,0,40,40,23,1,24,training,zh2x,e,zh2x_e,zh2x_4_ezhe.wav,,ezhe.jpg,,,,,,,,,,,,,,,,,,,,,,,,,,,,,,,,,
63dcf52406a122c6bdcd054c,2023-06-16_13h58.04.507,phx_ver10,2022.2.5,Win32,4.999075171,,,,,space,1.7453,0,41,41,15,1,16,training,zh2x,a,zh2x_a,zh2x_8_axa.wav,,axa.jpg,,,,,,,,,,,,,,,,,,,,,,,,,,,,,,,,,
63dcf52406a122c6bdcd054c,2023-06-16_13h58.04.507,phx_ver10,2022.2.5,Win32,4.999075171,,,,,,,,,,,,,attn_test,,,,zh2x_8_ixi.wav,zh2x_8_axa.wav,ixi.jpg,LEFT,,f,0.7626,space,2.1833,0,0,0,0,1,,,,,,,,,,,,,,,,,,,,,,
63dcf52406a122c6bdcd054c,2023-06-16_13h58.04.507,phx_ver10,2022.2.5,Win32,4.999075171,,,,,space,1.0882,0,42,42,13,1,14,training,zh2x,a,zh2x_a,zh2x_7_axa.wav,,axa.jpg,,,,,,,,,,,,,,,,,,,,,,,,,,,,,,,,,
63dcf52406a122c6bdcd054c,2023-06-16_13h58.04.507,phx_ver10,2022.2.5,Win32,4.999075171,,,,,space,1.2558,0,43,43,4,1,5,training,zh2x,a,zh2x_a,zh2x_2_azha.wav,,azha.jpg,,,,,,,,,,,,,,,,,,,,,,,,,,,,,,,,,
63dcf52406a122c6bdcd054c,2023-06-16_13h58.04.507,phx_ver10,2022.2.5,Win32,4.999075171,,,,,space,1.0249,0,44,44,35,1,36,training,zh2x,i,zh2x_i,zh2x_2_izhi.wav,,izhi.jpg,,,,,,,,,,,,,,,,,,,,,,,,,,,,,,,,,
63dcf52406a122c6bdcd054c,2023-06-16_13h58.04.507,phx_ver10,2022.2.5,Win32,4.999075171,,,,,space,1.9677,0,45,45,28,1,29,training,zh2x,e,zh2x_e,zh2x_7_exe.wav,,exe.jpg,,,,,,,,,,,,,,,,,,,,,,,,,,,,,,,,,
63dcf52406a122c6bdcd054c,2023-06-16_13h58.04.507,phx_ver10,2022.2.5,Win32,4.999075171,,,,,space,0.9613,0,46,46,25,1,26,training,zh2x,e,zh2x_e,zh2x_6_exe.wav,,exe.jpg,,,,,,,,,,,,,,,,,,,,,,,,,,,,,,,,,
63dcf52406a122c6bdcd054c,2023-06-16_13h58.04.507,phx_ver10,2022.2.5,Win32,4.999075171,,,,,space,1.7299,0,47,47,12,1,13,training,zh2x,a,zh2x_a,zh2x_7_axa.wav,,axa.jpg,,,,,,,,,,,,,,,,,,,,,,,,,,,,,,,,,
63dcf52406a122c6bdcd054c,2023-06-16_13h58.04.507,phx_ver10,2022.2.5,Win32,4.999075171,,,,,,,,,,,,,attn_test,,,,zh2x_8_ixi.wav,zh2x_1_izhi.wav,izhi.jpg,RIGHT,,f,3.8464,space,4.9165,,,,,,,,,,,,,,,,,,,,,,,,,,,
63dcf52406a122c6bdcd054c,2023-06-16_13h58.04.507,phx_ver10,2022.2.5,Win32,4.999075171,,,,,,,,,,,,,,,,,,,,,,,,,,,,,,,space,1.458,,,,,,,,,,,,,,,,,,,,
63dcf52406a122c6bdcd054c,2023-06-16_13h58.04.507,phx_ver10,2022.2.5,Win32,4.999075171,,,,,,,,,,,,,,,,,,,,,,,,,,,,,,,,,space,11.0967,,,,,,,,,,,,,,,,,,
63dcf52406a122c6bdcd054c,2023-06-16_13h58.04.507,phx_ver10,2022.2.5,Win32,4.999075171,,,,,,,,,,,,1,testing_pre,,,,ifi.wav,ifi.wav,,TRUE,,,,,,,,,,,,,,,f,5.2684,space,6.5021,0,0,0,0,1,,,,,,,,,
63dcf52406a122c6bdcd054c,2023-06-16_13h58.04.507,phx_ver10,2022.2.5,Win32,4.999075171,,,,,,,,,,,,5,testing_pre,,,,ihi.wav,ifi.wav,,FALSE,,,,,,,,,,,,,,,f,0.7083,space,1.8808,0,1,1,4,1,,,,,,,,,
63dcf52406a122c6bdcd054c,2023-06-16_13h58.04.507,phx_ver10,2022.2.5,Win32,4.999075171,,,,,,,,,,,,3,testing_pre,,,,afa.wav,aha.wav,,FALSE,,,,,,,,,,,,,,,j,0.6982,space,1.8917,0,2,2,2,1,,,,,,,,,
63dcf52406a122c6bdcd054c,2023-06-16_13h58.04.507,phx_ver10,2022.2.5,Win32,4.999075171,,,,,,,,,,,,2,testing_pre,,,,auhau.wav,aufau.wav,,FALSE,,,,,,,,,,,,,,,j,0.4943,space,1.4395,0,3,3,1,1,,,,,,,,,
63dcf52406a122c6bdcd054c,2023-06-16_13h58.04.507,phx_ver10,2022.2.5,Win32,4.999075171,,,,,,,,,,,,4,testing_pre,,,,eihei.wav,eihei.wav,,TRUE,,,,,,,,,,,,,,,f,0.2675,space,1.252,0,4,4,3,1,,,,,,,,,
63dcf52406a122c6bdcd054c,2023-06-16_13h58.04.507,phx_ver10,2022.2.5,Win32,4.999075171,,,,,,,,,,,,,,,,,,,,,,,,,,,,,,,,,,,,,,,,,,,,space,0.9328,,,,,,,
63dcf52406a122c6bdcd054c,2023-06-16_13h58.04.507,phx_ver10,2022.2.5,Win32,4.999075171,,,,,,,,,,,,135,testing_3,sh2j,e,sh2j_e,sh2j_1_eshe.wav,sh2j_8_eje.wav,,FALSE,FALSE,,,,,,,,,,,,,,f,1.8832,space,3.5509,,,,,,,,0,0,0,134,1,,
63dcf52406a122c6bdcd054c,2023-06-16_13h58.04.507,phx_ver10,2022.2.5,Win32,4.999075171,,,,,,,,,,,,77,testing_3,j2x,ai,j2x_ai,j2x_1_aijai.wav,j2x_1_aijai.wav,,TRUE,FALSE,,,,,,,,,,,,,,f,0.719,space,1.6758,,,,,,,,0,1,1,76,1,,
63dcf52406a122c6bdcd054c,2023-06-16_13h58.04.507,phx_ver10,2022.2.5,Win32,4.999075171,,,,,,,,,,,,101,testing_3,sh2x,ai,sh2x_ai,sh2x_1_aishai.wav,sh2x_1_aishai.wav,,TRUE,FALSE,,,,,,,,,,,,,,f,0.7193,space,1.7134,,,,,,,,0,2,2,100,1,,
63dcf52406a122c6bdcd054c,2023-06-16_13h58.04.507,phx_ver10,2022.2.5,Win32,4.999075171,,,,,,,,,,,,38,testing_3,zh2sh,e,zh2sh_e,zh2sh_8_eshe.wav,zh2sh_8_eshe.wav,,TRUE,FALSE,,,,,,,,,,,,,,j,1.4588,space,2.4119,,,,,,,,0,3,3,37,1,,
63dcf52406a122c6bdcd054c,2023-06-16_13h58.04.507,phx_ver10,2022.2.5,Win32,4.999075171,,,,,,,,,,,,96,testing_3,j2x,i,j2x_i,j2x_8_ixi.wav,j2x_1_iji.wav,,FALSE,FALSE,,,,,,,,,,,,,,j,0.7323,space,1.7105,,,,,,,,0,4,4,95,1,,
63dcf52406a122c6bdcd054c,2023-06-16_13h58.04.507,phx_ver10,2022.2.5,Win32,4.999075171,,,,,,,,,,,,138,testing_3,sh2j,ei,sh2j_ei,sh2j_8_eijei.wav,sh2j_8_eijei.wav,,TRUE,FALSE,,,,,,,,,,,,,,f,0.255,space,1.2741,,,,,,,,0,5,5,137,1,,
63dcf52406a122c6bdcd054c,2023-06-16_13h58.04.507,phx_ver10,2022.2.5,Win32,4.999075171,,,,,,,,,,,,79,testing_3,j2x,ai,j2x_ai,j2x_1_aijai.wav,j2x_8_aixai.wav,,FALSE,FALSE,,,,,,,,,,,,,,j,0.26,space,0.9618,,,,,,,,0,6,6,78,1,,
63dcf52406a122c6bdcd054c,2023-06-16_13h58.04.507,phx_ver10,2022.2.5,Win32,4.999075171,,,,,,,,,,,,27,testing_3,zh2sh,a,zh2sh_a,zh2sh_1_azha.wav,zh2sh_8_asha.wav,,FALSE,FALSE,,,,,,,,,,,,,,j,0.253,space,0.9538,,,,,,,,0,7,7,26,1,,
63dcf52406a122c6bdcd054c,2023-06-16_13h58.04.507,phx_ver10,2022.2.5,Win32,4.999075171,,,,,,,,,,,,134,testing_3,sh2j,e,sh2j_e,sh2j_8_eje.wav,sh2j_8_eje.wav,,TRUE,FALSE,,,,,,,,,,,,,,f,1.416,space,2.5951,,,,,,,,0,8,8,133,1,,
63dcf52406a122c6bdcd054c,2023-06-16_13h58.04.507,phx_ver10,2022.2.5,Win32,4.999075171,,,,,,,,,,,,42,testing_3,zh2sh,ei,zh2sh_ei,zh2sh_8_eishei.wav,zh2sh_8_eishei.wav,,TRUE,FALSE,,,,,,,,,,,,,,f,0.9395,space,1.6583,,,,,,,,0,9,9,41,1,,
63dcf52406a122c6bdcd054c,2023-06-16_13h58.04.507,phx_ver10,2022.2.5,Win32,4.999075171,,,,,,,,,,,,130,testing_3,sh2j,au,sh2j_au,sh2j_8_aujau.wav,sh2j_8_aujau.wav,,TRUE,FALSE,,,,,,,,,,,,,,f,0.6984,space,1.6423,,,,,,,,0,10,10,129,1,,
63dcf52406a122c6bdcd054c,2023-06-16_13h58.04.507,phx_ver10,2022.2.5,Win32,4.999075171,,,,,,,,,,,,17,testing_2,zh2x,au,zh2x_au,zh2x_1_auzhau.wav,zh2x_1_auzhau.wav,,TRUE,FALSE,,,,,,,,,,,,,,f,0.267,space,1.1983,,,,,,,,0,11,11,16,1,,
63dcf52406a122c6bdcd054c,2023-06-16_13h58.04.507,phx_ver10,2022.2.5,Win32,4.999075171,,,,,,,,,,,,108,testing_3,sh2x,au,sh2x_au,sh2x_8_auxau.wav,sh2x_1_aushau.wav,,FALSE,FALSE,,,,,,,,,,,,,,f,0.4955,space,1.4702,,,,,,,,0,12,12,107,1,,
63dcf52406a122c6bdcd054c,2023-06-16_13h58.04.507,phx_ver10,2022.2.5,Win32,4.999075171,,,,,,,,,,,,116,testing_3,sh2x,ei,sh2x_ei,sh2x_8_eixei.wav,sh2x_1_eishei.wav,,FALSE,FALSE,,,,,,,,,,,,,,f,0.7165,space,1.6603,,,,,,,,0,13,13,115,1,,
63dcf52406a122c6bdcd054c,2023-06-16_13h58.04.507,phx_ver10,2022.2.5,Win32,4.999075171,,,,,,,,,,,,103,testing_3,sh2x,ai,sh2x_ai,sh2x_1_aishai.wav,sh2x_8_aixai.wav,,FALSE,FALSE,,,,,,,,,,,,,,f,0.4927,space,1.452,,,,,,,,0,14,14,102,1,,
63dcf52406a122c6bdcd054c,2023-06-16_13h58.04.507,phx_ver10,2022.2.5,Win32,4.999075171,,,,,,,,,,,,98,testing_3,sh2x,a,sh2x_a,sh2x_8_axa.wav,sh2x_8_axa.wav,,TRUE,FALSE,,,,,,,,,,,,,,f,0.2479,space,1.439,,,,,,,,0,15,15,97,1,,
63dcf52406a122c6bdcd054c,2023-06-16_13h58.04.507,phx_ver10,2022.2.5,Win32,4.999075171,,,,,,,,,,,,107,testing_3,sh2x,au,sh2x_au,sh2x_1_aushau.wav,sh2x_8_auxau.wav,,FALSE,FALSE,,,,,,,,,,,,,,f,1.6028,space,3.0273,,,,,,,,0,16,16,106,1,,
63dcf52406a122c6bdcd054c,2023-06-16_13h58.04.507,phx_ver10,2022.2.5,Win32,4.999075171,,,,,,,,,,,,85,testing_3,j2x,e,j2x_e,j2x_1_eje.wav,j2x_1_eje.wav,,TRUE,FALSE,,,,,,,,,,,,,,f,1.5085,space,2.4918,,,,,,,,0,17,17,84,1,,
63dcf52406a122c6bdcd054c,2023-06-16_13h58.04.507,phx_ver10,2022.2.5,Win32,4.999075171,,,,,,,,,,,,81,testing_3,j2x,au,j2x_au,j2x_1_aujau.wav,j2x_1_aujau.wav,,TRUE,FALSE,,,,,,,,,,,,,,f,0.7247,space,1.6602,,,,,,,,0,18,18,80,1,,
63dcf52406a122c6bdcd054c,2023-06-16_13h58.04.507,phx_ver10,2022.2.5,Win32,4.999075171,,,,,,,,,,,,45,testing_3,zh2sh,i,zh2sh_i,zh2sh_1_izhi.wav,zh2sh_1_izhi.wav,,TRUE,FALSE,,,,,,,,,,,,,,f,0.5024,space,1.4674,,,,,,,,0,19,19,44,1,,
63dcf52406a122c6bdcd054c,2023-06-16_13h58.04.507,phx_ver10,2022.2.5,Win32,4.999075171,,,,,,,,,,,,111,testing_3,sh2x,e,sh2x_e,sh2x_1_eshe.wav,sh2x_8_exe.wav,,FALSE,FALSE,,,,,,,,,,,,,,f,0.2575,space,1.2024,,,,,,,,0,20,20,110,1,,
63dcf52406a122c6bdcd054c,2023-06-16_13h58.04.507,phx_ver10,2022.2.5,Win32,4.999075171,,,,,,,,,,,,5,testing_1,zh2x,e,zh2x_e,zh2x_1_ezhe.wav,zh2x_1_ezhe_copy.wav,,TRUE,TRUE,,,,,,,,,,,,,,f,0.2445,space,1.177,,,,,,,,0,21,21,4,1,,
63dcf52406a122c6bdcd054c,2023-06-16_13h58.04.507,phx_ver10,2022.2.5,Win32,4.999075171,,,,,,,,,,,,67,testing_3,zh2j,ei,zh2j_ei,zh2j_1_eizhei.wav,zh2j_8_eijei.wav,,FALSE,FALSE,,,,,,,,,,,,,,f,0.4844,space,1.4291,,,,,,,,0,22,22,66,1,,
63dcf52406a122c6bdcd054c,2023-06-16_13h58.04.507,phx_ver10,2022.2.5,Win32,4.999075171,,,,,,,,,,,,144,testing_3,sh2j,i,sh2j_i,sh2j_8_iji.wav,sh2j_1_ishi.wav,,FALSE,FALSE,,,,,,,,,,,,,,j,0.2593,space,1.1906,,,,,,,,0,23,23,143,1,,
63dcf52406a122c6bdcd054c,2023-06-16_13h58.04.507,phx_ver10,2022.2.5,Win32,4.999075171,,,,,,,,,,,,143,testing_3,sh2j,i,sh2j_i,sh2j_1_ishi.wav,sh2j_8_iji.wav,,FALSE,FALSE,,,,,,,,,,,,,,j,0.4847,space,1.4487,,,,,,,,0,24,24,142,1,,
63dcf52406a122c6bdcd054c,2023-06-16_13h58.04.507,phx_ver10,2022.2.5,Win32,4.999075171,,,,,,,,,,,,10,testing_1,zh2x,i,zh2x_i,zh2x_8_ixi.wav,zh2x_8_ixi_copy.wav,,TRUE,TRUE,,,,,,,,,,,,,,f,0.4906,space,1.4394,,,,,,,,0,25,25,9,1,,
63dcf52406a122c6bdcd054c,2023-06-16_13h58.04.507,phx_ver10,2022.2.5,Win32,4.999075171,,,,,,,,,,,,72,testing_3,zh2j,i,zh2j_i,zh2j_8_iji.wav,zh2j_1_izhi.wav,,FALSE,FALSE,,,,,,,,,,,,,,f,0.4688,space,1.4303,,,,,,,,0,26,26,71,1,,
63dcf52406a122c6bdcd054c,2023-06-16_13h58.04.507,phx_ver10,2022.2.5,Win32,4.999075171,,,,,,,,,,,,51,testing_3,zh2j,a,zh2j_a,zh2j_1_azha.wav,zh2j_8_aja.wav,,FALSE,FALSE,,,,,,,,,,,,,,f,0.9435,space,1.8522,,,,,,,,0,27,27,50,1,,
63dcf52406a122c6bdcd054c,2023-06-16_13h58.04.507,phx_ver10,2022.2.5,Win32,4.999075171,,,,,,,,,,,,9,testing_1,zh2x,i,zh2x_i,zh2x_1_izhi.wav,zh2x_1_izhi_copy.wav,,TRUE,TRUE,,,,,,,,,,,,,,f,0.5043,space,1.4476,,,,,,,,0,28,28,8,1,,
63dcf52406a122c6bdcd054c,2023-06-16_13h58.04.507,phx_ver10,2022.2.5,Win32,4.999075171,,,,,,,,,,,,57,testing_3,zh2j,au,zh2j_au,zh2j_1_auzhau.wav,zh2j_1_auzhau.wav,,TRUE,FALSE,,,,,,,,,,,,,,f,1.1745,space,2.1264,,,,,,,,0,29,29,56,1,,
63dcf52406a122c6bdcd054c,2023-06-16_13h58.04.507,phx_ver10,2022.2.5,Win32,4.999075171,,,,,,,,,,,,73,testing_3,j2x,a,j2x_a,j2x_1_aja.wav,j2x_1_aja.wav,,TRUE,FALSE,,,,,,,,,,,,,,f,0.7373,space,1.6906,,,,,,,,0,30,30,72,1,,
63dcf52406a122c6bdcd054c,2023-06-16_13h58.04.507,phx_ver10,2022.2.5,Win32,4.999075171,,,,,,,,,,,,104,testing_3,sh2x,ai,sh2x_ai,sh2x_8_aixai.wav,sh2x_1_aishai.wav,,FALSE,FALSE,,,,,,,,,,,,,,f,0.7391,space,1.6794,,,,,,,,0,31,31,103,1,,
63dcf52406a122c6bdcd054c,2023-06-16_13h58.04.507,phx_ver10,2022.2.5,Win32,4.999075171,,,,,,,,,,,,132,testing_3,sh2j,au,sh2j_au,sh2j_8_aujau.wav,sh2j_1_aushau.wav,,FALSE,FALSE,,,,,,,,,,,,,,j,0.2548,space,1.1945,,,,,,,,0,32,32,131,1,,
63dcf52406a122c6bdcd054c,2023-06-16_13h58.04.507,phx_ver10,2022.2.5,Win32,4.999075171,,,,,,,,,,,,22,testing_2,zh2x,ei,zh2x_ei,zh2x_8_eixei.wav,zh2x_8_eixei.wav,,TRUE,FALSE,,,,,,,,,,,,,,f,0.4858,space,1.4328,,,,,,,,0,33,33,21,1,,
63dcf52406a122c6bdcd054c,2023-06-16_13h58.04.507,phx_ver10,2022.2.5,Win32,4.999075171,,,,,,,,,,,,84,testing_3,j2x,au,j2x_au,j2x_8_auxau.wav,j2x_1_aujau.wav,,FALSE,FALSE,,,,,,,,,,,,,,j,0.9496,space,1.914,,,,,,,,0,34,34,83,1,,
63dcf52406a122c6bdcd054c,2023-06-16_13h58.04.507,phx_ver10,2022.2.5,Win32,4.999075171,,,,,,,,,,,,21,testing_2,zh2x,ei,zh2x_ei,zh2x_1_eizhei.wav,zh2x_1_eizhei.wav,,TRUE,FALSE,,,,,,,,,,,,,,f,0.4679,space,1.1708,,,,,,,,0,35,35,20,1,,
63dcf52406a122c6bdcd054c,2023-06-16_13h58.04.507,phx_ver10,2022.2.5,Win32,4.999075171,,,,,,,,,,,,89,testing_3,j2x,ei,j2x_ei,j2x_1_eijei.wav,j2x_1_eijei.wav,,TRUE,FALSE,,,,,,,,,,,,,,f,0.2521,space,0.961,,,,,,,,0,36,36,88,1,,
63dcf52406a122c6bdcd054c,2023-06-16_13h58.04.507,phx_ver10,2022.2.5,Win32,4.999075171,,,,,,,,,,,,91,testing_3,j2x,ei,j2x_ei,j2x_1_eijei.wav,j2x_8_eixei.wav,,FALSE,FALSE,,,,,,,,,,,,,,j,0.2497,space,1.1887,,,,,,,,0,37,37,90,1,,
63dcf52406a122c6bdcd054c,2023-06-16_13h58.04.507,phx_ver10,2022.2.5,Win32,4.999075171,,,,,,,,,,,,58,testing_3,zh2j,au,zh2j_au,zh2j_8_aujau.wav,zh2j_8_aujau.wav,,TRUE,FALSE,,,,,,,,,,,,,,f,0.2515,space,1.1867,,,,,,,,0,38,38,57,1,,
63dcf52406a122c6bdcd054c,2023-06-16_13h58.04.507,phx_ver10,2022.2.5,Win32,4.999075171,,,,,,,,,,,,129,testing_3,sh2j,au,sh2j_au,sh2j_1_aushau.wav,sh2j_1_aushau.wav,,TRUE,FALSE,,,,,,,,,,,,,,f,0.4858,space,1.4302,,,,,,,,0,39,39,128,1,,
63dcf52406a122c6bdcd054c,2023-06-16_13h58.04.507,phx_ver10,2022.2.5,Win32,4.999075171,,,,,,,,,,,,37,testing_3,zh2sh,e,zh2sh_e,zh2sh_1_ezhe.wav,zh2sh_1_ezhe.wav,,TRUE,FALSE,,,,,,,,,,,,,,f,0.2425,space,1.1629,,,,,,,,0,40,40,36,1,,
63dcf52406a122c6bdcd054c,2023-06-16_13h58.04.507,phx_ver10,2022.2.5,Win32,4.999075171,,,,,,,,,,,,127,testing_3,sh2j,ai,sh2j_ai,sh2j_1_aishai.wav,sh2j_8_aijai.wav,,FALSE,FALSE,,,,,,,,,,,,,,j,0.2547,space,1.1857,,,,,,,,0,41,41,126,1,,
63dcf52406a122c6bdcd054c,2023-06-16_13h58.04.507,phx_ver10,2022.2.5,Win32,4.999075171,,,,,,,,,,,,120,testing_3,sh2x,i,sh2x_i,sh2x_8_ixi.wav,sh2x_1_ishi.wav,,FALSE,FALSE,,,,,,,,,,,,,,f,0.4943,space,1.4539,,,,,,,,0,42,42,119,1,,
63dcf52406a122c6bdcd054c,2023-06-16_13h58.04.507,phx_ver10,2022.2.5,Win32,4.999075171,,,,,,,,,,,,40,testing_3,zh2sh,e,zh2sh_e,zh2sh_8_eshe.wav,zh2sh_1_ezhe.wav,,FALSE,FALSE,,,,,,,,,,,,,,j,0.2419,space,1.2174,,,,,,,,0,43,43,39,1,,
63dcf52406a122c6bdcd054c,2023-06-16_13h58.04.507,phx_ver10,2022.2.5,Win32,4.999075171,,,,,,,,,,,,75,testing_3,j2x,a,j2x_a,j2x_1_aja.wav,j2x_8_axa.wav,,FALSE,FALSE,,,,,,,,,,,,,,j,0.2547,space,1.1982,,,,,,,,0,44,44,74,1,,
63dcf52406a122c6bdcd054c,2023-06-16_13h58.04.507,phx_ver10,2022.2.5,Win32,4.999075171,,,,,,,,,,,,76,testing_3,j2x,a,j2x_a,j2x_8_axa.wav,j2x_1_aja.wav,,FALSE,FALSE,,,,,,,,,,,,,,j,1.0065,space,1.9432,,,,,,,,0,45,45,75,1,,
63dcf52406a122c6bdcd054c,2023-06-16_13h58.04.507,phx_ver10,2022.2.5,Win32,4.999075171,,,,,,,,,,,,102,testing_3,sh2x,ai,sh2x_ai,sh2x_8_aixai.wav,sh2x_8_aixai.wav,,TRUE,FALSE,,,,,,,,,,,,,,f,0.2577,space,1.2014,,,,,,,,0,46,46,101,1,,
63dcf52406a122c6bdcd054c,2023-06-16_13h58.04.507,phx_ver10,2022.2.5,Win32,4.999075171,,,,,,,,,,,,87,testing_3,j2x,e,j2x_e,j2x_1_eje.wav,j2x_8_exe.wav,,FALSE,FALSE,,,,,,,,,,,,,,j,0.2689,space,1.1998,,,,,,,,0,47,47,86,1,,
63dcf52406a122c6bdcd054c,2023-06-16_13h58.04.507,phx_ver10,2022.2.5,Win32,4.999075171,,,,,,,,,,,,94,testing_3,j2x,i,j2x_i,j2x_8_ixi.wav,j2x_8_ixi.wav,,TRUE,FALSE,,,,,,,,,,,,,,f,0.7312,space,1.6834,,,,,,,,0,48,48,93,1,,
63dcf52406a122c6bdcd054c,2023-06-16_13h58.04.507,phx_ver10,2022.2.5,Win32,4.999075171,,,,,,,,,,,,128,testing_3,sh2j,ai,sh2j_ai,sh2j_8_aijai.wav,sh2j_1_aishai.wav,,FALSE,FALSE,,,,,,,,,,,,,,j,0.2526,space,1.2349,,,,,,,,0,49,49,127,1,,
63dcf52406a122c6bdcd054c,2023-06-16_13h58.04.507,phx_ver10,2022.2.5,Win32,4.999075171,,,,,,,,,,,,8,testing_1,zh2x,e,zh2x_e,zh2x_8_exe.wav,zh2x_1_ezhe.wav,,FALSE,TRUE,,,,,,,,,,,,,,j,0.2488,space,1.2061,,,,,,,,0,50,50,7,1,,
63dcf52406a122c6bdcd054c,2023-06-16_13h58.04.507,phx_ver10,2022.2.5,Win32,4.999075171,,,,,,,,,,,,26,testing_3,zh2sh,a,zh2sh_a,zh2sh_8_asha.wav,zh2sh_8_asha.wav,,TRUE,FALSE,,,,,,,,,,,,,,f,0.2415,space,1.2059,,,,,,,,0,51,51,25,1,,
63dcf52406a122c6bdcd054c,2023-06-16_13h58.04.507,phx_ver10,2022.2.5,Win32,4.999075171,,,,,,,,,,,,32,testing_3,zh2sh,ai,zh2sh_ai,zh2sh_8_aishai.wav,zh2sh_1_aizhai.wav,,FALSE,FALSE,,,,,,,,,,,,,,j,0.2468,space,0.9981,,,,,,,,0,52,52,31,1,,
63dcf52406a122c6bdcd054c,2023-06-16_13h58.04.507,phx_ver10,2022.2.5,Win32,4.999075171,,,,,,,,,,,,23,testing_2,zh2x,ei,zh2x_ei,zh2x_1_eizhei.wav,zh2x_8_eixei.wav,,FALSE,FALSE,,,,,,,,,,,,,,j,0.2614,space,1.209,,,,,,,,0,53,53,22,1,,
63dcf52406a122c6bdcd054c,2023-06-16_13h58.04.507,phx_ver10,2022.2.5,Win32,4.999075171,,,,,,,,,,,,65,testing_3,zh2j,ei,zh2j_ei,zh2j_1_eizhei.wav,zh2j_1_eizhei.wav,,TRUE,FALSE,,,,,,,,,,,,,,f,0.9548,space,1.6732,,,,,,,,0,54,54,64,1,,
63dcf52406a122c6bdcd054c,2023-06-16_13h58.04.507,phx_ver10,2022.2.5,Win32,4.999075171,,,,,,,,,,,,63,testing_3,zh2j,e,zh2j_e,zh2j_1_ezhe.wav,zh2j_8_eje.wav,,FALSE,FALSE,,,,,,,,,,,,,,f,0.5023,space,1.4406,,,,,,,,0,55,55,62,1,,
63dcf52406a122c6bdcd054c,2023-06-16_13h58.04.507,phx_ver10,2022.2.5,Win32,4.999075171,,,,,,,,,,,,44,testing_3,zh2sh,ei,zh2sh_ei,zh2sh_8_eishei.wav,zh2sh_1_eizhei.wav,,FALSE,FALSE,,,,,,,,,,,,,,j,0.259,space,0.9793,,,,,,,,0,56,56,43,1,,
63dcf52406a122c6bdcd054c,2023-06-16_13h58.04.507,phx_ver10,2022.2.5,Win32,4.999075171,,,,,,,,,,,,34,testing_3,zh2sh,au,zh2sh_au,zh2sh_8_aushau.wav,zh2sh_8_aushau.wav,,TRUE,FALSE,,,,,,,,,,,,,,f,0.2497,space,1.1764,,,,,,,,0,57,57,33,1,,
63dcf52406a122c6bdcd054c,2023-06-16_13h58.04.507,phx_ver10,2022.2.5,Win32,4.999075171,,,,,,,,,,,,47,testing_3,zh2sh,i,zh2sh_i,zh2sh_1_izhi.wav,zh2sh_8_ishi.wav,,FALSE,FALSE,,,,,,,,,,,,,,j,0.4887,space,1.4095,,,,,,,,0,58,58,46,1,,
63dcf52406a122c6bdcd054c,2023-06-16_13h58.04.507,phx_ver10,2022.2.5,Win32,4.999075171,,,,,,,,,,,,39,testing_3,zh2sh,e,zh2sh_e,zh2sh_1_ezhe.wav,zh2sh_8_eshe.wav,,FALSE,FALSE,,,,,,,,,,,,,,j,0.0181,space,1.0177,,,,,,,,0,59,59,38,1,,
63dcf52406a122c6bdcd054c,2023-06-16_13h58.04.507,phx_ver10,2022.2.5,Win32,4.999075171,,,,,,,,,,,,49,testing_3,zh2j,a,zh2j_a,zh2j_1_azha.wav,zh2j_1_azha.wav,,TRUE,FALSE,,,,,,,,,,,,,,f,0.5118,space,1.4886,,,,,,,,0,60,60,48,1,,
63dcf52406a122c6bdcd054c,2023-06-16_13h58.04.507,phx_ver10,2022.2.5,Win32,4.999075171,,,,,,,,,,,,30,testing_3,zh2sh,ai,zh2sh_ai,zh2sh_8_aishai.wav,zh2sh_8_aishai.wav,,TRUE,FALSE,,,,,,,,,,,,,,f,0.972,space,1.9089,,,,,,,,0,61,61,29,1,,
63dcf52406a122c6bdcd054c,2023-06-16_13h58.04.507,phx_ver10,2022.2.5,Win32,4.999075171,,,,,,,,,,,,69,testing_3,zh2j,i,zh2j_i,zh2j_1_izhi.wav,zh2j_1_izhi.wav,,TRUE,FALSE,,,,,,,,,,,,,,f,0.5061,space,1.4483,,,,,,,,0,62,62,68,1,,
63dcf52406a122c6bdcd054c,2023-06-16_13h58.04.507,phx_ver10,2022.2.5,Win32,4.999075171,,,,,,,,,,,,141,testing_3,sh2j,i,sh2j_i,sh2j_1_ishi.wav,sh2j_1_ishi.wav,,TRUE,FALSE,,,,,,,,,,,,,,f,0.4934,space,1.4369,,,,,,,,0,63,63,140,1,,
63dcf52406a122c6bdcd054c,2023-06-16_13h58.04.507,phx_ver10,2022.2.5,Win32,4.999075171,,,,,,,,,,,,80,testing_3,j2x,ai,j2x_ai,j2x_8_aixai.wav,j2x_1_aijai.wav,,FALSE,FALSE,,,,,,,,,,,,,,j,0.2635,space,1.204,,,,,,,,0,64,64,79,1,,
63dcf52406a122c6bdcd054c,2023-06-16_13h58.04.507,phx_ver10,2022.2.5,Win32,4.999075171,,,,,,,,,,,,29,testing_3,zh2sh,ai,zh2sh_ai,zh2sh_1_aizhai.wav,zh2sh_1_aizhai.wav,,TRUE,FALSE,,,,,,,,,,,,,,f,0.2467,space,1.2106,,,,,,,,0,65,65,28,1,,
63dcf52406a122c6bdcd054c,2023-06-16_13h58.04.507,phx_ver10,2022.2.5,Win32,4.999075171,,,,,,,,,,,,82,testing_3,j2x,au,j2x_au,j2x_8_auxau.wav,j2x_8_auxau.wav,,TRUE,FALSE,,,,,,,,,,,,,,f,0.4915,space,1.4199,,,,,,,,0,66,66,81,1,,
63dcf52406a122c6bdcd054c,2023-06-16_13h58.04.507,phx_ver10,2022.2.5,Win32,4.999075171,,,,,,,,,,,,121,testing_3,sh2j,a,sh2j_a,sh2j_1_asha.wav,sh2j_1_asha.wav,,TRUE,FALSE,,,,,,,,,,,,,,f,0.246,space,1.2062,,,,,,,,0,67,67,120,1,,
63dcf52406a122c6bdcd054c,2023-06-16_13h58.04.507,phx_ver10,2022.2.5,Win32,4.999075171,,,,,,,,,,,,70,testing_3,zh2j,i,zh2j_i,zh2j_8_iji.wav,zh2j_8_iji.wav,,TRUE,FALSE,,,,,,,,,,,,,,f,0.4891,space,1.4361,,,,,,,,0,68,68,69,1,,
63dcf52406a122c6bdcd054c,2023-06-16_13h58.04.507,phx_ver10,2022.2.5,Win32,4.999075171,,,,,,,,,,,,90,testing_3,j2x,ei,j2x_ei,j2x_8_eixei.wav,j2x_8_eixei.wav,,TRUE,FALSE,,,,,,,,,,,,,,f,0.7187,space,1.6643,,,,,,,,0,69,69,89,1,,
63dcf52406a122c6bdcd054c,2023-06-16_13h58.04.507,phx_ver10,2022.2.5,Win32,4.999075171,,,,,,,,,,,,133,testing_3,sh2j,e,sh2j_e,sh2j_1_eshe.wav,sh2j_1_eshe.wav,,TRUE,FALSE,,,,,,,,,,,,,,f,0.4817,space,1.419,,,,,,,,0,70,70,132,1,,
63dcf52406a122c6bdcd054c,2023-06-16_13h58.04.507,phx_ver10,2022.2.5,Win32,4.999075171,,,,,,,,,,,,113,testing_3,sh2x,ei,sh2x_ei,sh2x_1_eishei.wav,sh2x_1_eishei.wav,,TRUE,FALSE,,,,,,,,,,,,,,f,0.7374,space,1.6726,,,,,,,,0,71,71,112,1,,
63dcf52406a122c6bdcd054c,2023-06-16_13h58.04.507,phx_ver10,2022.2.5,Win32,4.999075171,,,,,,,,,,,,118,testing_3,sh2x,i,sh2x_i,sh2x_8_ixi.wav,sh2x_8_ixi.wav,,TRUE,FALSE,,,,,,,,,,,,,,f,0.5151,space,1.4435,,,,,,,,0,72,72,117,1,,
63dcf52406a122c6bdcd054c,2023-06-16_13h58.04.507,phx_ver10,2022.2.5,Win32,4.999075171,,,,,,,,,,,,100,testing_3,sh2x,a,sh2x_a,sh2x_8_axa.wav,sh2x_1_asha.wav,,FALSE,FALSE,,,,,,,,,,,,,,f,0.5029,space,1.4426,,,,,,,,0,73,73,99,1,,
63dcf52406a122c6bdcd054c,2023-06-16_13h58.04.507,phx_ver10,2022.2.5,Win32,4.999075171,,,,,,,,,,,,62,testing_3,zh2j,e,zh2j_e,zh2j_8_eje.wav,zh2j_8_eje.wav,,TRUE,FALSE,,,,,,,,,,,,,,f,0.7764,space,1.4726,,,,,,,,0,74,74,61,1,,
63dcf52406a122c6bdcd054c,2023-06-16_13h58.04.507,phx_ver10,2022.2.5,Win32,4.999075171,,,,,,,,,,,,4,testing_1,zh2x,a,zh2x_a,zh2x_8_axa.wav,zh2x_1_azha.wav,,FALSE,TRUE,,,,,,,,,,,,,,j,0.2605,space,1.1723,,,,,,,,0,75,75,3,1,,
63dcf52406a122c6bdcd054c,2023-06-16_13h58.04.507,phx_ver10,2022.2.5,Win32,4.999075171,,,,,,,,,,,,36,testing_3,zh2sh,au,zh2sh_au,zh2sh_8_aushau.wav,zh2sh_1_auzhau.wav,,FALSE,FALSE,,,,,,,,,,,,,,j,0.2529,space,1.1903,,,,,,,,0,76,76,35,1,,
63dcf52406a122c6bdcd054c,2023-06-16_13h58.04.507,phx_ver10,2022.2.5,Win32,4.999075171,,,,,,,,,,,,92,testing_3,j2x,ei,j2x_ei,j2x_8_eixei.wav,j2x_1_eijei.wav,,FALSE,FALSE,,,,,,,,,,,,,,j,0.4895,space,1.1759,,,,,,,,0,77,77,91,1,,
63dcf52406a122c6bdcd054c,2023-06-16_13h58.04.507,phx_ver10,2022.2.5,Win32,4.999075171,,,,,,,,,,,,95,testing_3,j2x,i,j2x_i,j2x_1_iji.wav,j2x_8_ixi.wav,,FALSE,FALSE,,,,,,,,,,,,,,j,0.2523,space,0.9682,,,,,,,,0,78,78,94,1,,
63dcf52406a122c6bdcd054c,2023-06-16_13h58.04.507,phx_ver10,2022.2.5,Win32,4.999075171,,,,,,,,,,,,68,testing_3,zh2j,ei,zh2j_ei,zh2j_8_eijei.wav,zh2j_1_eizhei.wav,,FALSE,FALSE,,,,,,,,,,,,,,f,0.476,space,1.2073,,,,,,,,0,79,79,67,1,,
63dcf52406a122c6bdcd054c,2023-06-16_13h58.04.507,phx_ver10,2022.2.5,Win32,4.999075171,,,,,,,,,,,,33,testing_3,zh2sh,au,zh2sh_au,zh2sh_1_auzhau.wav,zh2sh_1_auzhau.wav,,TRUE,FALSE,,,,,,,,,,,,,,f,0.2482,space,0.9649,,,,,,,,0,80,80,32,1,,
63dcf52406a122c6bdcd054c,2023-06-16_13h58.04.507,phx_ver10,2022.2.5,Win32,4.999075171,,,,,,,,,,,,11,testing_1,zh2x,i,zh2x_i,zh2x_1_izhi.wav,zh2x_8_ixi.wav,,FALSE,TRUE,,,,,,,,,,,,,,j,0.2544,space,1.1898,,,,,,,,0,81,81,10,1,,
63dcf52406a122c6bdcd054c,2023-06-16_13h58.04.507,phx_ver10,2022.2.5,Win32,4.999075171,,,,,,,,,,,,7,testing_1,zh2x,e,zh2x_e,zh2x_1_ezhe.wav,zh2x_8_exe.wav,,FALSE,TRUE,,,,,,,,,,,,,,j,0.2449,space,1.1783,,,,,,,,0,82,82,6,1,,
63dcf52406a122c6bdcd054c,2023-06-16_13h58.04.507,phx_ver10,2022.2.5,Win32,4.999075171,,,,,,,,,,,,114,testing_3,sh2x,ei,sh2x_ei,sh2x_8_eixei.wav,sh2x_8_eixei.wav,,TRUE,FALSE,,,,,,,,,,,,,,j,0.2608,space,1.2185,,,,,,,,0,83,83,113,1,,
63dcf52406a122c6bdcd054c,2023-06-16_13h58.04.507,phx_ver10,2022.2.5,Win32,4.999075171,,,,,,,,,,,,54,testing_3,zh2j,ai,zh2j_ai,zh2j_8_aijai.wav,zh2j_8_aijai.wav,,TRUE,FALSE,,,,,,,,,,,,,,j,0.4877,space,1.4603,,,,,,,,0,84,84,53,1,,
63dcf52406a122c6bdcd054c,2023-06-16_13h58.04.507,phx_ver10,2022.2.5,Win32,4.999075171,,,,,,,,,,,,86,testing_3,j2x,e,j2x_e,j2x_8_exe.wav,j2x_8_exe.wav,,TRUE,FALSE,,,,,,,,,,,,,,f,0.9793,space,1.7062,,,,,,,,0,85,85,85,1,,
63dcf52406a122c6bdcd054c,2023-06-16_13h58.04.507,phx_ver10,2022.2.5,Win32,4.999075171,,,,,,,,,,,,41,testing_3,zh2sh,ei,zh2sh_ei,zh2sh_1_eizhei.wav,zh2sh_1_eizhei.wav,,TRUE,FALSE,,,,,,,,,,,,,,f,0.7155,space,1.6948,,,,,,,,0,86,86,40,1,,
63dcf52406a122c6bdcd054c,2023-06-16_13h58.04.507,phx_ver10,2022.2.5,Win32,4.999075171,,,,,,,,,,,,25,testing_3,zh2sh,a,zh2sh_a,zh2sh_1_azha.wav,zh2sh_1_azha.wav,,TRUE,FALSE,,,,,,,,,,,,,,f,0.5077,space,1.4714,,,,,,,,0,87,87,24,1,,
63dcf52406a122c6bdcd054c,2023-06-16_13h58.04.507,phx_ver10,2022.2.5,Win32,4.999075171,,,,,,,,,,,,52,testing_3,zh2j,a,zh2j_a,zh2j_8_aja.wav,zh2j_1_azha.wav,,FALSE,FALSE,,,,,,,,,,,,,,f,1.9201,space,2.9456,,,,,,,,0,88,88,51,1,,
63dcf52406a122c6bdcd054c,2023-06-16_13h58.04.507,phx_ver10,2022.2.5,Win32,4.999075171,,,,,,,,,,,,115,testing_3,sh2x,ei,sh2x_ei,sh2x_1_eishei.wav,sh2x_8_eixei.wav,,FALSE,FALSE,,,,,,,,,,,,,,f,0.2548,space,1.1998,,,,,,,,0,89,89,114,1,,
63dcf52406a122c6bdcd054c,2023-06-16_13h58.04.507,phx_ver10,2022.2.5,Win32,4.999075171,,,,,,,,,,,,12,testing_1,zh2x,i,zh2x_i,zh2x_8_ixi.wav,zh2x_1_izhi.wav,,FALSE,TRUE,,,,,,,,,,,,,,j,0.2332,space,1.1774,,,,,,,,0,90,90,11,1,,
63dcf52406a122c6bdcd054c,2023-06-16_13h58.04.507,phx_ver10,2022.2.5,Win32,4.999075171,,,,,,,,,,,,99,testing_3,sh2x,a,sh2x_a,sh2x_1_asha.wav,sh2x_8_axa.wav,,FALSE,FALSE,,,,,,,,,,,,,,f,0.7172,space,1.6731,,,,,,,,0,91,91,98,1,,
63dcf52406a122c6bdcd054c,2023-06-16_13h58.04.507,phx_ver10,2022.2.5,Win32,4.999075171,,,,,,,,,,,,60,testing_3,zh2j,au,zh2j_au,zh2j_8_aujau.wav,zh2j_1_auzhau.wav,,FALSE,FALSE,,,,,,,,,,,,,,f,0.7204,space,1.6551,,,,,,,,0,92,92,59,1,,
63dcf52406a122c6bdcd054c,2023-06-16_13h58.04.507,phx_ver10,2022.2.5,Win32,4.999075171,,,,,,,,,,,,15,testing_2,zh2x,ai,zh2x_ai,zh2x_1_aizhai.wav,zh2x_8_aixai.wav,,FALSE,FALSE,,,,,,,,,,,,,,j,0.2484,space,1.2093,,,,,,,,0,93,93,14,1,,
63dcf52406a122c6bdcd054c,2023-06-16_13h58.04.507,phx_ver10,2022.2.5,Win32,4.999075171,,,,,,,,,,,,59,testing_3,zh2j,au,zh2j_au,zh2j_1_auzhau.wav,zh2j_8_aujau.wav,,FALSE,FALSE,,,,,,,,,,,,,,f,0.4937,space,1.191,,,,,,,,0,94,94,58,1,,
63dcf52406a122c6bdcd054c,2023-06-16_13h58.04.507,phx_ver10,2022.2.5,Win32,4.999075171,,,,,,,,,,,,126,testing_3,sh2j,ai,sh2j_ai,sh2j_8_aijai.wav,sh2j_8_aijai.wav,,TRUE,FALSE,,,,,,,,,,,,,,f,0.494,space,1.1993,,,,,,,,0,95,95,125,1,,
63dcf52406a122c6bdcd054c,2023-06-16_13h58.04.507,phx_ver10,2022.2.5,Win32,4.999075171,,,,,,,,,,,,74,testing_3,j2x,a,j2x_a,j2x_8_axa.wav,j2x_8_axa.wav,,TRUE,FALSE,,,,,,,,,,,,,,f,0.7049,space,1.6701,,,,,,,,0,96,96,73,1,,
63dcf52406a122c6bdcd054c,2023-06-16_13h58.04.507,phx_ver10,2022.2.5,Win32,4.999075171,,,,,,,,,,,,136,testing_3,sh2j,e,sh2j_e,sh2j_8_eje.wav,sh2j_1_eshe.wav,,FALSE,FALSE,,,,,,,,,,,,,,j,0.4678,space,1.3944,,,,,,,,0,97,97,135,1,,
63dcf52406a122c6bdcd054c,2023-06-16_13h58.04.507,phx_ver10,2022.2.5,Win32,4.999075171,,,,,,,,,,,,46,testing_3,zh2sh,i,zh2sh_i,zh2sh_8_ishi.wav,zh2sh_8_ishi.wav,,TRUE,FALSE,,,,,,,,,,,,,,f,0.7113,space,1.422,,,,,,,,0,98,98,45,1,,
63dcf52406a122c6bdcd054c,2023-06-16_13h58.04.507,phx_ver10,2022.2.5,Win32,4.999075171,,,,,,,,,,,,131,testing_3,sh2j,au,sh2j_au,sh2j_1_aushau.wav,sh2j_8_aujau.wav,,FALSE,FALSE,,,,,,,,,,,,,,j,0.467,space,1.4097,,,,,,,,0,99,99,130,1,,
63dcf52406a122c6bdcd054c,2023-06-16_13h58.04.507,phx_ver10,2022.2.5,Win32,4.999075171,,,,,,,,,,,,20,testing_2,zh2x,au,zh2x_au,zh2x_8_auxau.wav,zh2x_1_auzhau.wav,,FALSE,FALSE,,,,,,,,,,,,,,j,2.3997,space,3.3867,,,,,,,,0,100,100,19,1,,
63dcf52406a122c6bdcd054c,2023-06-16_13h58.04.507,phx_ver10,2022.2.5,Win32,4.999075171,,,,,,,,,,,,24,testing_2,zh2x,ei,zh2x_ei,zh2x_8_eixei.wav,zh2x_1_eizhei.wav,,FALSE,FALSE,,,,,,,,,,,,,,j,0.7383,space,1.6847,,,,,,,,0,101,101,23,1,,
63dcf52406a122c6bdcd054c,2023-06-16_13h58.04.507,phx_ver10,2022.2.5,Win32,4.999075171,,,,,,,,,,,,43,testing_3,zh2sh,ei,zh2sh_ei,zh2sh_1_eizhei.wav,zh2sh_8_eishei.wav,,FALSE,FALSE,,,,,,,,,,,,,,j,0.5026,space,1.4752,,,,,,,,0,102,102,42,1,,
63dcf52406a122c6bdcd054c,2023-06-16_13h58.04.507,phx_ver10,2022.2.5,Win32,4.999075171,,,,,,,,,,,,13,testing_2,zh2x,ai,zh2x_ai,zh2x_1_aizhai.wav,zh2x_1_aizhai.wav,,TRUE,FALSE,,,,,,,,,,,,,,f,0.4653,space,1.4203,,,,,,,,0,103,103,12,1,,
63dcf52406a122c6bdcd054c,2023-06-16_13h58.04.507,phx_ver10,2022.2.5,Win32,4.999075171,,,,,,,,,,,,125,testing_3,sh2j,ai,sh2j_ai,sh2j_1_aishai.wav,sh2j_1_aishai.wav,,TRUE,FALSE,,,,,,,,,,,,,,f,0.4892,space,1.4107,,,,,,,,0,104,104,124,1,,
63dcf52406a122c6bdcd054c,2023-06-16_13h58.04.507,phx_ver10,2022.2.5,Win32,4.999075171,,,,,,,,,,,,64,testing_3,zh2j,e,zh2j_e,zh2j_8_eje.wav,zh2j_1_ezhe.wav,,FALSE,FALSE,,,,,,,,,,,,,,f,0.4993,space,1.4236,,,,,,,,0,105,105,63,1,,
63dcf52406a122c6bdcd054c,2023-06-16_13h58.04.507,phx_ver10,2022.2.5,Win32,4.999075171,,,,,,,,,,,,97,testing_3,sh2x,a,sh2x_a,sh2x_1_asha.wav,sh2x_1_asha.wav,,TRUE,FALSE,,,,,,,,,,,,,,f,0.4968,space,1.4479,,,,,,,,0,106,106,96,1,,
63dcf52406a122c6bdcd054c,2023-06-16_13h58.04.507,phx_ver10,2022.2.5,Win32,4.999075171,,,,,,,,,,,,35,testing_3,zh2sh,au,zh2sh_au,zh2sh_1_auzhau.wav,zh2sh_8_aushau.wav,,FALSE,FALSE,,,,,,,,,,,,,,j,0.2562,space,1.2244,,,,,,,,0,107,107,34,1,,
63dcf52406a122c6bdcd054c,2023-06-16_13h58.04.507,phx_ver10,2022.2.5,Win32,4.999075171,,,,,,,,,,,,123,testing_3,sh2j,a,sh2j_a,sh2j_1_asha.wav,sh2j_8_aja.wav,,FALSE,FALSE,,,,,,,,,,,,,,j,0.248,space,0.956,,,,,,,,0,108,108,122,1,,
63dcf52406a122c6bdcd054c,2023-06-16_13h58.04.507,phx_ver10,2022.2.5,Win32,4.999075171,,,,,,,,,,,,117,testing_3,sh2x,i,sh2x_i,sh2x_1_ishi.wav,sh2x_1_ishi.wav,,TRUE,FALSE,,,,,,,,,,,,,,f,0.2534,space,0.9652,,,,,,,,0,109,109,116,1,,
63dcf52406a122c6bdcd054c,2023-06-16_13h58.04.507,phx_ver10,2022.2.5,Win32,4.999075171,,,,,,,,,,,,19,testing_2,zh2x,au,zh2x_au,zh2x_1_auzhau.wav,zh2x_8_auxau.wav,,FALSE,FALSE,,,,,,,,,,,,,,j,0.4698,space,1.1623,,,,,,,,0,110,110,18,1,,
63dcf52406a122c6bdcd054c,2023-06-16_13h58.04.507,phx_ver10,2022.2.5,Win32,4.999075171,,,,,,,,,,,,18,testing_2,zh2x,au,zh2x_au,zh2x_8_auxau.wav,zh2x_8_auxau.wav,,TRUE,FALSE,,,,,,,,,,,,,,f,0.5056,space,1.4677,,,,,,,,0,111,111,17,1,,
63dcf52406a122c6bdcd054c,2023-06-16_13h58.04.507,phx_ver10,2022.2.5,Win32,4.999075171,,,,,,,,,,,,83,testing_3,j2x,au,j2x_au,j2x_1_aujau.wav,j2x_8_auxau.wav,,FALSE,FALSE,,,,,,,,,,,,,,j,0.2581,space,0.9579,,,,,,,,0,112,112,82,1,,
63dcf52406a122c6bdcd054c,2023-06-16_13h58.04.507,phx_ver10,2022.2.5,Win32,4.999075171,,,,,,,,,,,,53,testing_3,zh2j,ai,zh2j_ai,zh2j_1_aizhai.wav,zh2j_1_aizhai.wav,,TRUE,FALSE,,,,,,,,,,,,,,f,0.4716,space,1.1671,,,,,,,,0,113,113,52,1,,
63dcf52406a122c6bdcd054c,2023-06-16_13h58.04.507,phx_ver10,2022.2.5,Win32,4.999075171,,,,,,,,,,,,110,testing_3,sh2x,e,sh2x_e,sh2x_8_exe.wav,sh2x_8_exe.wav,,TRUE,FALSE,,,,,,,,,,,,,,f,0.2449,space,1.1741,,,,,,,,0,114,114,109,1,,
63dcf52406a122c6bdcd054c,2023-06-16_13h58.04.507,phx_ver10,2022.2.5,Win32,4.999075171,,,,,,,,,,,,124,testing_3,sh2j,a,sh2j_a,sh2j_8_aja.wav,sh2j_1_asha.wav,,FALSE,FALSE,,,,,,,,,,,,,,j,0.2402,space,1.1631,,,,,,,,0,115,115,123,1,,
63dcf52406a122c6bdcd054c,2023-06-16_13h58.04.507,phx_ver10,2022.2.5,Win32,4.999075171,,,,,,,,,,,,78,testing_3,j2x,ai,j2x_ai,j2x_8_aixai.wav,j2x_8_aixai.wav,,TRUE,FALSE,,,,,,,,,,,,,,f,0.237,space,1.1768,,,,,,,,0,116,116,77,1,,
63dcf52406a122c6bdcd054c,2023-06-16_13h58.04.507,phx_ver10,2022.2.5,Win32,4.999075171,,,,,,,,,,,,50,testing_3,zh2j,a,zh2j_a,zh2j_8_aja.wav,zh2j_8_aja.wav,,TRUE,FALSE,,,,,,,,,,,,,,f,0.4969,space,1.4371,,,,,,,,0,117,117,49,1,,
63dcf52406a122c6bdcd054c,2023-06-16_13h58.04.507,phx_ver10,2022.2.5,Win32,4.999075171,,,,,,,,,,,,31,testing_3,zh2sh,ai,zh2sh_ai,zh2sh_1_aizhai.wav,zh2sh_8_aishai.wav,,FALSE,FALSE,,,,,,,,,,,,,,j,0.2708,space,1.2363,,,,,,,,0,118,118,30,1,,
63dcf52406a122c6bdcd054c,2023-06-16_13h58.04.507,phx_ver10,2022.2.5,Win32,4.999075171,,,,,,,,,,,,48,testing_3,zh2sh,i,zh2sh_i,zh2sh_8_ishi.wav,zh2sh_1_izhi.wav,,FALSE,FALSE,,,,,,,,,,,,,,j,0.4791,space,1.1743,,,,,,,,0,119,119,47,1,,
63dcf52406a122c6bdcd054c,2023-06-16_13h58.04.507,phx_ver10,2022.2.5,Win32,4.999075171,,,,,,,,,,,,28,testing_3,zh2sh,a,zh2sh_a,zh2sh_8_asha.wav,zh2sh_1_azha.wav,,FALSE,FALSE,,,,,,,,,,,,,,j,0.2523,space,1.2035,,,,,,,,0,120,120,27,1,,
63dcf52406a122c6bdcd054c,2023-06-16_13h58.04.507,phx_ver10,2022.2.5,Win32,4.999075171,,,,,,,,,,,,140,testing_3,sh2j,ei,sh2j_ei,sh2j_8_eijei.wav,sh2j_1_eishei.wav,,FALSE,FALSE,,,,,,,,,,,,,,j,0.4902,space,1.2071,,,,,,,,0,121,121,139,1,,
63dcf52406a122c6bdcd054c,2023-06-16_13h58.04.507,phx_ver10,2022.2.5,Win32,4.999075171,,,,,,,,,,,,16,testing_2,zh2x,ai,zh2x_ai,zh2x_8_aixai.wav,zh2x_1_aizhai.wav,,FALSE,FALSE,,,,,,,,,,,,,,j,0.2486,space,0.9704,,,,,,,,0,122,122,15,1,,
63dcf52406a122c6bdcd054c,2023-06-16_13h58.04.507,phx_ver10,2022.2.5,Win32,4.999075171,,,,,,,,,,,,139,testing_3,sh2j,ei,sh2j_ei,sh2j_1_eishei.wav,sh2j_8_eijei.wav,,FALSE,FALSE,,,,,,,,,,,,,,j,0.2436,space,0.9395,,,,,,,,0,123,123,138,1,,
63dcf52406a122c6bdcd054c,2023-06-16_13h58.04.507,phx_ver10,2022.2.5,Win32,4.999075171,,,,,,,,,,,,142,testing_3,sh2j,i,sh2j_i,sh2j_8_iji.wav,sh2j_8_iji.wav,,TRUE,FALSE,,,,,,,,,,,,,,f,0.4821,space,1.162,,,,,,,,0,124,124,141,1,,
63dcf52406a122c6bdcd054c,2023-06-16_13h58.04.507,phx_ver10,2022.2.5,Win32,4.999075171,,,,,,,,,,,,119,testing_3,sh2x,i,sh2x_i,sh2x_1_ishi.wav,sh2x_8_ixi.wav,,FALSE,FALSE,,,,,,,,,,,,,,f,0.4972,space,1.2063,,,,,,,,0,125,125,118,1,,
63dcf52406a122c6bdcd054c,2023-06-16_13h58.04.507,phx_ver10,2022.2.5,Win32,4.999075171,,,,,,,,,,,,105,testing_3,sh2x,au,sh2x_au,sh2x_1_aushau.wav,sh2x_1_aushau.wav,,TRUE,FALSE,,,,,,,,,,,,,,f,0.9476,space,1.6549,,,,,,,,0,126,126,104,1,,
63dcf52406a122c6bdcd054c,2023-06-16_13h58.04.507,phx_ver10,2022.2.5,Win32,4.999075171,,,,,,,,,,,,56,testing_3,zh2j,ai,zh2j_ai,zh2j_8_aijai.wav,zh2j_1_aizhai.wav,,FALSE,FALSE,,,,,,,,,,,,,,f,0.4794,space,1.4141,,,,,,,,0,127,127,55,1,,
63dcf52406a122c6bdcd054c,2023-06-16_13h58.04.507,phx_ver10,2022.2.5,Win32,4.999075171,,,,,,,,,,,,3,testing_1,zh2x,a,zh2x_a,zh2x_1_azha.wav,zh2x_8_axa.wav,,FALSE,TRUE,,,,,,,,,,,,,,j,0.4885,space,1.264,,,,,,,,0,128,128,2,1,,
63dcf52406a122c6bdcd054c,2023-06-16_13h58.04.507,phx_ver10,2022.2.5,Win32,4.999075171,,,,,,,,,,,,66,testing_3,zh2j,ei,zh2j_ei,zh2j_8_eijei.wav,zh2j_8_eijei.wav,,TRUE,FALSE,,,,,,,,,,,,,,f,0.0137,space,0.4678,,,,,,,,0,129,129,65,1,,
63dcf52406a122c6bdcd054c,2023-06-16_13h58.04.507,phx_ver10,2022.2.5,Win32,4.999075171,,,,,,,,,,,,109,testing_3,sh2x,e,sh2x_e,sh2x_1_eshe.wav,sh2x_1_eshe.wav,,TRUE,FALSE,,,,,,,,,,,,,,f,0.4844,space,1.169,,,,,,,,0,130,130,108,1,,
63dcf52406a122c6bdcd054c,2023-06-16_13h58.04.507,phx_ver10,2022.2.5,Win32,4.999075171,,,,,,,,,,,,122,testing_3,sh2j,a,sh2j_a,sh2j_8_aja.wav,sh2j_8_aja.wav,,TRUE,FALSE,,,,,,,,,,,,,,f,0.4925,space,1.2032,,,,,,,,0,131,131,121,1,,
63dcf52406a122c6bdcd054c,2023-06-16_13h58.04.507,phx_ver10,2022.2.5,Win32,4.999075171,,,,,,,,,,,,137,testing_3,sh2j,ei,sh2j_ei,sh2j_1_eishei.wav,sh2j_1_eishei.wav,,TRUE,FALSE,,,,,,,,,,,,,,f,0.0149,space,0.4899,,,,,,,,0,132,132,136,1,,
63dcf52406a122c6bdcd054c,2023-06-16_13h58.04.507,phx_ver10,2022.2.5,Win32,4.999075171,,,,,,,,,,,,61,testing_3,zh2j,e,zh2j_e,zh2j_1_ezhe.wav,zh2j_1_ezhe.wav,,TRUE,FALSE,,,,,,,,,,,,,,f,0.2382,space,1.1989,,,,,,,,0,133,133,60,1,,
63dcf52406a122c6bdcd054c,2023-06-16_13h58.04.507,phx_ver10,2022.2.5,Win32,4.999075171,,,,,,,,,,,,2,testing_1,zh2x,a,zh2x_a,zh2x_8_axa.wav,zh2x_8_axa_copy.wav,,TRUE,TRUE,,,,,,,,,,,,,,f,0.5016,space,1.2119,,,,,,,,0,134,134,1,1,,
63dcf52406a122c6bdcd054c,2023-06-16_13h58.04.507,phx_ver10,2022.2.5,Win32,4.999075171,,,,,,,,,,,,6,testing_1,zh2x,e,zh2x_e,zh2x_8_exe.wav,zh2x_8_exe_copy.wav,,TRUE,TRUE,,,,,,,,,,,,,,f,0.483,space,1.3939,,,,,,,,0,135,135,5,1,,
63dcf52406a122c6bdcd054c,2023-06-16_13h58.04.507,phx_ver10,2022.2.5,Win32,4.999075171,,,,,,,,,,,,55,testing_3,zh2j,ai,zh2j_ai,zh2j_1_aizhai.wav,zh2j_8_aijai.wav,,FALSE,FALSE,,,,,,,,,,,,,,f,0.5129,space,1.4544,,,,,,,,0,136,136,54,1,,
63dcf52406a122c6bdcd054c,2023-06-16_13h58.04.507,phx_ver10,2022.2.5,Win32,4.999075171,,,,,,,,,,,,14,testing_2,zh2x,ai,zh2x_ai,zh2x_8_aixai.wav,zh2x_8_aixai.wav,,TRUE,FALSE,,,,,,,,,,,,,,f,0.2607,space,0.9757,,,,,,,,0,137,137,13,1,,
63dcf52406a122c6bdcd054c,2023-06-16_13h58.04.507,phx_ver10,2022.2.5,Win32,4.999075171,,,,,,,,,,,,88,testing_3,j2x,e,j2x_e,j2x_8_exe.wav,j2x_1_eje.wav,,FALSE,FALSE,,,,,,,,,,,,,,j,0.2558,space,0.4827,,,,,,,,0,138,138,87,1,,
63dcf52406a122c6bdcd054c,2023-06-16_13h58.04.507,phx_ver10,2022.2.5,Win32,4.999075171,,,,,,,,,,,,106,testing_3,sh2x,au,sh2x_au,sh2x_8_auxau.wav,sh2x_8_auxau.wav,,TRUE,FALSE,,,,,,,,,,,,,,f,0.2692,space,1.2125,,,,,,,,0,139,139,105,1,,
63dcf52406a122c6bdcd054c,2023-06-16_13h58.04.507,phx_ver10,2022.2.5,Win32,4.999075171,,,,,,,,,,,,71,testing_3,zh2j,i,zh2j_i,zh2j_1_izhi.wav,zh2j_8_iji.wav,,FALSE,FALSE,,,,,,,,,,,,,,f,0.4759,space,1.4155,,,,,,,,0,140,140,70,1,,
63dcf52406a122c6bdcd054c,2023-06-16_13h58.04.507,phx_ver10,2022.2.5,Win32,4.999075171,,,,,,,,,,,,112,testing_3,sh2x,e,sh2x_e,sh2x_8_exe.wav,sh2x_1_eshe.wav,,FALSE,FALSE,,,,,,,,,,,,,,f,0.4829,space,1.6273,,,,,,,,0,141,141,111,1,,
63dcf52406a122c6bdcd054c,2023-06-16_13h58.04.507,phx_ver10,2022.2.5,Win32,4.999075171,,,,,,,,,,,,93,testing_3,j2x,i,j2x_i,j2x_1_iji.wav,j2x_1_iji.wav,,TRUE,FALSE,,,,,,,,,,,,,,f,0.716,space,1.403,,,,,,,,0,142,142,92,1,,
63dcf52406a122c6bdcd054c,2023-06-16_13h58.04.507,phx_ver10,2022.2.5,Win32,4.999075171,,,,,,,,,,,,1,testing_1,zh2x,a,zh2x_a,zh2x_1_azha.wav,zh2x_1_azha_copy.wav,,TRUE,TRUE,,,,,,,,,,,,,,f,0.4764,space,1.2032,,,,,,,,0,143,143,0,1,,
63dcf52406a122c6bdcd054c,2023-06-16_13h58.04.507,phx_ver10,2022.2.5,Win32,4.999075171,,,,,,,,,,,,,,,,,,,,,,,,,,,,,,,,,,,,,,,,,,,,,,,,,,,space,3.244
