participant,date,expName,psychopyVersion,OS,frameRate,space_1.keys,space_1.rt,space_2.keys,space_2.rt,space_train.keys,space_train.rt,training.thisRepN,training.thisTrialN,training.thisN,training.thisIndex,training.ran,token_id,task,continuum,vowel,series,sound_1,sound_2,img,same,trained,FJ_attn.keys,FJ_attn.rt,space_attn.keys,space_attn.rt,if_attn_test.thisRepN,if_attn_test.thisTrialN,if_attn_test.thisN,if_attn_test.thisIndex,if_attn_test.ran,space_trans_1.keys,space_trans_1.rt,space_trans_11.keys,space_trans_11.rt,FJ_test.keys,FJ_test.rt,space_test.keys,space_test.rt,testing_pre.thisRepN,testing_pre.thisTrialN,testing_pre.thisN,testing_pre.thisIndex,testing_pre.ran,space_trans_2.keys,space_trans_2.rt,testing_all.thisRepN,testing_all.thisTrialN,testing_all.thisN,testing_all.thisIndex,testing_all.ran,space_ending.keys,space_ending.rt
63e529b9c964037317069e6e,2023-06-16_10h16.22.460,phx_ver10,2022.2.5,Win32,60.48874909,,,,,,,,,,,,,,,,,,,,,,,,,,,,,,,,,,,,,,,,,,,,,,,,,,,,
63e529b9c964037317069e6e,2023-06-16_10h16.22.460,phx_ver10,2022.2.5,Win32,60.48874909,space,3.7968,,,,,,,,,,,,,,,,,,,,,,,,,,,,,,,,,,,,,,,,,,,,,,,,,,
63e529b9c964037317069e6e,2023-06-16_10h16.22.460,phx_ver10,2022.2.5,Win32,60.48874909,,,space,5.6166,,,,,,,,,,,,,,,,,,,,,,,,,,,,,,,,,,,,,,,,,,,,,,,,
63e529b9c964037317069e6e,2023-06-16_10h16.22.460,phx_ver10,2022.2.5,Win32,60.48874909,,,,,space,1.6343,0,0,0,14,1,15,training,zh2x,a,zh2x_a,zh2x_7_axa.wav,,axa.jpg,,,,,,,,,,,,,,,,,,,,,,,,,,,,,,,,,
63e529b9c964037317069e6e,2023-06-16_10h16.22.460,phx_ver10,2022.2.5,Win32,60.48874909,,,,,space,0.676,0,1,1,41,1,42,training,zh2x,i,zh2x_i,zh2x_6_ixi.wav,,ixi.jpg,,,,,,,,,,,,,,,,,,,,,,,,,,,,,,,,,
63e529b9c964037317069e6e,2023-06-16_10h16.22.460,phx_ver10,2022.2.5,Win32,60.48874909,,,,,space,1.0416,0,2,2,47,1,48,training,zh2x,i,zh2x_i,zh2x_8_ixi.wav,,ixi.jpg,,,,,,,,,,,,,,,,,,,,,,,,,,,,,,,,,
63e529b9c964037317069e6e,2023-06-16_10h16.22.460,phx_ver10,2022.2.5,Win32,60.48874909,,,,,space,0.6336,0,3,3,13,1,14,training,zh2x,a,zh2x_a,zh2x_7_axa.wav,,axa.jpg,,,,,,,,,,,,,,,,,,,,,,,,,,,,,,,,,
63e529b9c964037317069e6e,2023-06-16_10h16.22.460,phx_ver10,2022.2.5,Win32,60.48874909,,,,,space,3.7646,0,4,4,8,1,9,training,zh2x,a,zh2x_a,zh2x_5_axa.wav,,axa.jpg,,,,,,,,,,,,,,,,,,,,,,,,,,,,,,,,,
63e529b9c964037317069e6e,2023-06-16_10h16.22.460,phx_ver10,2022.2.5,Win32,60.48874909,,,,,space,0.4129,0,5,5,29,1,30,training,zh2x,e,zh2x_e,zh2x_7_exe.wav,,exe.jpg,,,,,,,,,,,,,,,,,,,,,,,,,,,,,,,,,
63e529b9c964037317069e6e,2023-06-16_10h16.22.460,phx_ver10,2022.2.5,Win32,60.48874909,,,,,,,,,,,,,attn_test,,,,zh2x_1_izhi.wav,zh2x_8_ixi.wav,ixi.jpg,RIGHT,,j,3.2828,space,4.9,0,0,0,0,1,,,,,,,,,,,,,,,,,,,,,,
63e529b9c964037317069e6e,2023-06-16_10h16.22.460,phx_ver10,2022.2.5,Win32,60.48874909,,,,,space,1.2154,0,6,6,4,1,5,training,zh2x,a,zh2x_a,zh2x_2_azha.wav,,azha.jpg,,,,,,,,,,,,,,,,,,,,,,,,,,,,,,,,,
63e529b9c964037317069e6e,2023-06-16_10h16.22.460,phx_ver10,2022.2.5,Win32,60.48874909,,,,,space,0.6108,0,7,7,37,1,38,training,zh2x,i,zh2x_i,zh2x_3_izhi.wav,,izhi.jpg,,,,,,,,,,,,,,,,,,,,,,,,,,,,,,,,,
63e529b9c964037317069e6e,2023-06-16_10h16.22.460,phx_ver10,2022.2.5,Win32,60.48874909,,,,,space,0.4296,0,8,8,33,1,34,training,zh2x,i,zh2x_i,zh2x_2_izhi.wav,,izhi.jpg,,,,,,,,,,,,,,,,,,,,,,,,,,,,,,,,,
63e529b9c964037317069e6e,2023-06-16_10h16.22.460,phx_ver10,2022.2.5,Win32,60.48874909,,,,,space,0.4424,0,9,9,10,1,11,training,zh2x,a,zh2x_a,zh2x_6_axa.wav,,axa.jpg,,,,,,,,,,,,,,,,,,,,,,,,,,,,,,,,,
63e529b9c964037317069e6e,2023-06-16_10h16.22.460,phx_ver10,2022.2.5,Win32,60.48874909,,,,,space,0.4743,0,10,10,28,1,29,training,zh2x,e,zh2x_e,zh2x_7_exe.wav,,exe.jpg,,,,,,,,,,,,,,,,,,,,,,,,,,,,,,,,,
63e529b9c964037317069e6e,2023-06-16_10h16.22.460,phx_ver10,2022.2.5,Win32,60.48874909,,,,,space,0.2444,0,11,11,36,1,37,training,zh2x,i,zh2x_i,zh2x_2_izhi.wav,,izhi.jpg,,,,,,,,,,,,,,,,,,,,,,,,,,,,,,,,,
63e529b9c964037317069e6e,2023-06-16_10h16.22.460,phx_ver10,2022.2.5,Win32,60.48874909,,,,,,,,,,,,,attn_test,,,,zh2x_8_ixi.wav,zh2x_1_izhi.wav,izhi.jpg,RIGHT,,j,3.4798,space,3.8226,0,0,0,0,1,,,,,,,,,,,,,,,,,,,,,,
63e529b9c964037317069e6e,2023-06-16_10h16.22.460,phx_ver10,2022.2.5,Win32,60.48874909,,,,,space,0.468,0,12,12,12,1,13,training,zh2x,a,zh2x_a,zh2x_7_axa.wav,,axa.jpg,,,,,,,,,,,,,,,,,,,,,,,,,,,,,,,,,
63e529b9c964037317069e6e,2023-06-16_10h16.22.460,phx_ver10,2022.2.5,Win32,60.48874909,,,,,space,0.36,0,13,13,24,1,25,training,zh2x,e,zh2x_e,zh2x_5_exe.wav,,exe.jpg,,,,,,,,,,,,,,,,,,,,,,,,,,,,,,,,,
63e529b9c964037317069e6e,2023-06-16_10h16.22.460,phx_ver10,2022.2.5,Win32,60.48874909,,,,,space,0.0956,0,14,14,25,1,26,training,zh2x,e,zh2x_e,zh2x_6_exe.wav,,exe.jpg,,,,,,,,,,,,,,,,,,,,,,,,,,,,,,,,,
63e529b9c964037317069e6e,2023-06-16_10h16.22.460,phx_ver10,2022.2.5,Win32,60.48874909,,,,,space,0.1306,0,15,15,43,1,44,training,zh2x,i,zh2x_i,zh2x_7_ixi.wav,,ixi.jpg,,,,,,,,,,,,,,,,,,,,,,,,,,,,,,,,,
63e529b9c964037317069e6e,2023-06-16_10h16.22.460,phx_ver10,2022.2.5,Win32,60.48874909,,,,,space,0.0807,0,16,16,15,1,16,training,zh2x,a,zh2x_a,zh2x_8_axa.wav,,axa.jpg,,,,,,,,,,,,,,,,,,,,,,,,,,,,,,,,,
63e529b9c964037317069e6e,2023-06-16_10h16.22.460,phx_ver10,2022.2.5,Win32,60.48874909,,,,,space,0.0745,0,17,17,30,1,31,training,zh2x,e,zh2x_e,zh2x_7_exe.wav,,exe.jpg,,,,,,,,,,,,,,,,,,,,,,,,,,,,,,,,,
63e529b9c964037317069e6e,2023-06-16_10h16.22.460,phx_ver10,2022.2.5,Win32,60.48874909,,,,,,,,,,,,,attn_test,,,,zh2x_8_axa.wav,zh2x_8_exe.wav,axa.jpg,LEFT,,f,4.8707,space,5.2161,0,0,0,0,1,,,,,,,,,,,,,,,,,,,,,,
63e529b9c964037317069e6e,2023-06-16_10h16.22.460,phx_ver10,2022.2.5,Win32,60.48874909,,,,,space,0.3174,0,18,18,5,1,6,training,zh2x,a,zh2x_a,zh2x_3_azha.wav,,azha.jpg,,,,,,,,,,,,,,,,,,,,,,,,,,,,,,,,,
63e529b9c964037317069e6e,2023-06-16_10h16.22.460,phx_ver10,2022.2.5,Win32,60.48874909,,,,,space,0.5767,0,19,19,38,1,39,training,zh2x,i,zh2x_i,zh2x_3_izhi.wav,,izhi.jpg,,,,,,,,,,,,,,,,,,,,,,,,,,,,,,,,,
63e529b9c964037317069e6e,2023-06-16_10h16.22.460,phx_ver10,2022.2.5,Win32,60.48874909,,,,,space,0.085,0,20,20,9,1,10,training,zh2x,a,zh2x_a,zh2x_6_axa.wav,,axa.jpg,,,,,,,,,,,,,,,,,,,,,,,,,,,,,,,,,
63e529b9c964037317069e6e,2023-06-16_10h16.22.460,phx_ver10,2022.2.5,Win32,60.48874909,,,,,space,0.7166,0,21,21,2,1,3,training,zh2x,a,zh2x_a,zh2x_2_azha.wav,,azha.jpg,,,,,,,,,,,,,,,,,,,,,,,,,,,,,,,,,
63e529b9c964037317069e6e,2023-06-16_10h16.22.460,phx_ver10,2022.2.5,Win32,60.48874909,,,,,space,0.3642,0,22,22,7,1,8,training,zh2x,a,zh2x_a,zh2x_4_azha.wav,,azha.jpg,,,,,,,,,,,,,,,,,,,,,,,,,,,,,,,,,
63e529b9c964037317069e6e,2023-06-16_10h16.22.460,phx_ver10,2022.2.5,Win32,60.48874909,,,,,space,0.0674,0,23,23,1,1,2,training,zh2x,a,zh2x_a,zh2x_2_azha.wav,,azha.jpg,,,,,,,,,,,,,,,,,,,,,,,,,,,,,,,,,
63e529b9c964037317069e6e,2023-06-16_10h16.22.460,phx_ver10,2022.2.5,Win32,60.48874909,,,,,,,,,,,,,attn_test,,,,zh2x_1_azha.wav,zh2x_8_ixi.wav,azha.jpg,LEFT,,f,0.391,space,0.8839,0,0,0,0,1,,,,,,,,,,,,,,,,,,,,,,
63e529b9c964037317069e6e,2023-06-16_10h16.22.460,phx_ver10,2022.2.5,Win32,60.48874909,,,,,space,0.5237,0,24,24,44,1,45,training,zh2x,i,zh2x_i,zh2x_7_ixi.wav,,ixi.jpg,,,,,,,,,,,,,,,,,,,,,,,,,,,,,,,,,
63e529b9c964037317069e6e,2023-06-16_10h16.22.460,phx_ver10,2022.2.5,Win32,60.48874909,,,,,space,0.4812,0,25,25,35,1,36,training,zh2x,i,zh2x_i,zh2x_2_izhi.wav,,izhi.jpg,,,,,,,,,,,,,,,,,,,,,,,,,,,,,,,,,
63e529b9c964037317069e6e,2023-06-16_10h16.22.460,phx_ver10,2022.2.5,Win32,60.48874909,,,,,space,0.3242,0,26,26,3,1,4,training,zh2x,a,zh2x_a,zh2x_2_azha.wav,,azha.jpg,,,,,,,,,,,,,,,,,,,,,,,,,,,,,,,,,
63e529b9c964037317069e6e,2023-06-16_10h16.22.460,phx_ver10,2022.2.5,Win32,60.48874909,,,,,space,0.4996,0,27,27,20,1,21,training,zh2x,e,zh2x_e,zh2x_2_ezhe.wav,,ezhe.jpg,,,,,,,,,,,,,,,,,,,,,,,,,,,,,,,,,
63e529b9c964037317069e6e,2023-06-16_10h16.22.460,phx_ver10,2022.2.5,Win32,60.48874909,,,,,space,0.1337,0,28,28,21,1,22,training,zh2x,e,zh2x_e,zh2x_3_ezhe.wav,,ezhe.jpg,,,,,,,,,,,,,,,,,,,,,,,,,,,,,,,,,
63e529b9c964037317069e6e,2023-06-16_10h16.22.460,phx_ver10,2022.2.5,Win32,60.48874909,,,,,space,0.6685,0,29,29,17,1,18,training,zh2x,e,zh2x_e,zh2x_2_ezhe.wav,,ezhe.jpg,,,,,,,,,,,,,,,,,,,,,,,,,,,,,,,,,
63e529b9c964037317069e6e,2023-06-16_10h16.22.460,phx_ver10,2022.2.5,Win32,60.48874909,,,,,,,,,,,,,attn_test,,,,zh2x_8_axa.wav,zh2x_1_izhi.wav,izhi.jpg,RIGHT,,f,1.2194,space,3.2579,0,0,0,0,1,,,,,,,,,,,,,,,,,,,,,,
63e529b9c964037317069e6e,2023-06-16_10h16.22.460,phx_ver10,2022.2.5,Win32,60.48874909,,,,,space,0.4852,0,30,30,6,1,7,training,zh2x,a,zh2x_a,zh2x_3_azha.wav,,azha.jpg,,,,,,,,,,,,,,,,,,,,,,,,,,,,,,,,,
63e529b9c964037317069e6e,2023-06-16_10h16.22.460,phx_ver10,2022.2.5,Win32,60.48874909,,,,,space,0.7835,0,31,31,18,1,19,training,zh2x,e,zh2x_e,zh2x_2_ezhe.wav,,ezhe.jpg,,,,,,,,,,,,,,,,,,,,,,,,,,,,,,,,,
63e529b9c964037317069e6e,2023-06-16_10h16.22.460,phx_ver10,2022.2.5,Win32,60.48874909,,,,,space,0.367,0,32,32,31,1,32,training,zh2x,e,zh2x_e,zh2x_8_exe.wav,,exe.jpg,,,,,,,,,,,,,,,,,,,,,,,,,,,,,,,,,
63e529b9c964037317069e6e,2023-06-16_10h16.22.460,phx_ver10,2022.2.5,Win32,60.48874909,,,,,space,0.3877,0,33,33,45,1,46,training,zh2x,i,zh2x_i,zh2x_7_ixi.wav,,ixi.jpg,,,,,,,,,,,,,,,,,,,,,,,,,,,,,,,,,
63e529b9c964037317069e6e,2023-06-16_10h16.22.460,phx_ver10,2022.2.5,Win32,60.48874909,,,,,space,0.4308,0,34,34,26,1,27,training,zh2x,e,zh2x_e,zh2x_6_exe.wav,,exe.jpg,,,,,,,,,,,,,,,,,,,,,,,,,,,,,,,,,
63e529b9c964037317069e6e,2023-06-16_10h16.22.460,phx_ver10,2022.2.5,Win32,60.48874909,,,,,space,0.36,0,35,35,46,1,47,training,zh2x,i,zh2x_i,zh2x_7_ixi.wav,,ixi.jpg,,,,,,,,,,,,,,,,,,,,,,,,,,,,,,,,,
63e529b9c964037317069e6e,2023-06-16_10h16.22.460,phx_ver10,2022.2.5,Win32,60.48874909,,,,,,,,,,,,,attn_test,,,,zh2x_1_ezhe.wav,zh2x_8_exe.wav,ezhe.jpg,LEFT,,f,1.0955,space,1.4083,0,0,0,0,1,,,,,,,,,,,,,,,,,,,,,,
63e529b9c964037317069e6e,2023-06-16_10h16.22.460,phx_ver10,2022.2.5,Win32,60.48874909,,,,,space,0.6174,0,36,36,11,1,12,training,zh2x,a,zh2x_a,zh2x_7_axa.wav,,axa.jpg,,,,,,,,,,,,,,,,,,,,,,,,,,,,,,,,,
63e529b9c964037317069e6e,2023-06-16_10h16.22.460,phx_ver10,2022.2.5,Win32,60.48874909,,,,,space,0.6131,0,37,37,27,1,28,training,zh2x,e,zh2x_e,zh2x_7_exe.wav,,exe.jpg,,,,,,,,,,,,,,,,,,,,,,,,,,,,,,,,,
63e529b9c964037317069e6e,2023-06-16_10h16.22.460,phx_ver10,2022.2.5,Win32,60.48874909,,,,,space,0.9413,0,38,38,19,1,20,training,zh2x,e,zh2x_e,zh2x_2_ezhe.wav,,ezhe.jpg,,,,,,,,,,,,,,,,,,,,,,,,,,,,,,,,,
63e529b9c964037317069e6e,2023-06-16_10h16.22.460,phx_ver10,2022.2.5,Win32,60.48874909,,,,,space,0.1683,0,39,39,32,1,33,training,zh2x,i,zh2x_i,zh2x_1_izhi.wav,,izhi.jpg,,,,,,,,,,,,,,,,,,,,,,,,,,,,,,,,,
63e529b9c964037317069e6e,2023-06-16_10h16.22.460,phx_ver10,2022.2.5,Win32,60.48874909,,,,,space,0.5683,0,40,40,39,1,40,training,zh2x,i,zh2x_i,zh2x_4_izhi.wav,,izhi.jpg,,,,,,,,,,,,,,,,,,,,,,,,,,,,,,,,,
63e529b9c964037317069e6e,2023-06-16_10h16.22.460,phx_ver10,2022.2.5,Win32,60.48874909,,,,,space,0.5068,0,41,41,42,1,43,training,zh2x,i,zh2x_i,zh2x_6_ixi.wav,,ixi.jpg,,,,,,,,,,,,,,,,,,,,,,,,,,,,,,,,,
63e529b9c964037317069e6e,2023-06-16_10h16.22.460,phx_ver10,2022.2.5,Win32,60.48874909,,,,,,,,,,,,,attn_test,,,,zh2x_1_izhi.wav,zh2x_8_exe.wav,exe.jpg,RIGHT,,j,0.1672,space,0.5669,0,0,0,0,1,,,,,,,,,,,,,,,,,,,,,,
63e529b9c964037317069e6e,2023-06-16_10h16.22.460,phx_ver10,2022.2.5,Win32,60.48874909,,,,,space,0.5213,0,42,42,34,1,35,training,zh2x,i,zh2x_i,zh2x_2_izhi.wav,,izhi.jpg,,,,,,,,,,,,,,,,,,,,,,,,,,,,,,,,,
63e529b9c964037317069e6e,2023-06-16_10h16.22.460,phx_ver10,2022.2.5,Win32,60.48874909,,,,,space,0.3458,0,43,43,40,1,41,training,zh2x,i,zh2x_i,zh2x_5_ixi.wav,,ixi.jpg,,,,,,,,,,,,,,,,,,,,,,,,,,,,,,,,,
63e529b9c964037317069e6e,2023-06-16_10h16.22.460,phx_ver10,2022.2.5,Win32,60.48874909,,,,,space,0.4743,0,44,44,22,1,23,training,zh2x,e,zh2x_e,zh2x_3_ezhe.wav,,ezhe.jpg,,,,,,,,,,,,,,,,,,,,,,,,,,,,,,,,,
63e529b9c964037317069e6e,2023-06-16_10h16.22.460,phx_ver10,2022.2.5,Win32,60.48874909,,,,,space,1.0555,0,45,45,23,1,24,training,zh2x,e,zh2x_e,zh2x_4_ezhe.wav,,ezhe.jpg,,,,,,,,,,,,,,,,,,,,,,,,,,,,,,,,,
63e529b9c964037317069e6e,2023-06-16_10h16.22.460,phx_ver10,2022.2.5,Win32,60.48874909,,,,,space,0.1849,0,46,46,16,1,17,training,zh2x,e,zh2x_e,zh2x_1_ezhe.wav,,ezhe.jpg,,,,,,,,,,,,,,,,,,,,,,,,,,,,,,,,,
63e529b9c964037317069e6e,2023-06-16_10h16.22.460,phx_ver10,2022.2.5,Win32,60.48874909,,,,,space,0.4157,0,47,47,0,1,1,training,zh2x,a,zh2x_a,zh2x_1_azha.wav,,azha.jpg,,,,,,,,,,,,,,,,,,,,,,,,,,,,,,,,,
63e529b9c964037317069e6e,2023-06-16_10h16.22.460,phx_ver10,2022.2.5,Win32,60.48874909,,,,,,,,,,,,,attn_test,,,,zh2x_8_axa.wav,zh2x_1_ezhe.wav,ezhe.jpg,RIGHT,,j,0.0917,space,0.4496,,,,,,,,,,,,,,,,,,,,,,,,,,,
63e529b9c964037317069e6e,2023-06-16_10h16.22.460,phx_ver10,2022.2.5,Win32,60.48874909,,,,,,,,,,,,,,,,,,,,,,,,,,,,,,,space,3.2162,,,,,,,,,,,,,,,,,,,,
63e529b9c964037317069e6e,2023-06-16_10h16.22.460,phx_ver10,2022.2.5,Win32,60.48874909,,,,,,,,,,,,,,,,,,,,,,,,,,,,,,,,,space,12.7665,,,,,,,,,,,,,,,,,,
63e529b9c964037317069e6e,2023-06-16_10h16.22.460,phx_ver10,2022.2.5,Win32,60.48874909,,,,,,,,,,,,4,testing_pre,,,,eihei.wav,eihei.wav,,TRUE,,,,,,,,,,,,,,,f,2.2334,space,3.2357,0,0,0,3,1,,,,,,,,,
63e529b9c964037317069e6e,2023-06-16_10h16.22.460,phx_ver10,2022.2.5,Win32,60.48874909,,,,,,,,,,,,1,testing_pre,,,,ifi.wav,ifi.wav,,TRUE,,,,,,,,,,,,,,,f,0.5671,space,1.8671,0,1,1,0,1,,,,,,,,,
63e529b9c964037317069e6e,2023-06-16_10h16.22.460,phx_ver10,2022.2.5,Win32,60.48874909,,,,,,,,,,,,2,testing_pre,,,,auhau.wav,aufau.wav,,FALSE,,,,,,,,,,,,,,,f,0.5679,space,1.3514,0,2,2,1,1,,,,,,,,,
63e529b9c964037317069e6e,2023-06-16_10h16.22.460,phx_ver10,2022.2.5,Win32,60.48874909,,,,,,,,,,,,5,testing_pre,,,,ihi.wav,ifi.wav,,FALSE,,,,,,,,,,,,,,,f,1.2187,space,2.4493,0,3,3,4,1,,,,,,,,,
63e529b9c964037317069e6e,2023-06-16_10h16.22.460,phx_ver10,2022.2.5,Win32,60.48874909,,,,,,,,,,,,3,testing_pre,,,,afa.wav,aha.wav,,FALSE,,,,,,,,,,,,,,,j,0.0979,space,0.4479,0,4,4,2,1,,,,,,,,,
63e529b9c964037317069e6e,2023-06-16_10h16.22.460,phx_ver10,2022.2.5,Win32,60.48874909,,,,,,,,,,,,,,,,,,,,,,,,,,,,,,,,,,,,,,,,,,,,space,1.5923,,,,,,,
63e529b9c964037317069e6e,2023-06-16_10h16.22.460,phx_ver10,2022.2.5,Win32,60.48874909,,,,,,,,,,,,49,testing_3,zh2j,a,zh2j_a,zh2j_1_azha.wav,zh2j_1_azha.wav,,TRUE,FALSE,,,,,,,,,,,,,,f,1.0838,space,3.9169,,,,,,,,0,0,0,48,1,,
63e529b9c964037317069e6e,2023-06-16_10h16.22.460,phx_ver10,2022.2.5,Win32,60.48874909,,,,,,,,,,,,55,testing_3,zh2j,ai,zh2j_ai,zh2j_1_aizhai.wav,zh2j_8_aijai.wav,,FALSE,FALSE,,,,,,,,,,,,,,f,6.2194,space,7.9005,,,,,,,,0,1,1,54,1,,
63e529b9c964037317069e6e,2023-06-16_10h16.22.460,phx_ver10,2022.2.5,Win32,60.48874909,,,,,,,,,,,,133,testing_3,sh2j,e,sh2j_e,sh2j_1_eshe.wav,sh2j_1_eshe.wav,,TRUE,FALSE,,,,,,,,,,,,,,f,0.3436,space,0.6341,,,,,,,,0,2,2,132,1,,
63e529b9c964037317069e6e,2023-06-16_10h16.22.460,phx_ver10,2022.2.5,Win32,60.48874909,,,,,,,,,,,,24,testing_2,zh2x,ei,zh2x_ei,zh2x_8_eixei.wav,zh2x_1_eizhei.wav,,FALSE,FALSE,,,,,,,,,,,,,,j,0.3864,space,0.7318,,,,,,,,0,3,3,23,1,,
63e529b9c964037317069e6e,2023-06-16_10h16.22.460,phx_ver10,2022.2.5,Win32,60.48874909,,,,,,,,,,,,80,testing_3,j2x,ai,j2x_ai,j2x_8_aixai.wav,j2x_1_aijai.wav,,FALSE,FALSE,,,,,,,,,,,,,,j,0.0999,space,0.6171,,,,,,,,0,4,4,79,1,,
63e529b9c964037317069e6e,2023-06-16_10h16.22.460,phx_ver10,2022.2.5,Win32,60.48874909,,,,,,,,,,,,121,testing_3,sh2j,a,sh2j_a,sh2j_1_asha.wav,sh2j_1_asha.wav,,TRUE,FALSE,,,,,,,,,,,,,,f,0.1176,space,0.5181,,,,,,,,0,5,5,120,1,,
63e529b9c964037317069e6e,2023-06-16_10h16.22.460,phx_ver10,2022.2.5,Win32,60.48874909,,,,,,,,,,,,43,testing_3,zh2sh,ei,zh2sh_ei,zh2sh_1_eizhei.wav,zh2sh_8_eishei.wav,,FALSE,FALSE,,,,,,,,,,,,,,j,0.0676,space,0.4208,,,,,,,,0,6,6,42,1,,
63e529b9c964037317069e6e,2023-06-16_10h16.22.460,phx_ver10,2022.2.5,Win32,60.48874909,,,,,,,,,,,,54,testing_3,zh2j,ai,zh2j_ai,zh2j_8_aijai.wav,zh2j_8_aijai.wav,,TRUE,FALSE,,,,,,,,,,,,,,f,0.1982,space,0.514,,,,,,,,0,7,7,53,1,,
63e529b9c964037317069e6e,2023-06-16_10h16.22.460,phx_ver10,2022.2.5,Win32,60.48874909,,,,,,,,,,,,35,testing_3,zh2sh,au,zh2sh_au,zh2sh_1_auzhau.wav,zh2sh_8_aushau.wav,,FALSE,FALSE,,,,,,,,,,,,,,j,0.3337,space,0.5856,,,,,,,,0,8,8,34,1,,
63e529b9c964037317069e6e,2023-06-16_10h16.22.460,phx_ver10,2022.2.5,Win32,60.48874909,,,,,,,,,,,,92,testing_3,j2x,ei,j2x_ei,j2x_8_eixei.wav,j2x_1_eijei.wav,,FALSE,FALSE,,,,,,,,,,,,,,j,0.7666,space,1.0878,,,,,,,,0,9,9,91,1,,
63e529b9c964037317069e6e,2023-06-16_10h16.22.460,phx_ver10,2022.2.5,Win32,60.48874909,,,,,,,,,,,,31,testing_3,zh2sh,ai,zh2sh_ai,zh2sh_1_aizhai.wav,zh2sh_8_aishai.wav,,FALSE,FALSE,,,,,,,,,,,,,,j,0.241,space,0.4962,,,,,,,,0,10,10,30,1,,
63e529b9c964037317069e6e,2023-06-16_10h16.22.460,phx_ver10,2022.2.5,Win32,60.48874909,,,,,,,,,,,,131,testing_3,sh2j,au,sh2j_au,sh2j_1_aushau.wav,sh2j_8_aujau.wav,,FALSE,FALSE,,,,,,,,,,,,,,j,0.0512,space,0.4377,,,,,,,,0,11,11,130,1,,
63e529b9c964037317069e6e,2023-06-16_10h16.22.460,phx_ver10,2022.2.5,Win32,60.48874909,,,,,,,,,,,,108,testing_3,sh2x,au,sh2x_au,sh2x_8_auxau.wav,sh2x_1_aushau.wav,,FALSE,FALSE,,,,,,,,,,,,,,f,0.4007,space,0.5844,,,,,,,,0,12,12,107,1,,
63e529b9c964037317069e6e,2023-06-16_10h16.22.460,phx_ver10,2022.2.5,Win32,60.48874909,,,,,,,,,,,,93,testing_3,j2x,i,j2x_i,j2x_1_iji.wav,j2x_1_iji.wav,,TRUE,FALSE,,,,,,,,,,,,,,f,0.2023,space,0.6004,,,,,,,,0,13,13,92,1,,
63e529b9c964037317069e6e,2023-06-16_10h16.22.460,phx_ver10,2022.2.5,Win32,60.48874909,,,,,,,,,,,,89,testing_3,j2x,ei,j2x_ei,j2x_1_eijei.wav,j2x_1_eijei.wav,,TRUE,FALSE,,,,,,,,,,,,,,f,0.0989,space,0.5175,,,,,,,,0,14,14,88,1,,
63e529b9c964037317069e6e,2023-06-16_10h16.22.460,phx_ver10,2022.2.5,Win32,60.48874909,,,,,,,,,,,,76,testing_3,j2x,a,j2x_a,j2x_8_axa.wav,j2x_1_aja.wav,,FALSE,FALSE,,,,,,,,,,,,,,j,0.2325,space,0.5503,,,,,,,,0,15,15,75,1,,
63e529b9c964037317069e6e,2023-06-16_10h16.22.460,phx_ver10,2022.2.5,Win32,60.48874909,,,,,,,,,,,,7,testing_1,zh2x,e,zh2x_e,zh2x_1_ezhe.wav,zh2x_8_exe.wav,,FALSE,TRUE,,,,,,,,,,,,,,j,0.1837,space,0.4596,,,,,,,,0,16,16,6,1,,
63e529b9c964037317069e6e,2023-06-16_10h16.22.460,phx_ver10,2022.2.5,Win32,60.48874909,,,,,,,,,,,,83,testing_3,j2x,au,j2x_au,j2x_1_aujau.wav,j2x_8_auxau.wav,,FALSE,FALSE,,,,,,,,,,,,,,j,0.0004,space,0.4337,,,,,,,,0,17,17,82,1,,
63e529b9c964037317069e6e,2023-06-16_10h16.22.460,phx_ver10,2022.2.5,Win32,60.48874909,,,,,,,,,,,,66,testing_3,zh2j,ei,zh2j_ei,zh2j_8_eijei.wav,zh2j_8_eijei.wav,,TRUE,FALSE,,,,,,,,,,,,,,f,0.3003,space,0.4505,,,,,,,,0,18,18,65,1,,
63e529b9c964037317069e6e,2023-06-16_10h16.22.460,phx_ver10,2022.2.5,Win32,60.48874909,,,,,,,,,,,,81,testing_3,j2x,au,j2x_au,j2x_1_aujau.wav,j2x_1_aujau.wav,,TRUE,FALSE,,,,,,,,,,,,,,f,0.0003,space,0.3478,,,,,,,,0,19,19,80,1,,
63e529b9c964037317069e6e,2023-06-16_10h16.22.460,phx_ver10,2022.2.5,Win32,60.48874909,,,,,,,,,,,,104,testing_3,sh2x,ai,sh2x_ai,sh2x_8_aixai.wav,sh2x_1_aishai.wav,,FALSE,FALSE,,,,,,,,,,,,,,j,0.2559,space,0.4934,,,,,,,,0,20,20,103,1,,
63e529b9c964037317069e6e,2023-06-16_10h16.22.460,phx_ver10,2022.2.5,Win32,60.48874909,,,,,,,,,,,,25,testing_3,zh2sh,a,zh2sh_a,zh2sh_1_azha.wav,zh2sh_1_azha.wav,,TRUE,FALSE,,,,,,,,,,,,,,f,0.6852,space,0.8337,,,,,,,,0,21,21,24,1,,
63e529b9c964037317069e6e,2023-06-16_10h16.22.460,phx_ver10,2022.2.5,Win32,60.48874909,,,,,,,,,,,,72,testing_3,zh2j,i,zh2j_i,zh2j_8_iji.wav,zh2j_1_izhi.wav,,FALSE,FALSE,,,,,,,,,,,,,,f,0.1478,space,0.4067,,,,,,,,0,22,22,71,1,,
63e529b9c964037317069e6e,2023-06-16_10h16.22.460,phx_ver10,2022.2.5,Win32,60.48874909,,,,,,,,,,,,14,testing_2,zh2x,ai,zh2x_ai,zh2x_8_aixai.wav,zh2x_8_aixai.wav,,TRUE,FALSE,,,,,,,,,,,,,,f,0.2998,space,0.474,,,,,,,,0,23,23,13,1,,
63e529b9c964037317069e6e,2023-06-16_10h16.22.460,phx_ver10,2022.2.5,Win32,60.48874909,,,,,,,,,,,,107,testing_3,sh2x,au,sh2x_au,sh2x_1_aushau.wav,sh2x_8_auxau.wav,,FALSE,FALSE,,,,,,,,,,,,,,f,0.0834,space,0.3381,,,,,,,,0,24,24,106,1,,
63e529b9c964037317069e6e,2023-06-16_10h16.22.460,phx_ver10,2022.2.5,Win32,60.48874909,,,,,,,,,,,,86,testing_3,j2x,e,j2x_e,j2x_8_exe.wav,j2x_8_exe.wav,,TRUE,FALSE,,,,,,,,,,,,,,f,0.0806,space,0.4087,,,,,,,,0,25,25,85,1,,
63e529b9c964037317069e6e,2023-06-16_10h16.22.460,phx_ver10,2022.2.5,Win32,60.48874909,,,,,,,,,,,,30,testing_3,zh2sh,ai,zh2sh_ai,zh2sh_8_aishai.wav,zh2sh_8_aishai.wav,,TRUE,FALSE,,,,,,,,,,,,,,f,0.4463,space,0.7621,,,,,,,,0,26,26,29,1,,
63e529b9c964037317069e6e,2023-06-16_10h16.22.460,phx_ver10,2022.2.5,Win32,60.48874909,,,,,,,,,,,,59,testing_3,zh2j,au,zh2j_au,zh2j_1_auzhau.wav,zh2j_8_aujau.wav,,FALSE,FALSE,,,,,,,,,,,,,,f,0.223,space,0.6169,,,,,,,,0,27,27,58,1,,
63e529b9c964037317069e6e,2023-06-16_10h16.22.460,phx_ver10,2022.2.5,Win32,60.48874909,,,,,,,,,,,,117,testing_3,sh2x,i,sh2x_i,sh2x_1_ishi.wav,sh2x_1_ishi.wav,,TRUE,FALSE,,,,,,,,,,,,,,f,0.0335,space,0.4764,,,,,,,,0,28,28,116,1,,
63e529b9c964037317069e6e,2023-06-16_10h16.22.460,phx_ver10,2022.2.5,Win32,60.48874909,,,,,,,,,,,,13,testing_2,zh2x,ai,zh2x_ai,zh2x_1_aizhai.wav,zh2x_1_aizhai.wav,,TRUE,FALSE,,,,,,,,,,,,,,f,0.33,space,0.5225,,,,,,,,0,29,29,12,1,,
63e529b9c964037317069e6e,2023-06-16_10h16.22.460,phx_ver10,2022.2.5,Win32,60.48874909,,,,,,,,,,,,112,testing_3,sh2x,e,sh2x_e,sh2x_8_exe.wav,sh2x_1_eshe.wav,,FALSE,FALSE,,,,,,,,,,,,,,f,0.292,space,0.4857,,,,,,,,0,30,30,111,1,,
63e529b9c964037317069e6e,2023-06-16_10h16.22.460,phx_ver10,2022.2.5,Win32,60.48874909,,,,,,,,,,,,78,testing_3,j2x,ai,j2x_ai,j2x_8_aixai.wav,j2x_8_aixai.wav,,TRUE,FALSE,,,,,,,,,,,,,,f,0.2169,space,0.5886,,,,,,,,0,31,31,77,1,,
63e529b9c964037317069e6e,2023-06-16_10h16.22.460,phx_ver10,2022.2.5,Win32,60.48874909,,,,,,,,,,,,64,testing_3,zh2j,e,zh2j_e,zh2j_8_eje.wav,zh2j_1_ezhe.wav,,FALSE,FALSE,,,,,,,,,,,,,,j,0.5043,space,0.7512,,,,,,,,0,32,32,63,1,,
63e529b9c964037317069e6e,2023-06-16_10h16.22.460,phx_ver10,2022.2.5,Win32,60.48874909,,,,,,,,,,,,110,testing_3,sh2x,e,sh2x_e,sh2x_8_exe.wav,sh2x_8_exe.wav,,TRUE,FALSE,,,,,,,,,,,,,,f,0.0671,space,0.4429,,,,,,,,0,33,33,109,1,,
63e529b9c964037317069e6e,2023-06-16_10h16.22.460,phx_ver10,2022.2.5,Win32,60.48874909,,,,,,,,,,,,58,testing_3,zh2j,au,zh2j_au,zh2j_8_aujau.wav,zh2j_8_aujau.wav,,TRUE,FALSE,,,,,,,,,,,,,,f,0.1661,space,0.5499,,,,,,,,0,34,34,57,1,,
63e529b9c964037317069e6e,2023-06-16_10h16.22.460,phx_ver10,2022.2.5,Win32,60.48874909,,,,,,,,,,,,99,testing_3,sh2x,a,sh2x_a,sh2x_1_asha.wav,sh2x_8_axa.wav,,FALSE,FALSE,,,,,,,,,,,,,,f,0.4676,space,0.6522,,,,,,,,0,35,35,98,1,,
63e529b9c964037317069e6e,2023-06-16_10h16.22.460,phx_ver10,2022.2.5,Win32,60.48874909,,,,,,,,,,,,40,testing_3,zh2sh,e,zh2sh_e,zh2sh_8_eshe.wav,zh2sh_1_ezhe.wav,,FALSE,FALSE,,,,,,,,,,,,,,j,0.0003,space,0.3836,,,,,,,,0,36,36,39,1,,
63e529b9c964037317069e6e,2023-06-16_10h16.22.460,phx_ver10,2022.2.5,Win32,60.48874909,,,,,,,,,,,,109,testing_3,sh2x,e,sh2x_e,sh2x_1_eshe.wav,sh2x_1_eshe.wav,,TRUE,FALSE,,,,,,,,,,,,,,f,0.3301,space,0.4678,,,,,,,,0,37,37,108,1,,
63e529b9c964037317069e6e,2023-06-16_10h16.22.460,phx_ver10,2022.2.5,Win32,60.48874909,,,,,,,,,,,,33,testing_3,zh2sh,au,zh2sh_au,zh2sh_1_auzhau.wav,zh2sh_1_auzhau.wav,,TRUE,FALSE,,,,,,,,,,,,,,f,0.3172,space,0.4162,,,,,,,,0,38,38,32,1,,
63e529b9c964037317069e6e,2023-06-16_10h16.22.460,phx_ver10,2022.2.5,Win32,60.48874909,,,,,,,,,,,,50,testing_3,zh2j,a,zh2j_a,zh2j_8_aja.wav,zh2j_8_aja.wav,,TRUE,FALSE,,,,,,,,,,,,,,f,0.2983,space,0.3926,,,,,,,,0,39,39,49,1,,
63e529b9c964037317069e6e,2023-06-16_10h16.22.460,phx_ver10,2022.2.5,Win32,60.48874909,,,,,,,,,,,,137,testing_3,sh2j,ei,sh2j_ei,sh2j_1_eishei.wav,sh2j_1_eishei.wav,,TRUE,FALSE,,,,,,,,,,,,,,f,0.2418,space,0.3579,,,,,,,,0,40,40,136,1,,
63e529b9c964037317069e6e,2023-06-16_10h16.22.460,phx_ver10,2022.2.5,Win32,60.48874909,,,,,,,,,,,,125,testing_3,sh2j,ai,sh2j_ai,sh2j_1_aishai.wav,sh2j_1_aishai.wav,,TRUE,FALSE,,,,,,,,,,,,,,f,0.2651,space,0.3837,,,,,,,,0,41,41,124,1,,
63e529b9c964037317069e6e,2023-06-16_10h16.22.460,phx_ver10,2022.2.5,Win32,60.48874909,,,,,,,,,,,,82,testing_3,j2x,au,j2x_au,j2x_8_auxau.wav,j2x_8_auxau.wav,,TRUE,FALSE,,,,,,,,,,,,,,f,0.3058,space,0.4842,,,,,,,,0,42,42,81,1,,
63e529b9c964037317069e6e,2023-06-16_10h16.22.460,phx_ver10,2022.2.5,Win32,60.48874909,,,,,,,,,,,,106,testing_3,sh2x,au,sh2x_au,sh2x_8_auxau.wav,sh2x_8_auxau.wav,,TRUE,FALSE,,,,,,,,,,,,,,f,0.2439,space,0.3672,,,,,,,,0,43,43,105,1,,
63e529b9c964037317069e6e,2023-06-16_10h16.22.460,phx_ver10,2022.2.5,Win32,60.48874909,,,,,,,,,,,,2,testing_1,zh2x,a,zh2x_a,zh2x_8_axa.wav,zh2x_8_axa_copy.wav,,TRUE,TRUE,,,,,,,,,,,,,,f,0.3166,space,0.3504,,,,,,,,0,44,44,1,1,,
63e529b9c964037317069e6e,2023-06-16_10h16.22.460,phx_ver10,2022.2.5,Win32,60.48874909,,,,,,,,,,,,20,testing_2,zh2x,au,zh2x_au,zh2x_8_auxau.wav,zh2x_1_auzhau.wav,,FALSE,FALSE,,,,,,,,,,,,,,j,0.0876,space,0.3178,,,,,,,,0,45,45,19,1,,
63e529b9c964037317069e6e,2023-06-16_10h16.22.460,phx_ver10,2022.2.5,Win32,60.48874909,,,,,,,,,,,,47,testing_3,zh2sh,i,zh2sh_i,zh2sh_1_izhi.wav,zh2sh_8_ishi.wav,,FALSE,FALSE,,,,,,,,,,,,,,j,0.3837,space,0.4749,,,,,,,,0,46,46,46,1,,
63e529b9c964037317069e6e,2023-06-16_10h16.22.460,phx_ver10,2022.2.5,Win32,60.48874909,,,,,,,,,,,,8,testing_1,zh2x,e,zh2x_e,zh2x_8_exe.wav,zh2x_1_ezhe.wav,,FALSE,TRUE,,,,,,,,,,,,,,j,0.451,space,0.4842,,,,,,,,0,47,47,7,1,,
63e529b9c964037317069e6e,2023-06-16_10h16.22.460,phx_ver10,2022.2.5,Win32,60.48874909,,,,,,,,,,,,142,testing_3,sh2j,i,sh2j_i,sh2j_8_iji.wav,sh2j_8_iji.wav,,TRUE,FALSE,,,,,,,,,,,,,,f,1.0654,space,1.1325,,,,,,,,0,48,48,141,1,,
63e529b9c964037317069e6e,2023-06-16_10h16.22.460,phx_ver10,2022.2.5,Win32,60.48874909,,,,,,,,,,,,10,testing_1,zh2x,i,zh2x_i,zh2x_8_ixi.wav,zh2x_8_ixi_copy.wav,,TRUE,TRUE,,,,,,,,,,,,,,f,0.3011,space,0.3511,,,,,,,,0,49,49,9,1,,
63e529b9c964037317069e6e,2023-06-16_10h16.22.460,phx_ver10,2022.2.5,Win32,60.48874909,,,,,,,,,,,,36,testing_3,zh2sh,au,zh2sh_au,zh2sh_8_aushau.wav,zh2sh_1_auzhau.wav,,FALSE,FALSE,,,,,,,,,,,,,,j,0.3338,space,0.3667,,,,,,,,0,50,50,35,1,,
63e529b9c964037317069e6e,2023-06-16_10h16.22.460,phx_ver10,2022.2.5,Win32,60.48874909,,,,,,,,,,,,84,testing_3,j2x,au,j2x_au,j2x_8_auxau.wav,j2x_1_aujau.wav,,FALSE,FALSE,,,,,,,,,,,,,,j,0.2995,space,0.3338,,,,,,,,0,51,51,83,1,,
63e529b9c964037317069e6e,2023-06-16_10h16.22.460,phx_ver10,2022.2.5,Win32,60.48874909,,,,,,,,,,,,28,testing_3,zh2sh,a,zh2sh_a,zh2sh_8_asha.wav,zh2sh_1_azha.wav,,FALSE,FALSE,,,,,,,,,,,,,,j,0.3892,space,0.9865,,,,,,,,0,52,52,27,1,,
63e529b9c964037317069e6e,2023-06-16_10h16.22.460,phx_ver10,2022.2.5,Win32,60.48874909,,,,,,,,,,,,123,testing_3,sh2j,a,sh2j_a,sh2j_1_asha.wav,sh2j_8_aja.wav,,FALSE,FALSE,,,,,,,,,,,,,,j,0.4005,space,0.517,,,,,,,,0,53,53,122,1,,
63e529b9c964037317069e6e,2023-06-16_10h16.22.460,phx_ver10,2022.2.5,Win32,60.48874909,,,,,,,,,,,,100,testing_3,sh2x,a,sh2x_a,sh2x_8_axa.wav,sh2x_1_asha.wav,,FALSE,FALSE,,,,,,,,,,,,,,f,0.1837,space,0.2846,,,,,,,,0,54,54,99,1,,
63e529b9c964037317069e6e,2023-06-16_10h16.22.460,phx_ver10,2022.2.5,Win32,60.48874909,,,,,,,,,,,,37,testing_3,zh2sh,e,zh2sh_e,zh2sh_1_ezhe.wav,zh2sh_1_ezhe.wav,,TRUE,FALSE,,,,,,,,,,,,,,f,0.3173,space,0.3506,,,,,,,,0,55,55,36,1,,
63e529b9c964037317069e6e,2023-06-16_10h16.22.460,phx_ver10,2022.2.5,Win32,60.48874909,,,,,,,,,,,,128,testing_3,sh2j,ai,sh2j_ai,sh2j_8_aijai.wav,sh2j_1_aishai.wav,,FALSE,FALSE,,,,,,,,,,,,,,j,0.2107,space,0.2669,,,,,,,,0,56,56,127,1,,
63e529b9c964037317069e6e,2023-06-16_10h16.22.460,phx_ver10,2022.2.5,Win32,60.48874909,,,,,,,,,,,,90,testing_3,j2x,ei,j2x_ei,j2x_8_eixei.wav,j2x_8_eixei.wav,,TRUE,FALSE,,,,,,,,,,,,,,f,0.3386,space,0.3835,,,,,,,,0,57,57,89,1,,
63e529b9c964037317069e6e,2023-06-16_10h16.22.460,phx_ver10,2022.2.5,Win32,60.48874909,,,,,,,,,,,,143,testing_3,sh2j,i,sh2j_i,sh2j_1_ishi.wav,sh2j_8_iji.wav,,FALSE,FALSE,,,,,,,,,,,,,,j,0.0166,space,0.1502,,,,,,,,0,58,58,142,1,,
63e529b9c964037317069e6e,2023-06-16_10h16.22.460,phx_ver10,2022.2.5,Win32,60.48874909,,,,,,,,,,,,124,testing_3,sh2j,a,sh2j_a,sh2j_8_aja.wav,sh2j_1_asha.wav,,FALSE,FALSE,,,,,,,,,,,,,,j,0.3497,space,0.9171,,,,,,,,0,59,59,123,1,,
63e529b9c964037317069e6e,2023-06-16_10h16.22.460,phx_ver10,2022.2.5,Win32,60.48874909,,,,,,,,,,,,91,testing_3,j2x,ei,j2x_ei,j2x_1_eijei.wav,j2x_8_eixei.wav,,FALSE,FALSE,,,,,,,,,,,,,,j,0.3167,space,0.3335,,,,,,,,0,60,60,90,1,,
63e529b9c964037317069e6e,2023-06-16_10h16.22.460,phx_ver10,2022.2.5,Win32,60.48874909,,,,,,,,,,,,17,testing_2,zh2x,au,zh2x_au,zh2x_1_auzhau.wav,zh2x_1_auzhau.wav,,TRUE,FALSE,,,,,,,,,,,,,,f,0.3845,space,0.4679,,,,,,,,0,61,61,16,1,,
63e529b9c964037317069e6e,2023-06-16_10h16.22.460,phx_ver10,2022.2.5,Win32,60.48874909,,,,,,,,,,,,9,testing_1,zh2x,i,zh2x_i,zh2x_1_izhi.wav,zh2x_1_izhi_copy.wav,,TRUE,TRUE,,,,,,,,,,,,,,f,0.6675,space,0.7509,,,,,,,,0,62,62,8,1,,
63e529b9c964037317069e6e,2023-06-16_10h16.22.460,phx_ver10,2022.2.5,Win32,60.48874909,,,,,,,,,,,,116,testing_3,sh2x,ei,sh2x_ei,sh2x_8_eixei.wav,sh2x_1_eishei.wav,,FALSE,FALSE,,,,,,,,,,,,,,f,0.3842,space,0.4393,,,,,,,,0,63,63,115,1,,
63e529b9c964037317069e6e,2023-06-16_10h16.22.460,phx_ver10,2022.2.5,Win32,60.48874909,,,,,,,,,,,,140,testing_3,sh2j,ei,sh2j_ei,sh2j_8_eijei.wav,sh2j_1_eishei.wav,,FALSE,FALSE,,,,,,,,,,,,,,j,0.3334,space,0.8334,,,,,,,,0,64,64,139,1,,
63e529b9c964037317069e6e,2023-06-16_10h16.22.460,phx_ver10,2022.2.5,Win32,60.48874909,,,,,,,,,,,,95,testing_3,j2x,i,j2x_i,j2x_1_iji.wav,j2x_8_ixi.wav,,FALSE,FALSE,,,,,,,,,,,,,,j,1.4336,space,1.4708,,,,,,,,0,65,65,94,1,,
63e529b9c964037317069e6e,2023-06-16_10h16.22.460,phx_ver10,2022.2.5,Win32,60.48874909,,,,,,,,,,,,85,testing_3,j2x,e,j2x_e,j2x_1_eje.wav,j2x_1_eje.wav,,TRUE,FALSE,,,,,,,,,,,,,,f,0.1861,space,0.5164,,,,,,,,0,66,66,84,1,,
63e529b9c964037317069e6e,2023-06-16_10h16.22.460,phx_ver10,2022.2.5,Win32,60.48874909,,,,,,,,,,,,136,testing_3,sh2j,e,sh2j_e,sh2j_8_eje.wav,sh2j_1_eshe.wav,,FALSE,FALSE,,,,,,,,,,,,,,j,0.1647,space,0.5539,,,,,,,,0,67,67,135,1,,
63e529b9c964037317069e6e,2023-06-16_10h16.22.460,phx_ver10,2022.2.5,Win32,60.48874909,,,,,,,,,,,,141,testing_3,sh2j,i,sh2j_i,sh2j_1_ishi.wav,sh2j_1_ishi.wav,,TRUE,FALSE,,,,,,,,,,,,,,f,0.3539,space,0.6501,,,,,,,,0,68,68,140,1,,
63e529b9c964037317069e6e,2023-06-16_10h16.22.460,phx_ver10,2022.2.5,Win32,60.48874909,,,,,,,,,,,,135,testing_3,sh2j,e,sh2j_e,sh2j_1_eshe.wav,sh2j_8_eje.wav,,FALSE,FALSE,,,,,,,,,,,,,,j,0.3201,space,0.3504,,,,,,,,0,69,69,134,1,,
63e529b9c964037317069e6e,2023-06-16_10h16.22.460,phx_ver10,2022.2.5,Win32,60.48874909,,,,,,,,,,,,67,testing_3,zh2j,ei,zh2j_ei,zh2j_1_eizhei.wav,zh2j_8_eijei.wav,,FALSE,FALSE,,,,,,,,,,,,,,f,0.362,space,0.4285,,,,,,,,0,70,70,66,1,,
63e529b9c964037317069e6e,2023-06-16_10h16.22.460,phx_ver10,2022.2.5,Win32,60.48874909,,,,,,,,,,,,15,testing_2,zh2x,ai,zh2x_ai,zh2x_1_aizhai.wav,zh2x_8_aixai.wav,,FALSE,FALSE,,,,,,,,,,,,,,j,0.3508,space,0.8012,,,,,,,,0,71,71,14,1,,
63e529b9c964037317069e6e,2023-06-16_10h16.22.460,phx_ver10,2022.2.5,Win32,60.48874909,,,,,,,,,,,,132,testing_3,sh2j,au,sh2j_au,sh2j_8_aujau.wav,sh2j_1_aushau.wav,,FALSE,FALSE,,,,,,,,,,,,,,j,0.3335,space,0.5004,,,,,,,,0,72,72,131,1,,
63e529b9c964037317069e6e,2023-06-16_10h16.22.460,phx_ver10,2022.2.5,Win32,60.48874909,,,,,,,,,,,,41,testing_3,zh2sh,ei,zh2sh_ei,zh2sh_1_eizhei.wav,zh2sh_1_eizhei.wav,,TRUE,FALSE,,,,,,,,,,,,,,f,0.3509,space,0.4055,,,,,,,,0,73,73,40,1,,
63e529b9c964037317069e6e,2023-06-16_10h16.22.460,phx_ver10,2022.2.5,Win32,60.48874909,,,,,,,,,,,,19,testing_2,zh2x,au,zh2x_au,zh2x_1_auzhau.wav,zh2x_8_auxau.wav,,FALSE,FALSE,,,,,,,,,,,,,,j,0.4169,space,0.667,,,,,,,,0,74,74,18,1,,
63e529b9c964037317069e6e,2023-06-16_10h16.22.460,phx_ver10,2022.2.5,Win32,60.48874909,,,,,,,,,,,,103,testing_3,sh2x,ai,sh2x_ai,sh2x_1_aishai.wav,sh2x_8_aixai.wav,,FALSE,FALSE,,,,,,,,,,,,,,f,0.3777,space,0.451,,,,,,,,0,75,75,102,1,,
63e529b9c964037317069e6e,2023-06-16_10h16.22.460,phx_ver10,2022.2.5,Win32,60.48874909,,,,,,,,,,,,32,testing_3,zh2sh,ai,zh2sh_ai,zh2sh_8_aishai.wav,zh2sh_1_aizhai.wav,,FALSE,FALSE,,,,,,,,,,,,,,j,0.3641,space,0.3974,,,,,,,,0,76,76,31,1,,
63e529b9c964037317069e6e,2023-06-16_10h16.22.460,phx_ver10,2022.2.5,Win32,60.48874909,,,,,,,,,,,,105,testing_3,sh2x,au,sh2x_au,sh2x_1_aushau.wav,sh2x_1_aushau.wav,,TRUE,FALSE,,,,,,,,,,,,,,f,0.2979,space,0.481,,,,,,,,0,77,77,104,1,,
63e529b9c964037317069e6e,2023-06-16_10h16.22.460,phx_ver10,2022.2.5,Win32,60.48874909,,,,,,,,,,,,129,testing_3,sh2j,au,sh2j_au,sh2j_1_aushau.wav,sh2j_1_aushau.wav,,TRUE,FALSE,,,,,,,,,,,,,,f,0.3566,space,0.4495,,,,,,,,0,78,78,128,1,,
63e529b9c964037317069e6e,2023-06-16_10h16.22.460,phx_ver10,2022.2.5,Win32,60.48874909,,,,,,,,,,,,98,testing_3,sh2x,a,sh2x_a,sh2x_8_axa.wav,sh2x_8_axa.wav,,TRUE,FALSE,,,,,,,,,,,,,,f,0.3503,space,0.4613,,,,,,,,0,79,79,97,1,,
63e529b9c964037317069e6e,2023-06-16_10h16.22.460,phx_ver10,2022.2.5,Win32,60.48874909,,,,,,,,,,,,97,testing_3,sh2x,a,sh2x_a,sh2x_1_asha.wav,sh2x_1_asha.wav,,TRUE,FALSE,,,,,,,,,,,,,,f,0.3438,space,0.5225,,,,,,,,0,80,80,96,1,,
63e529b9c964037317069e6e,2023-06-16_10h16.22.460,phx_ver10,2022.2.5,Win32,60.48874909,,,,,,,,,,,,139,testing_3,sh2j,ei,sh2j_ei,sh2j_1_eishei.wav,sh2j_8_eijei.wav,,FALSE,FALSE,,,,,,,,,,,,,,j,0.3501,space,0.817,,,,,,,,0,81,81,138,1,,
63e529b9c964037317069e6e,2023-06-16_10h16.22.460,phx_ver10,2022.2.5,Win32,60.48874909,,,,,,,,,,,,12,testing_1,zh2x,i,zh2x_i,zh2x_8_ixi.wav,zh2x_1_izhi.wav,,FALSE,TRUE,,,,,,,,,,,,,,j,0.2169,space,0.6004,,,,,,,,0,82,82,11,1,,
63e529b9c964037317069e6e,2023-06-16_10h16.22.460,phx_ver10,2022.2.5,Win32,60.48874909,,,,,,,,,,,,48,testing_3,zh2sh,i,zh2sh_i,zh2sh_8_ishi.wav,zh2sh_1_izhi.wav,,FALSE,FALSE,,,,,,,,,,,,,,f,4.1218,space,4.1526,,,,,,,,0,83,83,47,1,,
63e529b9c964037317069e6e,2023-06-16_10h16.22.460,phx_ver10,2022.2.5,Win32,60.48874909,,,,,,,,,,,,6,testing_1,zh2x,e,zh2x_e,zh2x_8_exe.wav,zh2x_8_exe_copy.wav,,TRUE,TRUE,,,,,,,,,,,,,,f,0.1174,space,0.4449,,,,,,,,0,84,84,5,1,,
63e529b9c964037317069e6e,2023-06-16_10h16.22.460,phx_ver10,2022.2.5,Win32,60.48874909,,,,,,,,,,,,44,testing_3,zh2sh,ei,zh2sh_ei,zh2sh_8_eishei.wav,zh2sh_1_eizhei.wav,,FALSE,FALSE,,,,,,,,,,,,,,j,0.2403,space,0.3874,,,,,,,,0,85,85,43,1,,
63e529b9c964037317069e6e,2023-06-16_10h16.22.460,phx_ver10,2022.2.5,Win32,60.48874909,,,,,,,,,,,,42,testing_3,zh2sh,ei,zh2sh_ei,zh2sh_8_eishei.wav,zh2sh_8_eishei.wav,,TRUE,FALSE,,,,,,,,,,,,,,f,0.2838,space,0.3505,,,,,,,,0,86,86,41,1,,
63e529b9c964037317069e6e,2023-06-16_10h16.22.460,phx_ver10,2022.2.5,Win32,60.48874909,,,,,,,,,,,,38,testing_3,zh2sh,e,zh2sh_e,zh2sh_8_eshe.wav,zh2sh_8_eshe.wav,,TRUE,FALSE,,,,,,,,,,,,,,f,0.3323,space,0.3488,,,,,,,,0,87,87,37,1,,
63e529b9c964037317069e6e,2023-06-16_10h16.22.460,phx_ver10,2022.2.5,Win32,60.48874909,,,,,,,,,,,,26,testing_3,zh2sh,a,zh2sh_a,zh2sh_8_asha.wav,zh2sh_8_asha.wav,,TRUE,FALSE,,,,,,,,,,,,,,f,0.2717,space,0.3011,,,,,,,,0,88,88,25,1,,
63e529b9c964037317069e6e,2023-06-16_10h16.22.460,phx_ver10,2022.2.5,Win32,60.48874909,,,,,,,,,,,,21,testing_2,zh2x,ei,zh2x_ei,zh2x_1_eizhei.wav,zh2x_1_eizhei.wav,,TRUE,FALSE,,,,,,,,,,,,,,f,0.2671,space,0.3173,,,,,,,,0,89,89,20,1,,
63e529b9c964037317069e6e,2023-06-16_10h16.22.460,phx_ver10,2022.2.5,Win32,60.48874909,,,,,,,,,,,,94,testing_3,j2x,i,j2x_i,j2x_8_ixi.wav,j2x_8_ixi.wav,,TRUE,FALSE,,,,,,,,,,,,,,f,0.6794,space,0.7325,,,,,,,,0,90,90,93,1,,
63e529b9c964037317069e6e,2023-06-16_10h16.22.460,phx_ver10,2022.2.5,Win32,60.48874909,,,,,,,,,,,,126,testing_3,sh2j,ai,sh2j_ai,sh2j_8_aijai.wav,sh2j_8_aijai.wav,,TRUE,FALSE,,,,,,,,,,,,,,f,0.3514,space,0.3841,,,,,,,,0,91,91,125,1,,
63e529b9c964037317069e6e,2023-06-16_10h16.22.460,phx_ver10,2022.2.5,Win32,60.48874909,,,,,,,,,,,,77,testing_3,j2x,ai,j2x_ai,j2x_1_aijai.wav,j2x_1_aijai.wav,,TRUE,FALSE,,,,,,,,,,,,,,f,0.3839,space,0.4345,,,,,,,,0,92,92,76,1,,
63e529b9c964037317069e6e,2023-06-16_10h16.22.460,phx_ver10,2022.2.5,Win32,60.48874909,,,,,,,,,,,,56,testing_3,zh2j,ai,zh2j_ai,zh2j_8_aijai.wav,zh2j_1_aizhai.wav,,FALSE,FALSE,,,,,,,,,,,,,,f,0.5444,space,0.5844,,,,,,,,0,93,93,55,1,,
63e529b9c964037317069e6e,2023-06-16_10h16.22.460,phx_ver10,2022.2.5,Win32,60.48874909,,,,,,,,,,,,74,testing_3,j2x,a,j2x_a,j2x_8_axa.wav,j2x_8_axa.wav,,TRUE,FALSE,,,,,,,,,,,,,,f,0.3545,space,0.4012,,,,,,,,0,94,94,73,1,,
63e529b9c964037317069e6e,2023-06-16_10h16.22.460,phx_ver10,2022.2.5,Win32,60.48874909,,,,,,,,,,,,22,testing_2,zh2x,ei,zh2x_ei,zh2x_8_eixei.wav,zh2x_8_eixei.wav,,TRUE,FALSE,,,,,,,,,,,,,,f,0.3344,space,0.3909,,,,,,,,0,95,95,21,1,,
63e529b9c964037317069e6e,2023-06-16_10h16.22.460,phx_ver10,2022.2.5,Win32,60.48874909,,,,,,,,,,,,79,testing_3,j2x,ai,j2x_ai,j2x_1_aijai.wav,j2x_8_aixai.wav,,FALSE,FALSE,,,,,,,,,,,,,,f,0.368,space,0.4013,,,,,,,,0,96,96,78,1,,
63e529b9c964037317069e6e,2023-06-16_10h16.22.460,phx_ver10,2022.2.5,Win32,60.48874909,,,,,,,,,,,,11,testing_1,zh2x,i,zh2x_i,zh2x_1_izhi.wav,zh2x_8_ixi.wav,,FALSE,TRUE,,,,,,,,,,,,,,j,0.1002,space,0.1358,,,,,,,,0,97,97,10,1,,
63e529b9c964037317069e6e,2023-06-16_10h16.22.460,phx_ver10,2022.2.5,Win32,60.48874909,,,,,,,,,,,,70,testing_3,zh2j,i,zh2j_i,zh2j_8_iji.wav,zh2j_8_iji.wav,,TRUE,FALSE,,,,,,,,,,,,,,f,0.2336,space,0.2504,,,,,,,,0,98,98,69,1,,
63e529b9c964037317069e6e,2023-06-16_10h16.22.460,phx_ver10,2022.2.5,Win32,60.48874909,,,,,,,,,,,,102,testing_3,sh2x,ai,sh2x_ai,sh2x_8_aixai.wav,sh2x_8_aixai.wav,,TRUE,FALSE,,,,,,,,,,,,,,f,0.0003,space,0.0387,,,,,,,,0,99,99,101,1,,
63e529b9c964037317069e6e,2023-06-16_10h16.22.460,phx_ver10,2022.2.5,Win32,60.48874909,,,,,,,,,,,,122,testing_3,sh2j,a,sh2j_a,sh2j_8_aja.wav,sh2j_8_aja.wav,,TRUE,FALSE,,,,,,,,,,,,,,f,0.0807,space,0.1474,,,,,,,,0,100,100,121,1,,
63e529b9c964037317069e6e,2023-06-16_10h16.22.460,phx_ver10,2022.2.5,Win32,60.48874909,,,,,,,,,,,,57,testing_3,zh2j,au,zh2j_au,zh2j_1_auzhau.wav,zh2j_1_auzhau.wav,,TRUE,FALSE,,,,,,,,,,,,,,f,0.2046,space,0.2632,,,,,,,,0,101,101,56,1,,
63e529b9c964037317069e6e,2023-06-16_10h16.22.460,phx_ver10,2022.2.5,Win32,60.48874909,,,,,,,,,,,,3,testing_1,zh2x,a,zh2x_a,zh2x_1_azha.wav,zh2x_8_axa.wav,,FALSE,TRUE,,,,,,,,,,,,,,j,0.217,space,0.6493,,,,,,,,0,102,102,2,1,,
63e529b9c964037317069e6e,2023-06-16_10h16.22.460,phx_ver10,2022.2.5,Win32,60.48874909,,,,,,,,,,,,115,testing_3,sh2x,ei,sh2x_ei,sh2x_1_eishei.wav,sh2x_8_eixei.wav,,FALSE,FALSE,,,,,,,,,,,,,,f,0.1501,space,0.1907,,,,,,,,0,103,103,114,1,,
63e529b9c964037317069e6e,2023-06-16_10h16.22.460,phx_ver10,2022.2.5,Win32,60.48874909,,,,,,,,,,,,4,testing_1,zh2x,a,zh2x_a,zh2x_8_axa.wav,zh2x_1_azha.wav,,FALSE,TRUE,,,,,,,,,,,,,,j,0.15,space,0.2505,,,,,,,,0,104,104,3,1,,
63e529b9c964037317069e6e,2023-06-16_10h16.22.460,phx_ver10,2022.2.5,Win32,60.48874909,,,,,,,,,,,,63,testing_3,zh2j,e,zh2j_e,zh2j_1_ezhe.wav,zh2j_8_eje.wav,,FALSE,FALSE,,,,,,,,,,,,,,f,0.1536,space,0.2008,,,,,,,,0,105,105,62,1,,
63e529b9c964037317069e6e,2023-06-16_10h16.22.460,phx_ver10,2022.2.5,Win32,60.48874909,,,,,,,,,,,,134,testing_3,sh2j,e,sh2j_e,sh2j_8_eje.wav,sh2j_8_eje.wav,,TRUE,FALSE,,,,,,,,,,,,,,f,0.167,space,0.2009,,,,,,,,0,106,106,133,1,,
63e529b9c964037317069e6e,2023-06-16_10h16.22.460,phx_ver10,2022.2.5,Win32,60.48874909,,,,,,,,,,,,16,testing_2,zh2x,ai,zh2x_ai,zh2x_8_aixai.wav,zh2x_1_aizhai.wav,,FALSE,FALSE,,,,,,,,,,,,,,j,0.0172,space,0.0837,,,,,,,,0,107,107,15,1,,
63e529b9c964037317069e6e,2023-06-16_10h16.22.460,phx_ver10,2022.2.5,Win32,60.48874909,,,,,,,,,,,,1,testing_1,zh2x,a,zh2x_a,zh2x_1_azha.wav,zh2x_1_azha_copy.wav,,TRUE,TRUE,,,,,,,,,,,,,,f,0.196,space,0.6785,,,,,,,,0,108,108,0,1,,
63e529b9c964037317069e6e,2023-06-16_10h16.22.460,phx_ver10,2022.2.5,Win32,60.48874909,,,,,,,,,,,,39,testing_3,zh2sh,e,zh2sh_e,zh2sh_1_ezhe.wav,zh2sh_8_eshe.wav,,FALSE,FALSE,,,,,,,,,,,,,,j,0.0999,space,0.1335,,,,,,,,0,109,109,38,1,,
63e529b9c964037317069e6e,2023-06-16_10h16.22.460,phx_ver10,2022.2.5,Win32,60.48874909,,,,,,,,,,,,68,testing_3,zh2j,ei,zh2j_ei,zh2j_8_eijei.wav,zh2j_1_eizhei.wav,,FALSE,FALSE,,,,,,,,,,,,,,f,0.2667,space,0.7336,,,,,,,,0,110,110,67,1,,
63e529b9c964037317069e6e,2023-06-16_10h16.22.460,phx_ver10,2022.2.5,Win32,60.48874909,,,,,,,,,,,,113,testing_3,sh2x,ei,sh2x_ei,sh2x_1_eishei.wav,sh2x_1_eishei.wav,,TRUE,FALSE,,,,,,,,,,,,,,f,0.383,space,0.4331,,,,,,,,0,111,111,112,1,,
63e529b9c964037317069e6e,2023-06-16_10h16.22.460,phx_ver10,2022.2.5,Win32,60.48874909,,,,,,,,,,,,60,testing_3,zh2j,au,zh2j_au,zh2j_8_aujau.wav,zh2j_1_auzhau.wav,,FALSE,FALSE,,,,,,,,,,,,,,f,0.1881,space,0.2618,,,,,,,,0,112,112,59,1,,
63e529b9c964037317069e6e,2023-06-16_10h16.22.460,phx_ver10,2022.2.5,Win32,60.48874909,,,,,,,,,,,,130,testing_3,sh2j,au,sh2j_au,sh2j_8_aujau.wav,sh2j_8_aujau.wav,,TRUE,FALSE,,,,,,,,,,,,,,f,0.4039,space,0.4322,,,,,,,,0,113,113,129,1,,
63e529b9c964037317069e6e,2023-06-16_10h16.22.460,phx_ver10,2022.2.5,Win32,60.48874909,,,,,,,,,,,,120,testing_3,sh2x,i,sh2x_i,sh2x_8_ixi.wav,sh2x_1_ishi.wav,,FALSE,FALSE,,,,,,,,,,,,,,j,0.3312,space,0.8256,,,,,,,,0,114,114,119,1,,
63e529b9c964037317069e6e,2023-06-16_10h16.22.460,phx_ver10,2022.2.5,Win32,60.48874909,,,,,,,,,,,,51,testing_3,zh2j,a,zh2j_a,zh2j_1_azha.wav,zh2j_8_aja.wav,,FALSE,FALSE,,,,,,,,,,,,,,f,0.8678,space,0.9888,,,,,,,,0,115,115,50,1,,
63e529b9c964037317069e6e,2023-06-16_10h16.22.460,phx_ver10,2022.2.5,Win32,60.48874909,,,,,,,,,,,,88,testing_3,j2x,e,j2x_e,j2x_8_exe.wav,j2x_1_eje.wav,,FALSE,FALSE,,,,,,,,,,,,,,j,0.5179,space,0.5768,,,,,,,,0,116,116,87,1,,
63e529b9c964037317069e6e,2023-06-16_10h16.22.460,phx_ver10,2022.2.5,Win32,60.48874909,,,,,,,,,,,,75,testing_3,j2x,a,j2x_a,j2x_1_aja.wav,j2x_8_axa.wav,,FALSE,FALSE,,,,,,,,,,,,,,j,0.5009,space,0.5341,,,,,,,,0,117,117,74,1,,
63e529b9c964037317069e6e,2023-06-16_10h16.22.460,phx_ver10,2022.2.5,Win32,60.48874909,,,,,,,,,,,,65,testing_3,zh2j,ei,zh2j_ei,zh2j_1_eizhei.wav,zh2j_1_eizhei.wav,,TRUE,FALSE,,,,,,,,,,,,,,f,0.331,space,0.3642,,,,,,,,0,118,118,64,1,,
63e529b9c964037317069e6e,2023-06-16_10h16.22.460,phx_ver10,2022.2.5,Win32,60.48874909,,,,,,,,,,,,114,testing_3,sh2x,ei,sh2x_ei,sh2x_8_eixei.wav,sh2x_8_eixei.wav,,TRUE,FALSE,,,,,,,,,,,,,,f,0.3502,space,0.3669,,,,,,,,0,119,119,113,1,,
63e529b9c964037317069e6e,2023-06-16_10h16.22.460,phx_ver10,2022.2.5,Win32,60.48874909,,,,,,,,,,,,111,testing_3,sh2x,e,sh2x_e,sh2x_1_eshe.wav,sh2x_8_exe.wav,,FALSE,FALSE,,,,,,,,,,,,,,f,0.3167,space,0.3676,,,,,,,,0,120,120,110,1,,
63e529b9c964037317069e6e,2023-06-16_10h16.22.460,phx_ver10,2022.2.5,Win32,60.48874909,,,,,,,,,,,,87,testing_3,j2x,e,j2x_e,j2x_1_eje.wav,j2x_8_exe.wav,,FALSE,FALSE,,,,,,,,,,,,,,j,0.2843,space,0.351,,,,,,,,0,121,121,86,1,,
63e529b9c964037317069e6e,2023-06-16_10h16.22.460,phx_ver10,2022.2.5,Win32,60.48874909,,,,,,,,,,,,46,testing_3,zh2sh,i,zh2sh_i,zh2sh_8_ishi.wav,zh2sh_8_ishi.wav,,TRUE,FALSE,,,,,,,,,,,,,,f,1.6336,space,1.6671,,,,,,,,0,122,122,45,1,,
63e529b9c964037317069e6e,2023-06-16_10h16.22.460,phx_ver10,2022.2.5,Win32,60.48874909,,,,,,,,,,,,138,testing_3,sh2j,ei,sh2j_ei,sh2j_8_eijei.wav,sh2j_8_eijei.wav,,TRUE,FALSE,,,,,,,,,,,,,,f,0.3688,space,0.833,,,,,,,,0,123,123,137,1,,
63e529b9c964037317069e6e,2023-06-16_10h16.22.460,phx_ver10,2022.2.5,Win32,60.48874909,,,,,,,,,,,,18,testing_2,zh2x,au,zh2x_au,zh2x_8_auxau.wav,zh2x_8_auxau.wav,,TRUE,FALSE,,,,,,,,,,,,,,f,0.1836,space,0.2837,,,,,,,,0,124,124,17,1,,
63e529b9c964037317069e6e,2023-06-16_10h16.22.460,phx_ver10,2022.2.5,Win32,60.48874909,,,,,,,,,,,,144,testing_3,sh2j,i,sh2j_i,sh2j_8_iji.wav,sh2j_1_ishi.wav,,FALSE,FALSE,,,,,,,,,,,,,,j,0.3479,space,0.7811,,,,,,,,0,125,125,143,1,,
63e529b9c964037317069e6e,2023-06-16_10h16.22.460,phx_ver10,2022.2.5,Win32,60.48874909,,,,,,,,,,,,73,testing_3,j2x,a,j2x_a,j2x_1_aja.wav,j2x_1_aja.wav,,TRUE,FALSE,,,,,,,,,,,,,,f,0.3368,space,0.4704,,,,,,,,0,126,126,72,1,,
63e529b9c964037317069e6e,2023-06-16_10h16.22.460,phx_ver10,2022.2.5,Win32,60.48874909,,,,,,,,,,,,34,testing_3,zh2sh,au,zh2sh_au,zh2sh_8_aushau.wav,zh2sh_8_aushau.wav,,TRUE,FALSE,,,,,,,,,,,,,,f,0.4052,space,0.5172,,,,,,,,0,127,127,33,1,,
63e529b9c964037317069e6e,2023-06-16_10h16.22.460,phx_ver10,2022.2.5,Win32,60.48874909,,,,,,,,,,,,96,testing_3,j2x,i,j2x_i,j2x_8_ixi.wav,j2x_1_iji.wav,,FALSE,FALSE,,,,,,,,,,,,,,j,0.5673,space,0.6699,,,,,,,,0,128,128,95,1,,
63e529b9c964037317069e6e,2023-06-16_10h16.22.460,phx_ver10,2022.2.5,Win32,60.48874909,,,,,,,,,,,,101,testing_3,sh2x,ai,sh2x_ai,sh2x_1_aishai.wav,sh2x_1_aishai.wav,,TRUE,FALSE,,,,,,,,,,,,,,f,0.1503,space,0.2335,,,,,,,,0,129,129,100,1,,
63e529b9c964037317069e6e,2023-06-16_10h16.22.460,phx_ver10,2022.2.5,Win32,60.48874909,,,,,,,,,,,,62,testing_3,zh2j,e,zh2j_e,zh2j_8_eje.wav,zh2j_8_eje.wav,,TRUE,FALSE,,,,,,,,,,,,,,f,0.3013,space,0.3593,,,,,,,,0,130,130,61,1,,
63e529b9c964037317069e6e,2023-06-16_10h16.22.460,phx_ver10,2022.2.5,Win32,60.48874909,,,,,,,,,,,,71,testing_3,zh2j,i,zh2j_i,zh2j_1_izhi.wav,zh2j_8_iji.wav,,FALSE,FALSE,,,,,,,,,,,,,,f,0.1753,space,0.2997,,,,,,,,0,131,131,70,1,,
63e529b9c964037317069e6e,2023-06-16_10h16.22.460,phx_ver10,2022.2.5,Win32,60.48874909,,,,,,,,,,,,27,testing_3,zh2sh,a,zh2sh_a,zh2sh_1_azha.wav,zh2sh_8_asha.wav,,FALSE,FALSE,,,,,,,,,,,,,,j,0.417,space,0.4838,,,,,,,,0,132,132,26,1,,
63e529b9c964037317069e6e,2023-06-16_10h16.22.460,phx_ver10,2022.2.5,Win32,60.48874909,,,,,,,,,,,,23,testing_2,zh2x,ei,zh2x_ei,zh2x_1_eizhei.wav,zh2x_8_eixei.wav,,FALSE,FALSE,,,,,,,,,,,,,,j,0.1361,space,0.267,,,,,,,,0,133,133,22,1,,
63e529b9c964037317069e6e,2023-06-16_10h16.22.460,phx_ver10,2022.2.5,Win32,60.48874909,,,,,,,,,,,,5,testing_1,zh2x,e,zh2x_e,zh2x_1_ezhe.wav,zh2x_1_ezhe_copy.wav,,TRUE,TRUE,,,,,,,,,,,,,,f,0.1097,space,0.201,,,,,,,,0,134,134,4,1,,
63e529b9c964037317069e6e,2023-06-16_10h16.22.460,phx_ver10,2022.2.5,Win32,60.48874909,,,,,,,,,,,,69,testing_3,zh2j,i,zh2j_i,zh2j_1_izhi.wav,zh2j_1_izhi.wav,,TRUE,FALSE,,,,,,,,,,,,,,f,0.4012,space,0.5184,,,,,,,,0,135,135,68,1,,
63e529b9c964037317069e6e,2023-06-16_10h16.22.460,phx_ver10,2022.2.5,Win32,60.48874909,,,,,,,,,,,,29,testing_3,zh2sh,ai,zh2sh_ai,zh2sh_1_aizhai.wav,zh2sh_1_aizhai.wav,,TRUE,FALSE,,,,,,,,,,,,,,f,0.3562,space,0.4333,,,,,,,,0,136,136,28,1,,
63e529b9c964037317069e6e,2023-06-16_10h16.22.460,phx_ver10,2022.2.5,Win32,60.48874909,,,,,,,,,,,,52,testing_3,zh2j,a,zh2j_a,zh2j_8_aja.wav,zh2j_1_azha.wav,,FALSE,FALSE,,,,,,,,,,,,,,f,0.1511,space,0.3011,,,,,,,,0,137,137,51,1,,
63e529b9c964037317069e6e,2023-06-16_10h16.22.460,phx_ver10,2022.2.5,Win32,60.48874909,,,,,,,,,,,,53,testing_3,zh2j,ai,zh2j_ai,zh2j_1_aizhai.wav,zh2j_1_aizhai.wav,,TRUE,FALSE,,,,,,,,,,,,,,f,0.1504,space,0.3504,,,,,,,,0,138,138,52,1,,
63e529b9c964037317069e6e,2023-06-16_10h16.22.460,phx_ver10,2022.2.5,Win32,60.48874909,,,,,,,,,,,,127,testing_3,sh2j,ai,sh2j_ai,sh2j_1_aishai.wav,sh2j_8_aijai.wav,,FALSE,FALSE,,,,,,,,,,,,,,j,0.0336,space,0.3574,,,,,,,,0,139,139,126,1,,
63e529b9c964037317069e6e,2023-06-16_10h16.22.460,phx_ver10,2022.2.5,Win32,60.48874909,,,,,,,,,,,,118,testing_3,sh2x,i,sh2x_i,sh2x_8_ixi.wav,sh2x_8_ixi.wav,,TRUE,FALSE,,,,,,,,,,,,,,f,0.2032,space,0.651,,,,,,,,0,140,140,117,1,,
63e529b9c964037317069e6e,2023-06-16_10h16.22.460,phx_ver10,2022.2.5,Win32,60.48874909,,,,,,,,,,,,45,testing_3,zh2sh,i,zh2sh_i,zh2sh_1_izhi.wav,zh2sh_1_izhi.wav,,TRUE,FALSE,,,,,,,,,,,,,,f,0.3512,space,0.5591,,,,,,,,0,141,141,44,1,,
63e529b9c964037317069e6e,2023-06-16_10h16.22.460,phx_ver10,2022.2.5,Win32,60.48874909,,,,,,,,,,,,61,testing_3,zh2j,e,zh2j_e,zh2j_1_ezhe.wav,zh2j_1_ezhe.wav,,TRUE,FALSE,,,,,,,,,,,,,,f,0.3399,space,0.4981,,,,,,,,0,142,142,60,1,,
63e529b9c964037317069e6e,2023-06-16_10h16.22.460,phx_ver10,2022.2.5,Win32,60.48874909,,,,,,,,,,,,119,testing_3,sh2x,i,sh2x_i,sh2x_1_ishi.wav,sh2x_8_ixi.wav,,FALSE,FALSE,,,,,,,,,,,,,,j,1.2869,space,1.319,,,,,,,,0,143,143,118,1,,
63e529b9c964037317069e6e,2023-06-16_10h16.22.460,phx_ver10,2022.2.5,Win32,60.48874909,,,,,,,,,,,,,,,,,,,,,,,,,,,,,,,,,,,,,,,,,,,,,,,,,,,space,2.9225
