participant,date,expName,psychopyVersion,OS,frameRate,space_1.keys,space_1.rt,space_2.keys,space_2.rt,space_train.keys,space_train.rt,training.thisRepN,training.thisTrialN,training.thisN,training.thisIndex,training.ran,token_id,task,continuum,vowel,series,sound_1,sound_2,img,same,trained,FJ_attn.keys,FJ_attn.rt,space_attn.keys,space_attn.rt,if_attn_test.thisRepN,if_attn_test.thisTrialN,if_attn_test.thisN,if_attn_test.thisIndex,if_attn_test.ran,space_trans_1.keys,space_trans_1.rt,space_trans_11.keys,space_trans_11.rt,FJ_test.keys,FJ_test.rt,space_test.keys,space_test.rt,testing_pre.thisRepN,testing_pre.thisTrialN,testing_pre.thisN,testing_pre.thisIndex,testing_pre.ran,space_trans_2.keys,space_trans_2.rt,testing_all.thisRepN,testing_all.thisTrialN,testing_all.thisN,testing_all.thisIndex,testing_all.ran,space_ending.keys,space_ending.rt
63e5fdff7b61e61659be8eec,2023-06-16_10h02.34.253,phx_ver10,2022.2.5,Win32,59.93407252,,,,,,,,,,,,,,,,,,,,,,,,,,,,,,,,,,,,,,,,,,,,,,,,,,,,
63e5fdff7b61e61659be8eec,2023-06-16_10h02.34.253,phx_ver10,2022.2.5,Win32,59.93407252,space,3.8659,,,,,,,,,,,,,,,,,,,,,,,,,,,,,,,,,,,,,,,,,,,,,,,,,,
63e5fdff7b61e61659be8eec,2023-06-16_10h02.34.253,phx_ver10,2022.2.5,Win32,59.93407252,,,space,7.3959,,,,,,,,,,,,,,,,,,,,,,,,,,,,,,,,,,,,,,,,,,,,,,,,
63e5fdff7b61e61659be8eec,2023-06-16_10h02.34.253,phx_ver10,2022.2.5,Win32,59.93407252,,,,,space,1.0337,0,0,0,36,1,37,training,zh2x,i,zh2x_i,zh2x_2_izhi.wav,,izhi.jpg,,,,,,,,,,,,,,,,,,,,,,,,,,,,,,,,,
63e5fdff7b61e61659be8eec,2023-06-16_10h02.34.253,phx_ver10,2022.2.5,Win32,59.93407252,,,,,space,0.2203,0,1,1,7,1,8,training,zh2x,a,zh2x_a,zh2x_4_azha.wav,,azha.jpg,,,,,,,,,,,,,,,,,,,,,,,,,,,,,,,,,
63e5fdff7b61e61659be8eec,2023-06-16_10h02.34.253,phx_ver10,2022.2.5,Win32,59.93407252,,,,,space,19.7187,0,2,2,25,1,26,training,zh2x,e,zh2x_e,zh2x_6_exe.wav,,exe.jpg,,,,,,,,,,,,,,,,,,,,,,,,,,,,,,,,,
63e5fdff7b61e61659be8eec,2023-06-16_10h02.34.253,phx_ver10,2022.2.5,Win32,59.93407252,,,,,space,0.8337,0,3,3,8,1,9,training,zh2x,a,zh2x_a,zh2x_5_axa.wav,,axa.jpg,,,,,,,,,,,,,,,,,,,,,,,,,,,,,,,,,
63e5fdff7b61e61659be8eec,2023-06-16_10h02.34.253,phx_ver10,2022.2.5,Win32,59.93407252,,,,,space,0.4646,0,4,4,22,1,23,training,zh2x,e,zh2x_e,zh2x_3_ezhe.wav,,ezhe.jpg,,,,,,,,,,,,,,,,,,,,,,,,,,,,,,,,,
63e5fdff7b61e61659be8eec,2023-06-16_10h02.34.253,phx_ver10,2022.2.5,Win32,59.93407252,,,,,space,0.3708,0,5,5,13,1,14,training,zh2x,a,zh2x_a,zh2x_7_axa.wav,,axa.jpg,,,,,,,,,,,,,,,,,,,,,,,,,,,,,,,,,
63e5fdff7b61e61659be8eec,2023-06-16_10h02.34.253,phx_ver10,2022.2.5,Win32,59.93407252,,,,,,,,,,,,,attn_test,,,,zh2x_1_azha.wav,zh2x_8_exe.wav,exe.jpg,RIGHT,,f,1.0087,space,1.8312,0,0,0,0,1,,,,,,,,,,,,,,,,,,,,,,
63e5fdff7b61e61659be8eec,2023-06-16_10h02.34.253,phx_ver10,2022.2.5,Win32,59.93407252,,,,,space,1.037,0,6,6,37,1,38,training,zh2x,i,zh2x_i,zh2x_3_izhi.wav,,izhi.jpg,,,,,,,,,,,,,,,,,,,,,,,,,,,,,,,,,
63e5fdff7b61e61659be8eec,2023-06-16_10h02.34.253,phx_ver10,2022.2.5,Win32,59.93407252,,,,,space,0.3509,0,7,7,40,1,41,training,zh2x,i,zh2x_i,zh2x_5_ixi.wav,,ixi.jpg,,,,,,,,,,,,,,,,,,,,,,,,,,,,,,,,,
63e5fdff7b61e61659be8eec,2023-06-16_10h02.34.253,phx_ver10,2022.2.5,Win32,59.93407252,,,,,space,0.7344,0,8,8,41,1,42,training,zh2x,i,zh2x_i,zh2x_6_ixi.wav,,ixi.jpg,,,,,,,,,,,,,,,,,,,,,,,,,,,,,,,,,
63e5fdff7b61e61659be8eec,2023-06-16_10h02.34.253,phx_ver10,2022.2.5,Win32,59.93407252,,,,,space,0.4014,0,9,9,9,1,10,training,zh2x,a,zh2x_a,zh2x_6_axa.wav,,axa.jpg,,,,,,,,,,,,,,,,,,,,,,,,,,,,,,,,,
63e5fdff7b61e61659be8eec,2023-06-16_10h02.34.253,phx_ver10,2022.2.5,Win32,59.93407252,,,,,space,217.3886,0,10,10,16,1,17,training,zh2x,e,zh2x_e,zh2x_1_ezhe.wav,,ezhe.jpg,,,,,,,,,,,,,,,,,,,,,,,,,,,,,,,,,
63e5fdff7b61e61659be8eec,2023-06-16_10h02.34.253,phx_ver10,2022.2.5,Win32,59.93407252,,,,,space,0.2852,0,11,11,27,1,28,training,zh2x,e,zh2x_e,zh2x_7_exe.wav,,exe.jpg,,,,,,,,,,,,,,,,,,,,,,,,,,,,,,,,,
63e5fdff7b61e61659be8eec,2023-06-16_10h02.34.253,phx_ver10,2022.2.5,Win32,59.93407252,,,,,,,,,,,,,attn_test,,,,zh2x_1_ezhe.wav,zh2x_8_exe.wav,ezhe.jpg,LEFT,,j,1.2671,space,1.4504,0,0,0,0,1,,,,,,,,,,,,,,,,,,,,,,
63e5fdff7b61e61659be8eec,2023-06-16_10h02.34.253,phx_ver10,2022.2.5,Win32,59.93407252,,,,,space,0.317,0,12,12,5,1,6,training,zh2x,a,zh2x_a,zh2x_3_azha.wav,,azha.jpg,,,,,,,,,,,,,,,,,,,,,,,,,,,,,,,,,
63e5fdff7b61e61659be8eec,2023-06-16_10h02.34.253,phx_ver10,2022.2.5,Win32,59.93407252,,,,,space,0.2067,0,13,13,6,1,7,training,zh2x,a,zh2x_a,zh2x_3_azha.wav,,azha.jpg,,,,,,,,,,,,,,,,,,,,,,,,,,,,,,,,,
63e5fdff7b61e61659be8eec,2023-06-16_10h02.34.253,phx_ver10,2022.2.5,Win32,59.93407252,,,,,space,0.125,0,14,14,18,1,19,training,zh2x,e,zh2x_e,zh2x_2_ezhe.wav,,ezhe.jpg,,,,,,,,,,,,,,,,,,,,,,,,,,,,,,,,,
63e5fdff7b61e61659be8eec,2023-06-16_10h02.34.253,phx_ver10,2022.2.5,Win32,59.93407252,,,,,space,0.3052,0,15,15,33,1,34,training,zh2x,i,zh2x_i,zh2x_2_izhi.wav,,izhi.jpg,,,,,,,,,,,,,,,,,,,,,,,,,,,,,,,,,
63e5fdff7b61e61659be8eec,2023-06-16_10h02.34.253,phx_ver10,2022.2.5,Win32,59.93407252,,,,,space,0.0597,0,16,16,32,1,33,training,zh2x,i,zh2x_i,zh2x_1_izhi.wav,,izhi.jpg,,,,,,,,,,,,,,,,,,,,,,,,,,,,,,,,,
63e5fdff7b61e61659be8eec,2023-06-16_10h02.34.253,phx_ver10,2022.2.5,Win32,59.93407252,,,,,space,0.1171,0,17,17,38,1,39,training,zh2x,i,zh2x_i,zh2x_3_izhi.wav,,izhi.jpg,,,,,,,,,,,,,,,,,,,,,,,,,,,,,,,,,
63e5fdff7b61e61659be8eec,2023-06-16_10h02.34.253,phx_ver10,2022.2.5,Win32,59.93407252,,,,,,,,,,,,,attn_test,,,,zh2x_1_ezhe.wav,zh2x_8_axa.wav,ezhe.jpg,LEFT,,f,0.1879,space,0.7835,0,0,0,0,1,,,,,,,,,,,,,,,,,,,,,,
63e5fdff7b61e61659be8eec,2023-06-16_10h02.34.253,phx_ver10,2022.2.5,Win32,59.93407252,,,,,space,0.3832,0,18,18,0,1,1,training,zh2x,a,zh2x_a,zh2x_1_azha.wav,,azha.jpg,,,,,,,,,,,,,,,,,,,,,,,,,,,,,,,,,
63e5fdff7b61e61659be8eec,2023-06-16_10h02.34.253,phx_ver10,2022.2.5,Win32,59.93407252,,,,,space,0.1017,0,19,19,28,1,29,training,zh2x,e,zh2x_e,zh2x_7_exe.wav,,exe.jpg,,,,,,,,,,,,,,,,,,,,,,,,,,,,,,,,,
63e5fdff7b61e61659be8eec,2023-06-16_10h02.34.253,phx_ver10,2022.2.5,Win32,59.93407252,,,,,space,7.7011,0,20,20,14,1,15,training,zh2x,a,zh2x_a,zh2x_7_axa.wav,,axa.jpg,,,,,,,,,,,,,,,,,,,,,,,,,,,,,,,,,
63e5fdff7b61e61659be8eec,2023-06-16_10h02.34.253,phx_ver10,2022.2.5,Win32,59.93407252,,,,,space,0.3345,0,21,21,30,1,31,training,zh2x,e,zh2x_e,zh2x_7_exe.wav,,exe.jpg,,,,,,,,,,,,,,,,,,,,,,,,,,,,,,,,,
63e5fdff7b61e61659be8eec,2023-06-16_10h02.34.253,phx_ver10,2022.2.5,Win32,59.93407252,,,,,space,4.9346,0,22,22,43,1,44,training,zh2x,i,zh2x_i,zh2x_7_ixi.wav,,ixi.jpg,,,,,,,,,,,,,,,,,,,,,,,,,,,,,,,,,
63e5fdff7b61e61659be8eec,2023-06-16_10h02.34.253,phx_ver10,2022.2.5,Win32,59.93407252,,,,,space,0.2356,0,23,23,12,1,13,training,zh2x,a,zh2x_a,zh2x_7_axa.wav,,axa.jpg,,,,,,,,,,,,,,,,,,,,,,,,,,,,,,,,,
63e5fdff7b61e61659be8eec,2023-06-16_10h02.34.253,phx_ver10,2022.2.5,Win32,59.93407252,,,,,,,,,,,,,attn_test,,,,zh2x_8_exe.wav,zh2x_8_axa.wav,axa.jpg,RIGHT,,j,1.3023,space,1.7905,0,0,0,0,1,,,,,,,,,,,,,,,,,,,,,,
63e5fdff7b61e61659be8eec,2023-06-16_10h02.34.253,phx_ver10,2022.2.5,Win32,59.93407252,,,,,space,4.6735,0,24,24,17,1,18,training,zh2x,e,zh2x_e,zh2x_2_ezhe.wav,,ezhe.jpg,,,,,,,,,,,,,,,,,,,,,,,,,,,,,,,,,
63e5fdff7b61e61659be8eec,2023-06-16_10h02.34.253,phx_ver10,2022.2.5,Win32,59.93407252,,,,,space,2.9612,0,25,25,47,1,48,training,zh2x,i,zh2x_i,zh2x_8_ixi.wav,,ixi.jpg,,,,,,,,,,,,,,,,,,,,,,,,,,,,,,,,,
63e5fdff7b61e61659be8eec,2023-06-16_10h02.34.253,phx_ver10,2022.2.5,Win32,59.93407252,,,,,space,0.0503,0,26,26,46,1,47,training,zh2x,i,zh2x_i,zh2x_7_ixi.wav,,ixi.jpg,,,,,,,,,,,,,,,,,,,,,,,,,,,,,,,,,
63e5fdff7b61e61659be8eec,2023-06-16_10h02.34.253,phx_ver10,2022.2.5,Win32,59.93407252,,,,,space,0.2434,0,27,27,21,1,22,training,zh2x,e,zh2x_e,zh2x_3_ezhe.wav,,ezhe.jpg,,,,,,,,,,,,,,,,,,,,,,,,,,,,,,,,,
63e5fdff7b61e61659be8eec,2023-06-16_10h02.34.253,phx_ver10,2022.2.5,Win32,59.93407252,,,,,space,0.1001,0,28,28,42,1,43,training,zh2x,i,zh2x_i,zh2x_6_ixi.wav,,ixi.jpg,,,,,,,,,,,,,,,,,,,,,,,,,,,,,,,,,
63e5fdff7b61e61659be8eec,2023-06-16_10h02.34.253,phx_ver10,2022.2.5,Win32,59.93407252,,,,,space,0.1212,0,29,29,26,1,27,training,zh2x,e,zh2x_e,zh2x_6_exe.wav,,exe.jpg,,,,,,,,,,,,,,,,,,,,,,,,,,,,,,,,,
63e5fdff7b61e61659be8eec,2023-06-16_10h02.34.253,phx_ver10,2022.2.5,Win32,59.93407252,,,,,,,,,,,,,attn_test,,,,zh2x_8_exe.wav,zh2x_1_azha.wav,exe.jpg,LEFT,,f,1.0672,space,1.4535,0,0,0,0,1,,,,,,,,,,,,,,,,,,,,,,
63e5fdff7b61e61659be8eec,2023-06-16_10h02.34.253,phx_ver10,2022.2.5,Win32,59.93407252,,,,,space,1.2337,0,30,30,45,1,46,training,zh2x,i,zh2x_i,zh2x_7_ixi.wav,,ixi.jpg,,,,,,,,,,,,,,,,,,,,,,,,,,,,,,,,,
63e5fdff7b61e61659be8eec,2023-06-16_10h02.34.253,phx_ver10,2022.2.5,Win32,59.93407252,,,,,space,0.0339,0,31,31,19,1,20,training,zh2x,e,zh2x_e,zh2x_2_ezhe.wav,,ezhe.jpg,,,,,,,,,,,,,,,,,,,,,,,,,,,,,,,,,
63e5fdff7b61e61659be8eec,2023-06-16_10h02.34.253,phx_ver10,2022.2.5,Win32,59.93407252,,,,,space,0.0113,0,32,32,29,1,30,training,zh2x,e,zh2x_e,zh2x_7_exe.wav,,exe.jpg,,,,,,,,,,,,,,,,,,,,,,,,,,,,,,,,,
63e5fdff7b61e61659be8eec,2023-06-16_10h02.34.253,phx_ver10,2022.2.5,Win32,59.93407252,,,,,space,0.7768,0,33,33,2,1,3,training,zh2x,a,zh2x_a,zh2x_2_azha.wav,,azha.jpg,,,,,,,,,,,,,,,,,,,,,,,,,,,,,,,,,
63e5fdff7b61e61659be8eec,2023-06-16_10h02.34.253,phx_ver10,2022.2.5,Win32,59.93407252,,,,,space,0.0032,0,34,34,31,1,32,training,zh2x,e,zh2x_e,zh2x_8_exe.wav,,exe.jpg,,,,,,,,,,,,,,,,,,,,,,,,,,,,,,,,,
63e5fdff7b61e61659be8eec,2023-06-16_10h02.34.253,phx_ver10,2022.2.5,Win32,59.93407252,,,,,space,0.0341,0,35,35,4,1,5,training,zh2x,a,zh2x_a,zh2x_2_azha.wav,,azha.jpg,,,,,,,,,,,,,,,,,,,,,,,,,,,,,,,,,
63e5fdff7b61e61659be8eec,2023-06-16_10h02.34.253,phx_ver10,2022.2.5,Win32,59.93407252,,,,,,,,,,,,,attn_test,,,,zh2x_1_azha.wav,zh2x_8_ixi.wav,azha.jpg,LEFT,,f,0.2896,space,0.7178,0,0,0,0,1,,,,,,,,,,,,,,,,,,,,,,
63e5fdff7b61e61659be8eec,2023-06-16_10h02.34.253,phx_ver10,2022.2.5,Win32,59.93407252,,,,,space,0.1177,0,36,36,3,1,4,training,zh2x,a,zh2x_a,zh2x_2_azha.wav,,azha.jpg,,,,,,,,,,,,,,,,,,,,,,,,,,,,,,,,,
63e5fdff7b61e61659be8eec,2023-06-16_10h02.34.253,phx_ver10,2022.2.5,Win32,59.93407252,,,,,space,1.6504,0,37,37,34,1,35,training,zh2x,i,zh2x_i,zh2x_2_izhi.wav,,izhi.jpg,,,,,,,,,,,,,,,,,,,,,,,,,,,,,,,,,
63e5fdff7b61e61659be8eec,2023-06-16_10h02.34.253,phx_ver10,2022.2.5,Win32,59.93407252,,,,,space,0.0713,0,38,38,1,1,2,training,zh2x,a,zh2x_a,zh2x_2_azha.wav,,azha.jpg,,,,,,,,,,,,,,,,,,,,,,,,,,,,,,,,,
63e5fdff7b61e61659be8eec,2023-06-16_10h02.34.253,phx_ver10,2022.2.5,Win32,59.93407252,,,,,space,0.2116,0,39,39,10,1,11,training,zh2x,a,zh2x_a,zh2x_6_axa.wav,,axa.jpg,,,,,,,,,,,,,,,,,,,,,,,,,,,,,,,,,
63e5fdff7b61e61659be8eec,2023-06-16_10h02.34.253,phx_ver10,2022.2.5,Win32,59.93407252,,,,,space,0.1282,0,40,40,11,1,12,training,zh2x,a,zh2x_a,zh2x_7_axa.wav,,axa.jpg,,,,,,,,,,,,,,,,,,,,,,,,,,,,,,,,,
63e5fdff7b61e61659be8eec,2023-06-16_10h02.34.253,phx_ver10,2022.2.5,Win32,59.93407252,,,,,space,0.0562,0,41,41,35,1,36,training,zh2x,i,zh2x_i,zh2x_2_izhi.wav,,izhi.jpg,,,,,,,,,,,,,,,,,,,,,,,,,,,,,,,,,
63e5fdff7b61e61659be8eec,2023-06-16_10h02.34.253,phx_ver10,2022.2.5,Win32,59.93407252,,,,,,,,,,,,,attn_test,,,,zh2x_8_axa.wav,zh2x_1_izhi.wav,axa.jpg,LEFT,,f,5.084,space,5.5519,0,0,0,0,1,,,,,,,,,,,,,,,,,,,,,,
63e5fdff7b61e61659be8eec,2023-06-16_10h02.34.253,phx_ver10,2022.2.5,Win32,59.93407252,,,,,space,0.1214,0,42,42,24,1,25,training,zh2x,e,zh2x_e,zh2x_5_exe.wav,,exe.jpg,,,,,,,,,,,,,,,,,,,,,,,,,,,,,,,,,
63e5fdff7b61e61659be8eec,2023-06-16_10h02.34.253,phx_ver10,2022.2.5,Win32,59.93407252,,,,,space,0.2736,0,43,43,15,1,16,training,zh2x,a,zh2x_a,zh2x_8_axa.wav,,axa.jpg,,,,,,,,,,,,,,,,,,,,,,,,,,,,,,,,,
63e5fdff7b61e61659be8eec,2023-06-16_10h02.34.253,phx_ver10,2022.2.5,Win32,59.93407252,,,,,space,0.0895,0,44,44,44,1,45,training,zh2x,i,zh2x_i,zh2x_7_ixi.wav,,ixi.jpg,,,,,,,,,,,,,,,,,,,,,,,,,,,,,,,,,
63e5fdff7b61e61659be8eec,2023-06-16_10h02.34.253,phx_ver10,2022.2.5,Win32,59.93407252,,,,,space,1.1424,0,45,45,23,1,24,training,zh2x,e,zh2x_e,zh2x_4_ezhe.wav,,ezhe.jpg,,,,,,,,,,,,,,,,,,,,,,,,,,,,,,,,,
63e5fdff7b61e61659be8eec,2023-06-16_10h02.34.253,phx_ver10,2022.2.5,Win32,59.93407252,,,,,space,2.739,0,46,46,20,1,21,training,zh2x,e,zh2x_e,zh2x_2_ezhe.wav,,ezhe.jpg,,,,,,,,,,,,,,,,,,,,,,,,,,,,,,,,,
63e5fdff7b61e61659be8eec,2023-06-16_10h02.34.253,phx_ver10,2022.2.5,Win32,59.93407252,,,,,space,47.7814,0,47,47,39,1,40,training,zh2x,i,zh2x_i,zh2x_4_izhi.wav,,izhi.jpg,,,,,,,,,,,,,,,,,,,,,,,,,,,,,,,,,
63e5fdff7b61e61659be8eec,2023-06-16_10h02.34.253,phx_ver10,2022.2.5,Win32,59.93407252,,,,,,,,,,,,,attn_test,,,,zh2x_8_ixi.wav,zh2x_8_axa.wav,axa.jpg,RIGHT,,j,3.0597,space,3.8,,,,,,,,,,,,,,,,,,,,,,,,,,,
63e5fdff7b61e61659be8eec,2023-06-16_10h02.34.253,phx_ver10,2022.2.5,Win32,59.93407252,,,,,,,,,,,,,,,,,,,,,,,,,,,,,,,space,0.2176,,,,,,,,,,,,,,,,,,,,
63e5fdff7b61e61659be8eec,2023-06-16_10h02.34.253,phx_ver10,2022.2.5,Win32,59.93407252,,,,,,,,,,,,,,,,,,,,,,,,,,,,,,,,,space,0.3661,,,,,,,,,,,,,,,,,,
63e5fdff7b61e61659be8eec,2023-06-16_10h02.34.253,phx_ver10,2022.2.5,Win32,59.93407252,,,,,,,,,,,,4,testing_pre,,,,eihei.wav,eihei.wav,,TRUE,,,,,,,,,,,,,,,j,0.8809,space,1.5434,0,0,0,3,1,,,,,,,,,
63e5fdff7b61e61659be8eec,2023-06-16_10h02.34.253,phx_ver10,2022.2.5,Win32,59.93407252,,,,,,,,,,,,2,testing_pre,,,,auhau.wav,aufau.wav,,FALSE,,,,,,,,,,,,,,,j,0.8954,space,1.3699,0,1,1,1,1,,,,,,,,,
63e5fdff7b61e61659be8eec,2023-06-16_10h02.34.253,phx_ver10,2022.2.5,Win32,59.93407252,,,,,,,,,,,,5,testing_pre,,,,ihi.wav,ifi.wav,,FALSE,,,,,,,,,,,,,,,j,0.4503,space,0.7764,0,2,2,4,1,,,,,,,,,
63e5fdff7b61e61659be8eec,2023-06-16_10h02.34.253,phx_ver10,2022.2.5,Win32,59.93407252,,,,,,,,,,,,1,testing_pre,,,,ifi.wav,ifi.wav,,TRUE,,,,,,,,,,,,,,,j,0.2196,space,0.4679,0,3,3,0,1,,,,,,,,,
63e5fdff7b61e61659be8eec,2023-06-16_10h02.34.253,phx_ver10,2022.2.5,Win32,59.93407252,,,,,,,,,,,,3,testing_pre,,,,afa.wav,aha.wav,,FALSE,,,,,,,,,,,,,,,f,0.6375,space,0.9843,0,4,4,2,1,,,,,,,,,
63e5fdff7b61e61659be8eec,2023-06-16_10h02.34.253,phx_ver10,2022.2.5,Win32,59.93407252,,,,,,,,,,,,,,,,,,,,,,,,,,,,,,,,,,,,,,,,,,,,space,0.4823,,,,,,,
63e5fdff7b61e61659be8eec,2023-06-16_10h02.34.253,phx_ver10,2022.2.5,Win32,59.93407252,,,,,,,,,,,,74,testing_3,j2x,a,j2x_a,j2x_8_axa.wav,j2x_8_axa.wav,,TRUE,FALSE,,,,,,,,,,,,,,f,0.5005,space,0.7674,,,,,,,,0,0,0,73,1,,
63e5fdff7b61e61659be8eec,2023-06-16_10h02.34.253,phx_ver10,2022.2.5,Win32,59.93407252,,,,,,,,,,,,55,testing_3,zh2j,ai,zh2j_ai,zh2j_1_aizhai.wav,zh2j_8_aijai.wav,,FALSE,FALSE,,,,,,,,,,,,,,j,0.0673,space,0.3006,,,,,,,,0,1,1,54,1,,
63e5fdff7b61e61659be8eec,2023-06-16_10h02.34.253,phx_ver10,2022.2.5,Win32,59.93407252,,,,,,,,,,,,59,testing_3,zh2j,au,zh2j_au,zh2j_1_auzhau.wav,zh2j_8_aujau.wav,,FALSE,FALSE,,,,,,,,,,,,,,j,0.6341,space,0.8674,,,,,,,,0,2,2,58,1,,
63e5fdff7b61e61659be8eec,2023-06-16_10h02.34.253,phx_ver10,2022.2.5,Win32,59.93407252,,,,,,,,,,,,120,testing_3,sh2x,i,sh2x_i,sh2x_8_ixi.wav,sh2x_1_ishi.wav,,FALSE,FALSE,,,,,,,,,,,,,,f,0.4338,space,0.7171,,,,,,,,0,3,3,119,1,,
63e5fdff7b61e61659be8eec,2023-06-16_10h02.34.253,phx_ver10,2022.2.5,Win32,59.93407252,,,,,,,,,,,,79,testing_3,j2x,ai,j2x_ai,j2x_1_aijai.wav,j2x_8_aixai.wav,,FALSE,FALSE,,,,,,,,,,,,,,j,0.1256,space,0.3674,,,,,,,,0,4,4,78,1,,
63e5fdff7b61e61659be8eec,2023-06-16_10h02.34.253,phx_ver10,2022.2.5,Win32,59.93407252,,,,,,,,,,,,15,testing_2,zh2x,ai,zh2x_ai,zh2x_1_aizhai.wav,zh2x_8_aixai.wav,,FALSE,FALSE,,,,,,,,,,,,,,j,0.7173,space,0.9837,,,,,,,,0,5,5,14,1,,
63e5fdff7b61e61659be8eec,2023-06-16_10h02.34.253,phx_ver10,2022.2.5,Win32,59.93407252,,,,,,,,,,,,134,testing_3,sh2j,e,sh2j_e,sh2j_8_eje.wav,sh2j_8_eje.wav,,TRUE,FALSE,,,,,,,,,,,,,,f,3.3007,space,3.5502,,,,,,,,0,6,6,133,1,,
63e5fdff7b61e61659be8eec,2023-06-16_10h02.34.253,phx_ver10,2022.2.5,Win32,59.93407252,,,,,,,,,,,,112,testing_3,sh2x,e,sh2x_e,sh2x_8_exe.wav,sh2x_1_eshe.wav,,FALSE,FALSE,,,,,,,,,,,,,,f,0.0672,space,0.4171,,,,,,,,0,7,7,111,1,,
63e5fdff7b61e61659be8eec,2023-06-16_10h02.34.253,phx_ver10,2022.2.5,Win32,59.93407252,,,,,,,,,,,,73,testing_3,j2x,a,j2x_a,j2x_1_aja.wav,j2x_1_aja.wav,,TRUE,FALSE,,,,,,,,,,,,,,f,0.9671,space,1.3671,,,,,,,,0,8,8,72,1,,
63e5fdff7b61e61659be8eec,2023-06-16_10h02.34.253,phx_ver10,2022.2.5,Win32,59.93407252,,,,,,,,,,,,106,testing_3,sh2x,au,sh2x_au,sh2x_8_auxau.wav,sh2x_8_auxau.wav,,TRUE,FALSE,,,,,,,,,,,,,,j,0.2335,space,0.5834,,,,,,,,0,9,9,105,1,,
63e5fdff7b61e61659be8eec,2023-06-16_10h02.34.253,phx_ver10,2022.2.5,Win32,59.93407252,,,,,,,,,,,,97,testing_3,sh2x,a,sh2x_a,sh2x_1_asha.wav,sh2x_1_asha.wav,,TRUE,FALSE,,,,,,,,,,,,,,f,0.1843,space,0.4732,,,,,,,,0,10,10,96,1,,
63e5fdff7b61e61659be8eec,2023-06-16_10h02.34.253,phx_ver10,2022.2.5,Win32,59.93407252,,,,,,,,,,,,142,testing_3,sh2j,i,sh2j_i,sh2j_8_iji.wav,sh2j_8_iji.wav,,TRUE,FALSE,,,,,,,,,,,,,,f,1.6173,space,1.8505,,,,,,,,0,11,11,141,1,,
63e5fdff7b61e61659be8eec,2023-06-16_10h02.34.253,phx_ver10,2022.2.5,Win32,59.93407252,,,,,,,,,,,,42,testing_3,zh2sh,ei,zh2sh_ei,zh2sh_8_eishei.wav,zh2sh_8_eishei.wav,,TRUE,FALSE,,,,,,,,,,,,,,j,0.3504,space,0.6169,,,,,,,,0,12,12,41,1,,
63e5fdff7b61e61659be8eec,2023-06-16_10h02.34.253,phx_ver10,2022.2.5,Win32,59.93407252,,,,,,,,,,,,81,testing_3,j2x,au,j2x_au,j2x_1_aujau.wav,j2x_1_aujau.wav,,TRUE,FALSE,,,,,,,,,,,,,,j,0.0006,space,0.3502,,,,,,,,0,13,13,80,1,,
63e5fdff7b61e61659be8eec,2023-06-16_10h02.34.253,phx_ver10,2022.2.5,Win32,59.93407252,,,,,,,,,,,,116,testing_3,sh2x,ei,sh2x_ei,sh2x_8_eixei.wav,sh2x_1_eishei.wav,,FALSE,FALSE,,,,,,,,,,,,,,j,1.9837,space,2.8836,,,,,,,,0,14,14,115,1,,
63e5fdff7b61e61659be8eec,2023-06-16_10h02.34.253,phx_ver10,2022.2.5,Win32,59.93407252,,,,,,,,,,,,22,testing_2,zh2x,ei,zh2x_ei,zh2x_8_eixei.wav,zh2x_8_eixei.wav,,TRUE,FALSE,,,,,,,,,,,,,,j,2.8504,space,3.1506,,,,,,,,0,15,15,21,1,,
63e5fdff7b61e61659be8eec,2023-06-16_10h02.34.253,phx_ver10,2022.2.5,Win32,59.93407252,,,,,,,,,,,,141,testing_3,sh2j,i,sh2j_i,sh2j_1_ishi.wav,sh2j_1_ishi.wav,,TRUE,FALSE,,,,,,,,,,,,,,j,0.6838,space,1.0836,,,,,,,,0,16,16,140,1,,
63e5fdff7b61e61659be8eec,2023-06-16_10h02.34.253,phx_ver10,2022.2.5,Win32,59.93407252,,,,,,,,,,,,25,testing_3,zh2sh,a,zh2sh_a,zh2sh_1_azha.wav,zh2sh_1_azha.wav,,TRUE,FALSE,,,,,,,,,,,,,,f,2.0169,space,2.3339,,,,,,,,0,17,17,24,1,,
63e5fdff7b61e61659be8eec,2023-06-16_10h02.34.253,phx_ver10,2022.2.5,Win32,59.93407252,,,,,,,,,,,,47,testing_3,zh2sh,i,zh2sh_i,zh2sh_1_izhi.wav,zh2sh_8_ishi.wav,,FALSE,FALSE,,,,,,,,,,,,,,f,0.2672,space,0.5338,,,,,,,,0,18,18,46,1,,
63e5fdff7b61e61659be8eec,2023-06-16_10h02.34.253,phx_ver10,2022.2.5,Win32,59.93407252,,,,,,,,,,,,103,testing_3,sh2x,ai,sh2x_ai,sh2x_1_aishai.wav,sh2x_8_aixai.wav,,FALSE,FALSE,,,,,,,,,,,,,,j,0.1842,space,0.4837,,,,,,,,0,19,19,102,1,,
63e5fdff7b61e61659be8eec,2023-06-16_10h02.34.253,phx_ver10,2022.2.5,Win32,59.93407252,,,,,,,,,,,,122,testing_3,sh2j,a,sh2j_a,sh2j_8_aja.wav,sh2j_8_aja.wav,,TRUE,FALSE,,,,,,,,,,,,,,f,0.901,space,1.167,,,,,,,,0,20,20,121,1,,
63e5fdff7b61e61659be8eec,2023-06-16_10h02.34.253,phx_ver10,2022.2.5,Win32,59.93407252,,,,,,,,,,,,127,testing_3,sh2j,ai,sh2j_ai,sh2j_1_aishai.wav,sh2j_8_aijai.wav,,FALSE,FALSE,,,,,,,,,,,,,,j,0.7144,space,0.9813,,,,,,,,0,21,21,126,1,,
63e5fdff7b61e61659be8eec,2023-06-16_10h02.34.253,phx_ver10,2022.2.5,Win32,59.93407252,,,,,,,,,,,,98,testing_3,sh2x,a,sh2x_a,sh2x_8_axa.wav,sh2x_8_axa.wav,,TRUE,FALSE,,,,,,,,,,,,,,f,0.0175,space,0.3502,,,,,,,,0,22,22,97,1,,
63e5fdff7b61e61659be8eec,2023-06-16_10h02.34.253,phx_ver10,2022.2.5,Win32,59.93407252,,,,,,,,,,,,56,testing_3,zh2j,ai,zh2j_ai,zh2j_8_aijai.wav,zh2j_1_aizhai.wav,,FALSE,FALSE,,,,,,,,,,,,,,j,0.0343,space,0.3338,,,,,,,,0,23,23,55,1,,
63e5fdff7b61e61659be8eec,2023-06-16_10h02.34.253,phx_ver10,2022.2.5,Win32,59.93407252,,,,,,,,,,,,132,testing_3,sh2j,au,sh2j_au,sh2j_8_aujau.wav,sh2j_1_aushau.wav,,FALSE,FALSE,,,,,,,,,,,,,,j,0.4033,space,0.7172,,,,,,,,0,24,24,131,1,,
63e5fdff7b61e61659be8eec,2023-06-16_10h02.34.253,phx_ver10,2022.2.5,Win32,59.93407252,,,,,,,,,,,,20,testing_2,zh2x,au,zh2x_au,zh2x_8_auxau.wav,zh2x_1_auzhau.wav,,FALSE,FALSE,,,,,,,,,,,,,,j,0.1336,space,0.6002,,,,,,,,0,25,25,19,1,,
63e5fdff7b61e61659be8eec,2023-06-16_10h02.34.253,phx_ver10,2022.2.5,Win32,59.93407252,,,,,,,,,,,,119,testing_3,sh2x,i,sh2x_i,sh2x_1_ishi.wav,sh2x_8_ixi.wav,,FALSE,FALSE,,,,,,,,,,,,,,j,0.5173,space,0.8851,,,,,,,,0,26,26,118,1,,
63e5fdff7b61e61659be8eec,2023-06-16_10h02.34.253,phx_ver10,2022.2.5,Win32,59.93407252,,,,,,,,,,,,129,testing_3,sh2j,au,sh2j_au,sh2j_1_aushau.wav,sh2j_1_aushau.wav,,TRUE,FALSE,,,,,,,,,,,,,,j,0.6502,space,1.0834,,,,,,,,0,27,27,128,1,,
63e5fdff7b61e61659be8eec,2023-06-16_10h02.34.253,phx_ver10,2022.2.5,Win32,59.93407252,,,,,,,,,,,,77,testing_3,j2x,ai,j2x_ai,j2x_1_aijai.wav,j2x_1_aijai.wav,,TRUE,FALSE,,,,,,,,,,,,,,j,0.4004,space,0.8005,,,,,,,,0,28,28,76,1,,
63e5fdff7b61e61659be8eec,2023-06-16_10h02.34.253,phx_ver10,2022.2.5,Win32,59.93407252,,,,,,,,,,,,65,testing_3,zh2j,ei,zh2j_ei,zh2j_1_eizhei.wav,zh2j_1_eizhei.wav,,TRUE,FALSE,,,,,,,,,,,,,,j,2.2504,space,2.4834,,,,,,,,0,29,29,64,1,,
63e5fdff7b61e61659be8eec,2023-06-16_10h02.34.253,phx_ver10,2022.2.5,Win32,59.93407252,,,,,,,,,,,,93,testing_3,j2x,i,j2x_i,j2x_1_iji.wav,j2x_1_iji.wav,,TRUE,FALSE,,,,,,,,,,,,,,f,3.6167,space,4.5332,,,,,,,,0,30,30,92,1,,
63e5fdff7b61e61659be8eec,2023-06-16_10h02.34.253,phx_ver10,2022.2.5,Win32,59.93407252,,,,,,,,,,,,83,testing_3,j2x,au,j2x_au,j2x_1_aujau.wav,j2x_8_auxau.wav,,FALSE,FALSE,,,,,,,,,,,,,,j,0.2841,space,0.5672,,,,,,,,0,31,31,82,1,,
63e5fdff7b61e61659be8eec,2023-06-16_10h02.34.253,phx_ver10,2022.2.5,Win32,59.93407252,,,,,,,,,,,,70,testing_3,zh2j,i,zh2j_i,zh2j_8_iji.wav,zh2j_8_iji.wav,,TRUE,FALSE,,,,,,,,,,,,,,f,0.3172,space,0.5507,,,,,,,,0,32,32,69,1,,
63e5fdff7b61e61659be8eec,2023-06-16_10h02.34.253,phx_ver10,2022.2.5,Win32,59.93407252,,,,,,,,,,,,7,testing_1,zh2x,e,zh2x_e,zh2x_1_ezhe.wav,zh2x_8_exe.wav,,FALSE,TRUE,,,,,,,,,,,,,,f,2.3838,space,2.6172,,,,,,,,0,33,33,6,1,,
63e5fdff7b61e61659be8eec,2023-06-16_10h02.34.253,phx_ver10,2022.2.5,Win32,59.93407252,,,,,,,,,,,,51,testing_3,zh2j,a,zh2j_a,zh2j_1_azha.wav,zh2j_8_aja.wav,,FALSE,FALSE,,,,,,,,,,,,,,j,42.0621,space,42.4788,,,,,,,,0,34,34,50,1,,
63e5fdff7b61e61659be8eec,2023-06-16_10h02.34.253,phx_ver10,2022.2.5,Win32,59.93407252,,,,,,,,,,,,105,testing_3,sh2x,au,sh2x_au,sh2x_1_aushau.wav,sh2x_1_aushau.wav,,TRUE,FALSE,,,,,,,,,,,,,,j,0.5172,space,0.8503,,,,,,,,0,35,35,104,1,,
63e5fdff7b61e61659be8eec,2023-06-16_10h02.34.253,phx_ver10,2022.2.5,Win32,59.93407252,,,,,,,,,,,,12,testing_1,zh2x,i,zh2x_i,zh2x_8_ixi.wav,zh2x_1_izhi.wav,,FALSE,TRUE,,,,,,,,,,,,,,f,1.6169,space,1.8838,,,,,,,,0,36,36,11,1,,
63e5fdff7b61e61659be8eec,2023-06-16_10h02.34.253,phx_ver10,2022.2.5,Win32,59.93407252,,,,,,,,,,,,43,testing_3,zh2sh,ei,zh2sh_ei,zh2sh_1_eizhei.wav,zh2sh_8_eishei.wav,,FALSE,FALSE,,,,,,,,,,,,,,j,1.0672,space,1.3503,,,,,,,,0,37,37,42,1,,
63e5fdff7b61e61659be8eec,2023-06-16_10h02.34.253,phx_ver10,2022.2.5,Win32,59.93407252,,,,,,,,,,,,49,testing_3,zh2j,a,zh2j_a,zh2j_1_azha.wav,zh2j_1_azha.wav,,TRUE,FALSE,,,,,,,,,,,,,,f,1.2171,space,1.5171,,,,,,,,0,38,38,48,1,,
63e5fdff7b61e61659be8eec,2023-06-16_10h02.34.253,phx_ver10,2022.2.5,Win32,59.93407252,,,,,,,,,,,,135,testing_3,sh2j,e,sh2j_e,sh2j_1_eshe.wav,sh2j_8_eje.wav,,FALSE,FALSE,,,,,,,,,,,,,,f,0.1838,space,0.5004,,,,,,,,0,39,39,134,1,,
63e5fdff7b61e61659be8eec,2023-06-16_10h02.34.253,phx_ver10,2022.2.5,Win32,59.93407252,,,,,,,,,,,,94,testing_3,j2x,i,j2x_i,j2x_8_ixi.wav,j2x_8_ixi.wav,,TRUE,FALSE,,,,,,,,,,,,,,f,0.3176,space,0.5842,,,,,,,,0,40,40,93,1,,
63e5fdff7b61e61659be8eec,2023-06-16_10h02.34.253,phx_ver10,2022.2.5,Win32,59.93407252,,,,,,,,,,,,91,testing_3,j2x,ei,j2x_ei,j2x_1_eijei.wav,j2x_8_eixei.wav,,FALSE,FALSE,,,,,,,,,,,,,,j,0.0339,space,0.3845,,,,,,,,0,41,41,90,1,,
63e5fdff7b61e61659be8eec,2023-06-16_10h02.34.253,phx_ver10,2022.2.5,Win32,59.93407252,,,,,,,,,,,,130,testing_3,sh2j,au,sh2j_au,sh2j_8_aujau.wav,sh2j_8_aujau.wav,,TRUE,FALSE,,,,,,,,,,,,,,j,0.3173,space,0.6673,,,,,,,,0,42,42,129,1,,
63e5fdff7b61e61659be8eec,2023-06-16_10h02.34.253,phx_ver10,2022.2.5,Win32,59.93407252,,,,,,,,,,,,16,testing_2,zh2x,ai,zh2x_ai,zh2x_8_aixai.wav,zh2x_1_aizhai.wav,,FALSE,FALSE,,,,,,,,,,,,,,j,0.0508,space,0.384,,,,,,,,0,43,43,15,1,,
63e5fdff7b61e61659be8eec,2023-06-16_10h02.34.253,phx_ver10,2022.2.5,Win32,59.93407252,,,,,,,,,,,,136,testing_3,sh2j,e,sh2j_e,sh2j_8_eje.wav,sh2j_1_eshe.wav,,FALSE,FALSE,,,,,,,,,,,,,,f,0.1504,space,0.4506,,,,,,,,0,44,44,135,1,,
63e5fdff7b61e61659be8eec,2023-06-16_10h02.34.253,phx_ver10,2022.2.5,Win32,59.93407252,,,,,,,,,,,,2,testing_1,zh2x,a,zh2x_a,zh2x_8_axa.wav,zh2x_8_axa_copy.wav,,TRUE,TRUE,,,,,,,,,,,,,,f,0.4338,space,0.7505,,,,,,,,0,45,45,1,1,,
63e5fdff7b61e61659be8eec,2023-06-16_10h02.34.253,phx_ver10,2022.2.5,Win32,59.93407252,,,,,,,,,,,,29,testing_3,zh2sh,ai,zh2sh_ai,zh2sh_1_aizhai.wav,zh2sh_1_aizhai.wav,,TRUE,FALSE,,,,,,,,,,,,,,j,0.0673,space,0.3839,,,,,,,,0,46,46,28,1,,
63e5fdff7b61e61659be8eec,2023-06-16_10h02.34.253,phx_ver10,2022.2.5,Win32,59.93407252,,,,,,,,,,,,27,testing_3,zh2sh,a,zh2sh_a,zh2sh_1_azha.wav,zh2sh_8_asha.wav,,FALSE,FALSE,,,,,,,,,,,,,,f,0.7669,space,1.0335,,,,,,,,0,47,47,26,1,,
63e5fdff7b61e61659be8eec,2023-06-16_10h02.34.253,phx_ver10,2022.2.5,Win32,59.93407252,,,,,,,,,,,,61,testing_3,zh2j,e,zh2j_e,zh2j_1_ezhe.wav,zh2j_1_ezhe.wav,,TRUE,FALSE,,,,,,,,,,,,,,f,2.7677,space,3.0841,,,,,,,,0,48,48,60,1,,
63e5fdff7b61e61659be8eec,2023-06-16_10h02.34.253,phx_ver10,2022.2.5,Win32,59.93407252,,,,,,,,,,,,10,testing_1,zh2x,i,zh2x_i,zh2x_8_ixi.wav,zh2x_8_ixi_copy.wav,,TRUE,TRUE,,,,,,,,,,,,,,f,0.7505,space,0.9672,,,,,,,,0,49,49,9,1,,
63e5fdff7b61e61659be8eec,2023-06-16_10h02.34.253,phx_ver10,2022.2.5,Win32,59.93407252,,,,,,,,,,,,23,testing_2,zh2x,ei,zh2x_ei,zh2x_1_eizhei.wav,zh2x_8_eixei.wav,,FALSE,FALSE,,,,,,,,,,,,,,j,0.4004,space,0.6509,,,,,,,,0,50,50,22,1,,
63e5fdff7b61e61659be8eec,2023-06-16_10h02.34.253,phx_ver10,2022.2.5,Win32,59.93407252,,,,,,,,,,,,90,testing_3,j2x,ei,j2x_ei,j2x_8_eixei.wav,j2x_8_eixei.wav,,TRUE,FALSE,,,,,,,,,,,,,,j,0.1675,space,0.417,,,,,,,,0,51,51,89,1,,
63e5fdff7b61e61659be8eec,2023-06-16_10h02.34.253,phx_ver10,2022.2.5,Win32,59.93407252,,,,,,,,,,,,126,testing_3,sh2j,ai,sh2j_ai,sh2j_8_aijai.wav,sh2j_8_aijai.wav,,TRUE,FALSE,,,,,,,,,,,,,,j,0.218,space,0.4505,,,,,,,,0,52,52,125,1,,
63e5fdff7b61e61659be8eec,2023-06-16_10h02.34.253,phx_ver10,2022.2.5,Win32,59.93407252,,,,,,,,,,,,64,testing_3,zh2j,e,zh2j_e,zh2j_8_eje.wav,zh2j_1_ezhe.wav,,FALSE,FALSE,,,,,,,,,,,,,,f,0.0008,space,0.2837,,,,,,,,0,53,53,63,1,,
63e5fdff7b61e61659be8eec,2023-06-16_10h02.34.253,phx_ver10,2022.2.5,Win32,59.93407252,,,,,,,,,,,,40,testing_3,zh2sh,e,zh2sh_e,zh2sh_8_eshe.wav,zh2sh_1_ezhe.wav,,FALSE,FALSE,,,,,,,,,,,,,,f,0.1169,space,0.3836,,,,,,,,0,54,54,39,1,,
63e5fdff7b61e61659be8eec,2023-06-16_10h02.34.253,phx_ver10,2022.2.5,Win32,59.93407252,,,,,,,,,,,,75,testing_3,j2x,a,j2x_a,j2x_1_aja.wav,j2x_8_axa.wav,,FALSE,FALSE,,,,,,,,,,,,,,f,0.1504,space,0.417,,,,,,,,0,55,55,74,1,,
63e5fdff7b61e61659be8eec,2023-06-16_10h02.34.253,phx_ver10,2022.2.5,Win32,59.93407252,,,,,,,,,,,,125,testing_3,sh2j,ai,sh2j_ai,sh2j_1_aishai.wav,sh2j_1_aishai.wav,,TRUE,FALSE,,,,,,,,,,,,,,j,0.3507,space,0.401,,,,,,,,0,56,56,124,1,,
63e5fdff7b61e61659be8eec,2023-06-16_10h02.34.253,phx_ver10,2022.2.5,Win32,59.93407252,,,,,,,,,,,,46,testing_3,zh2sh,i,zh2sh_i,zh2sh_8_ishi.wav,zh2sh_8_ishi.wav,,TRUE,FALSE,,,,,,,,,,,,,,f,0.084,space,0.2673,,,,,,,,0,57,57,45,1,,
63e5fdff7b61e61659be8eec,2023-06-16_10h02.34.253,phx_ver10,2022.2.5,Win32,59.93407252,,,,,,,,,,,,104,testing_3,sh2x,ai,sh2x_ai,sh2x_8_aixai.wav,sh2x_1_aishai.wav,,FALSE,FALSE,,,,,,,,,,,,,,j,0.1338,space,0.4173,,,,,,,,0,58,58,103,1,,
63e5fdff7b61e61659be8eec,2023-06-16_10h02.34.253,phx_ver10,2022.2.5,Win32,59.93407252,,,,,,,,,,,,5,testing_1,zh2x,e,zh2x_e,zh2x_1_ezhe.wav,zh2x_1_ezhe_copy.wav,,TRUE,TRUE,,,,,,,,,,,,,,f,0.1171,space,0.401,,,,,,,,0,59,59,4,1,,
63e5fdff7b61e61659be8eec,2023-06-16_10h02.34.253,phx_ver10,2022.2.5,Win32,59.93407252,,,,,,,,,,,,117,testing_3,sh2x,i,sh2x_i,sh2x_1_ishi.wav,sh2x_1_ishi.wav,,TRUE,FALSE,,,,,,,,,,,,,,f,0.4505,space,0.634,,,,,,,,0,60,60,116,1,,
63e5fdff7b61e61659be8eec,2023-06-16_10h02.34.253,phx_ver10,2022.2.5,Win32,59.93407252,,,,,,,,,,,,144,testing_3,sh2j,i,sh2j_i,sh2j_8_iji.wav,sh2j_1_ishi.wav,,FALSE,FALSE,,,,,,,,,,,,,,f,0.2505,space,0.4675,,,,,,,,0,61,61,143,1,,
63e5fdff7b61e61659be8eec,2023-06-16_10h02.34.253,phx_ver10,2022.2.5,Win32,59.93407252,,,,,,,,,,,,38,testing_3,zh2sh,e,zh2sh_e,zh2sh_8_eshe.wav,zh2sh_8_eshe.wav,,TRUE,FALSE,,,,,,,,,,,,,,f,0.3003,space,0.5336,,,,,,,,0,62,62,37,1,,
63e5fdff7b61e61659be8eec,2023-06-16_10h02.34.253,phx_ver10,2022.2.5,Win32,59.93407252,,,,,,,,,,,,53,testing_3,zh2j,ai,zh2j_ai,zh2j_1_aizhai.wav,zh2j_1_aizhai.wav,,TRUE,FALSE,,,,,,,,,,,,,,j,0.084,space,0.4008,,,,,,,,0,63,63,52,1,,
63e5fdff7b61e61659be8eec,2023-06-16_10h02.34.253,phx_ver10,2022.2.5,Win32,59.93407252,,,,,,,,,,,,128,testing_3,sh2j,ai,sh2j_ai,sh2j_8_aijai.wav,sh2j_1_aishai.wav,,FALSE,FALSE,,,,,,,,,,,,,,j,0.134,space,0.4339,,,,,,,,0,64,64,127,1,,
63e5fdff7b61e61659be8eec,2023-06-16_10h02.34.253,phx_ver10,2022.2.5,Win32,59.93407252,,,,,,,,,,,,107,testing_3,sh2x,au,sh2x_au,sh2x_1_aushau.wav,sh2x_8_auxau.wav,,FALSE,FALSE,,,,,,,,,,,,,,j,0.0343,space,0.3673,,,,,,,,0,65,65,106,1,,
63e5fdff7b61e61659be8eec,2023-06-16_10h02.34.253,phx_ver10,2022.2.5,Win32,59.93407252,,,,,,,,,,,,18,testing_2,zh2x,au,zh2x_au,zh2x_8_auxau.wav,zh2x_8_auxau.wav,,TRUE,FALSE,,,,,,,,,,,,,,j,0.4505,space,0.8504,,,,,,,,0,66,66,17,1,,
63e5fdff7b61e61659be8eec,2023-06-16_10h02.34.253,phx_ver10,2022.2.5,Win32,59.93407252,,,,,,,,,,,,69,testing_3,zh2j,i,zh2j_i,zh2j_1_izhi.wav,zh2j_1_izhi.wav,,TRUE,FALSE,,,,,,,,,,,,,,f,0.5338,space,0.7674,,,,,,,,0,67,67,68,1,,
63e5fdff7b61e61659be8eec,2023-06-16_10h02.34.253,phx_ver10,2022.2.5,Win32,59.93407252,,,,,,,,,,,,31,testing_3,zh2sh,ai,zh2sh_ai,zh2sh_1_aizhai.wav,zh2sh_8_aishai.wav,,FALSE,FALSE,,,,,,,,,,,,,,j,0.0342,space,0.3506,,,,,,,,0,68,68,30,1,,
63e5fdff7b61e61659be8eec,2023-06-16_10h02.34.253,phx_ver10,2022.2.5,Win32,59.93407252,,,,,,,,,,,,139,testing_3,sh2j,ei,sh2j_ei,sh2j_1_eishei.wav,sh2j_8_eijei.wav,,FALSE,FALSE,,,,,,,,,,,,,,f,0.1684,space,0.9171,,,,,,,,0,69,69,138,1,,
63e5fdff7b61e61659be8eec,2023-06-16_10h02.34.253,phx_ver10,2022.2.5,Win32,59.93407252,,,,,,,,,,,,138,testing_3,sh2j,ei,sh2j_ei,sh2j_8_eijei.wav,sh2j_8_eijei.wav,,TRUE,FALSE,,,,,,,,,,,,,,f,0.3839,space,0.6506,,,,,,,,0,70,70,137,1,,
63e5fdff7b61e61659be8eec,2023-06-16_10h02.34.253,phx_ver10,2022.2.5,Win32,59.93407252,,,,,,,,,,,,34,testing_3,zh2sh,au,zh2sh_au,zh2sh_8_aushau.wav,zh2sh_8_aushau.wav,,TRUE,FALSE,,,,,,,,,,,,,,j,0.0173,space,0.367,,,,,,,,0,71,71,33,1,,
63e5fdff7b61e61659be8eec,2023-06-16_10h02.34.253,phx_ver10,2022.2.5,Win32,59.93407252,,,,,,,,,,,,82,testing_3,j2x,au,j2x_au,j2x_8_auxau.wav,j2x_8_auxau.wav,,TRUE,FALSE,,,,,,,,,,,,,,j,0.1005,space,0.4004,,,,,,,,0,72,72,81,1,,
63e5fdff7b61e61659be8eec,2023-06-16_10h02.34.253,phx_ver10,2022.2.5,Win32,59.93407252,,,,,,,,,,,,71,testing_3,zh2j,i,zh2j_i,zh2j_1_izhi.wav,zh2j_8_iji.wav,,FALSE,FALSE,,,,,,,,,,,,,,f,0.3675,space,0.6841,,,,,,,,0,73,73,70,1,,
63e5fdff7b61e61659be8eec,2023-06-16_10h02.34.253,phx_ver10,2022.2.5,Win32,59.93407252,,,,,,,,,,,,57,testing_3,zh2j,au,zh2j_au,zh2j_1_auzhau.wav,zh2j_1_auzhau.wav,,TRUE,FALSE,,,,,,,,,,,,,,j,0.0337,space,0.3505,,,,,,,,0,74,74,56,1,,
63e5fdff7b61e61659be8eec,2023-06-16_10h02.34.253,phx_ver10,2022.2.5,Win32,59.93407252,,,,,,,,,,,,45,testing_3,zh2sh,i,zh2sh_i,zh2sh_1_izhi.wav,zh2sh_1_izhi.wav,,TRUE,FALSE,,,,,,,,,,,,,,f,0.0006,space,0.3507,,,,,,,,0,75,75,44,1,,
63e5fdff7b61e61659be8eec,2023-06-16_10h02.34.253,phx_ver10,2022.2.5,Win32,59.93407252,,,,,,,,,,,,1,testing_1,zh2x,a,zh2x_a,zh2x_1_azha.wav,zh2x_1_azha_copy.wav,,TRUE,TRUE,,,,,,,,,,,,,,f,0.2166,space,0.3497,,,,,,,,0,76,76,0,1,,
63e5fdff7b61e61659be8eec,2023-06-16_10h02.34.253,phx_ver10,2022.2.5,Win32,59.93407252,,,,,,,,,,,,13,testing_2,zh2x,ai,zh2x_ai,zh2x_1_aizhai.wav,zh2x_1_aizhai.wav,,TRUE,FALSE,,,,,,,,,,,,,,j,0.2504,space,0.5007,,,,,,,,0,77,77,12,1,,
63e5fdff7b61e61659be8eec,2023-06-16_10h02.34.253,phx_ver10,2022.2.5,Win32,59.93407252,,,,,,,,,,,,84,testing_3,j2x,au,j2x_au,j2x_8_auxau.wav,j2x_1_aujau.wav,,FALSE,FALSE,,,,,,,,,,,,,,j,0.1005,space,0.3503,,,,,,,,0,78,78,83,1,,
63e5fdff7b61e61659be8eec,2023-06-16_10h02.34.253,phx_ver10,2022.2.5,Win32,59.93407252,,,,,,,,,,,,80,testing_3,j2x,ai,j2x_ai,j2x_8_aixai.wav,j2x_1_aijai.wav,,FALSE,FALSE,,,,,,,,,,,,,,j,0.3671,space,0.6172,,,,,,,,0,79,79,79,1,,
63e5fdff7b61e61659be8eec,2023-06-16_10h02.34.253,phx_ver10,2022.2.5,Win32,59.93407252,,,,,,,,,,,,109,testing_3,sh2x,e,sh2x_e,sh2x_1_eshe.wav,sh2x_1_eshe.wav,,TRUE,FALSE,,,,,,,,,,,,,,f,0.3338,space,0.6003,,,,,,,,0,80,80,108,1,,
63e5fdff7b61e61659be8eec,2023-06-16_10h02.34.253,phx_ver10,2022.2.5,Win32,59.93407252,,,,,,,,,,,,67,testing_3,zh2j,ei,zh2j_ei,zh2j_1_eizhei.wav,zh2j_8_eijei.wav,,FALSE,FALSE,,,,,,,,,,,,,,f,0.0005,space,0.2729,,,,,,,,0,81,81,66,1,,
63e5fdff7b61e61659be8eec,2023-06-16_10h02.34.253,phx_ver10,2022.2.5,Win32,59.93407252,,,,,,,,,,,,111,testing_3,sh2x,e,sh2x_e,sh2x_1_eshe.wav,sh2x_8_exe.wav,,FALSE,FALSE,,,,,,,,,,,,,,f,0.2171,space,0.5507,,,,,,,,0,82,82,110,1,,
63e5fdff7b61e61659be8eec,2023-06-16_10h02.34.253,phx_ver10,2022.2.5,Win32,59.93407252,,,,,,,,,,,,8,testing_1,zh2x,e,zh2x_e,zh2x_8_exe.wav,zh2x_1_ezhe.wav,,FALSE,TRUE,,,,,,,,,,,,,,f,0.1173,space,0.8672,,,,,,,,0,83,83,7,1,,
63e5fdff7b61e61659be8eec,2023-06-16_10h02.34.253,phx_ver10,2022.2.5,Win32,59.93407252,,,,,,,,,,,,89,testing_3,j2x,ei,j2x_ei,j2x_1_eijei.wav,j2x_1_eijei.wav,,TRUE,FALSE,,,,,,,,,,,,,,f,0.6004,space,0.7674,,,,,,,,0,84,84,88,1,,
63e5fdff7b61e61659be8eec,2023-06-16_10h02.34.253,phx_ver10,2022.2.5,Win32,59.93407252,,,,,,,,,,,,39,testing_3,zh2sh,e,zh2sh_e,zh2sh_1_ezhe.wav,zh2sh_8_eshe.wav,,FALSE,FALSE,,,,,,,,,,,,,,f,0.0507,space,0.334,,,,,,,,0,85,85,38,1,,
63e5fdff7b61e61659be8eec,2023-06-16_10h02.34.253,phx_ver10,2022.2.5,Win32,59.93407252,,,,,,,,,,,,100,testing_3,sh2x,a,sh2x_a,sh2x_8_axa.wav,sh2x_1_asha.wav,,FALSE,FALSE,,,,,,,,,,,,,,f,0.3673,space,0.5342,,,,,,,,0,86,86,99,1,,
63e5fdff7b61e61659be8eec,2023-06-16_10h02.34.253,phx_ver10,2022.2.5,Win32,59.93407252,,,,,,,,,,,,115,testing_3,sh2x,ei,sh2x_ei,sh2x_1_eishei.wav,sh2x_8_eixei.wav,,FALSE,FALSE,,,,,,,,,,,,,,j,0.8837,space,1.134,,,,,,,,0,87,87,114,1,,
63e5fdff7b61e61659be8eec,2023-06-16_10h02.34.253,phx_ver10,2022.2.5,Win32,59.93407252,,,,,,,,,,,,143,testing_3,sh2j,i,sh2j_i,sh2j_1_ishi.wav,sh2j_8_iji.wav,,FALSE,FALSE,,,,,,,,,,,,,,f,0.1338,space,0.3337,,,,,,,,0,88,88,142,1,,
63e5fdff7b61e61659be8eec,2023-06-16_10h02.34.253,phx_ver10,2022.2.5,Win32,59.93407252,,,,,,,,,,,,62,testing_3,zh2j,e,zh2j_e,zh2j_8_eje.wav,zh2j_8_eje.wav,,TRUE,FALSE,,,,,,,,,,,,,,f,0.3171,space,0.4673,,,,,,,,0,89,89,61,1,,
63e5fdff7b61e61659be8eec,2023-06-16_10h02.34.253,phx_ver10,2022.2.5,Win32,59.93407252,,,,,,,,,,,,60,testing_3,zh2j,au,zh2j_au,zh2j_8_aujau.wav,zh2j_1_auzhau.wav,,FALSE,FALSE,,,,,,,,,,,,,,j,0.0005,space,0.2676,,,,,,,,0,90,90,59,1,,
63e5fdff7b61e61659be8eec,2023-06-16_10h02.34.253,phx_ver10,2022.2.5,Win32,59.93407252,,,,,,,,,,,,140,testing_3,sh2j,ei,sh2j_ei,sh2j_8_eijei.wav,sh2j_1_eishei.wav,,FALSE,FALSE,,,,,,,,,,,,,,j,0.6504,space,1.0004,,,,,,,,0,91,91,139,1,,
63e5fdff7b61e61659be8eec,2023-06-16_10h02.34.253,phx_ver10,2022.2.5,Win32,59.93407252,,,,,,,,,,,,21,testing_2,zh2x,ei,zh2x_ei,zh2x_1_eizhei.wav,zh2x_1_eizhei.wav,,TRUE,FALSE,,,,,,,,,,,,,,j,0.5007,space,0.7669,,,,,,,,0,92,92,20,1,,
63e5fdff7b61e61659be8eec,2023-06-16_10h02.34.253,phx_ver10,2022.2.5,Win32,59.93407252,,,,,,,,,,,,26,testing_3,zh2sh,a,zh2sh_a,zh2sh_8_asha.wav,zh2sh_8_asha.wav,,TRUE,FALSE,,,,,,,,,,,,,,f,0.1515,space,0.4344,,,,,,,,0,93,93,25,1,,
63e5fdff7b61e61659be8eec,2023-06-16_10h02.34.253,phx_ver10,2022.2.5,Win32,59.93407252,,,,,,,,,,,,87,testing_3,j2x,e,j2x_e,j2x_1_eje.wav,j2x_8_exe.wav,,FALSE,FALSE,,,,,,,,,,,,,,f,0.0006,space,0.684,,,,,,,,0,94,94,86,1,,
63e5fdff7b61e61659be8eec,2023-06-16_10h02.34.253,phx_ver10,2022.2.5,Win32,59.93407252,,,,,,,,,,,,86,testing_3,j2x,e,j2x_e,j2x_8_exe.wav,j2x_8_exe.wav,,TRUE,FALSE,,,,,,,,,,,,,,f,0.234,space,0.5504,,,,,,,,0,95,95,85,1,,
63e5fdff7b61e61659be8eec,2023-06-16_10h02.34.253,phx_ver10,2022.2.5,Win32,59.93407252,,,,,,,,,,,,95,testing_3,j2x,i,j2x_i,j2x_1_iji.wav,j2x_8_ixi.wav,,FALSE,FALSE,,,,,,,,,,,,,,j,0.0173,space,0.3675,,,,,,,,0,96,96,94,1,,
63e5fdff7b61e61659be8eec,2023-06-16_10h02.34.253,phx_ver10,2022.2.5,Win32,59.93407252,,,,,,,,,,,,76,testing_3,j2x,a,j2x_a,j2x_8_axa.wav,j2x_1_aja.wav,,FALSE,FALSE,,,,,,,,,,,,,,f,0.2004,space,0.5337,,,,,,,,0,97,97,75,1,,
63e5fdff7b61e61659be8eec,2023-06-16_10h02.34.253,phx_ver10,2022.2.5,Win32,59.93407252,,,,,,,,,,,,6,testing_1,zh2x,e,zh2x_e,zh2x_8_exe.wav,zh2x_8_exe_copy.wav,,TRUE,TRUE,,,,,,,,,,,,,,f,0.2808,space,0.4643,,,,,,,,0,98,98,5,1,,
63e5fdff7b61e61659be8eec,2023-06-16_10h02.34.253,phx_ver10,2022.2.5,Win32,59.93407252,,,,,,,,,,,,24,testing_2,zh2x,ei,zh2x_ei,zh2x_8_eixei.wav,zh2x_1_eizhei.wav,,FALSE,FALSE,,,,,,,,,,,,,,f,0.0172,space,0.1174,,,,,,,,0,99,99,23,1,,
63e5fdff7b61e61659be8eec,2023-06-16_10h02.34.253,phx_ver10,2022.2.5,Win32,59.93407252,,,,,,,,,,,,118,testing_3,sh2x,i,sh2x_i,sh2x_8_ixi.wav,sh2x_8_ixi.wav,,TRUE,FALSE,,,,,,,,,,,,,,f,0.0837,space,0.2174,,,,,,,,0,100,100,117,1,,
63e5fdff7b61e61659be8eec,2023-06-16_10h02.34.253,phx_ver10,2022.2.5,Win32,59.93407252,,,,,,,,,,,,44,testing_3,zh2sh,ei,zh2sh_ei,zh2sh_8_eishei.wav,zh2sh_1_eizhei.wav,,FALSE,FALSE,,,,,,,,,,,,,,j,0.0511,space,0.3508,,,,,,,,0,101,101,43,1,,
63e5fdff7b61e61659be8eec,2023-06-16_10h02.34.253,phx_ver10,2022.2.5,Win32,59.93407252,,,,,,,,,,,,41,testing_3,zh2sh,ei,zh2sh_ei,zh2sh_1_eizhei.wav,zh2sh_1_eizhei.wav,,TRUE,FALSE,,,,,,,,,,,,,,j,0.1176,space,0.4011,,,,,,,,0,102,102,40,1,,
63e5fdff7b61e61659be8eec,2023-06-16_10h02.34.253,phx_ver10,2022.2.5,Win32,59.93407252,,,,,,,,,,,,50,testing_3,zh2j,a,zh2j_a,zh2j_8_aja.wav,zh2j_8_aja.wav,,TRUE,FALSE,,,,,,,,,,,,,,f,0.3005,space,0.4843,,,,,,,,0,103,103,49,1,,
63e5fdff7b61e61659be8eec,2023-06-16_10h02.34.253,phx_ver10,2022.2.5,Win32,59.93407252,,,,,,,,,,,,113,testing_3,sh2x,ei,sh2x_ei,sh2x_1_eishei.wav,sh2x_1_eishei.wav,,TRUE,FALSE,,,,,,,,,,,,,,j,0.5174,space,0.7841,,,,,,,,0,104,104,112,1,,
63e5fdff7b61e61659be8eec,2023-06-16_10h02.34.253,phx_ver10,2022.2.5,Win32,59.93407252,,,,,,,,,,,,37,testing_3,zh2sh,e,zh2sh_e,zh2sh_1_ezhe.wav,zh2sh_1_ezhe.wav,,TRUE,FALSE,,,,,,,,,,,,,,f,0.1836,space,0.5171,,,,,,,,0,105,105,36,1,,
63e5fdff7b61e61659be8eec,2023-06-16_10h02.34.253,phx_ver10,2022.2.5,Win32,59.93407252,,,,,,,,,,,,137,testing_3,sh2j,ei,sh2j_ei,sh2j_1_eishei.wav,sh2j_1_eishei.wav,,TRUE,FALSE,,,,,,,,,,,,,,j,2.6672,space,2.9671,,,,,,,,0,106,106,136,1,,
63e5fdff7b61e61659be8eec,2023-06-16_10h02.34.253,phx_ver10,2022.2.5,Win32,59.93407252,,,,,,,,,,,,19,testing_2,zh2x,au,zh2x_au,zh2x_1_auzhau.wav,zh2x_8_auxau.wav,,FALSE,FALSE,,,,,,,,,,,,,,j,0.3507,space,0.567,,,,,,,,0,107,107,18,1,,
63e5fdff7b61e61659be8eec,2023-06-16_10h02.34.253,phx_ver10,2022.2.5,Win32,59.93407252,,,,,,,,,,,,96,testing_3,j2x,i,j2x_i,j2x_8_ixi.wav,j2x_1_iji.wav,,FALSE,FALSE,,,,,,,,,,,,,,f,0.3003,space,0.4667,,,,,,,,0,108,108,95,1,,
63e5fdff7b61e61659be8eec,2023-06-16_10h02.34.253,phx_ver10,2022.2.5,Win32,59.93407252,,,,,,,,,,,,99,testing_3,sh2x,a,sh2x_a,sh2x_1_asha.wav,sh2x_8_axa.wav,,FALSE,FALSE,,,,,,,,,,,,,,f,0.367,space,0.5343,,,,,,,,0,109,109,98,1,,
63e5fdff7b61e61659be8eec,2023-06-16_10h02.34.253,phx_ver10,2022.2.5,Win32,59.93407252,,,,,,,,,,,,121,testing_3,sh2j,a,sh2j_a,sh2j_1_asha.wav,sh2j_1_asha.wav,,TRUE,FALSE,,,,,,,,,,,,,,f,0.1669,space,0.3171,,,,,,,,0,110,110,120,1,,
63e5fdff7b61e61659be8eec,2023-06-16_10h02.34.253,phx_ver10,2022.2.5,Win32,59.93407252,,,,,,,,,,,,63,testing_3,zh2j,e,zh2j_e,zh2j_1_ezhe.wav,zh2j_8_eje.wav,,FALSE,FALSE,,,,,,,,,,,,,,f,0.4675,space,0.6338,,,,,,,,0,111,111,62,1,,
63e5fdff7b61e61659be8eec,2023-06-16_10h02.34.253,phx_ver10,2022.2.5,Win32,59.93407252,,,,,,,,,,,,33,testing_3,zh2sh,au,zh2sh_au,zh2sh_1_auzhau.wav,zh2sh_1_auzhau.wav,,TRUE,FALSE,,,,,,,,,,,,,,j,0.1339,space,0.4016,,,,,,,,0,112,112,32,1,,
63e5fdff7b61e61659be8eec,2023-06-16_10h02.34.253,phx_ver10,2022.2.5,Win32,59.93407252,,,,,,,,,,,,9,testing_1,zh2x,i,zh2x_i,zh2x_1_izhi.wav,zh2x_1_izhi_copy.wav,,TRUE,TRUE,,,,,,,,,,,,,,f,2.0668,space,2.1835,,,,,,,,0,113,113,8,1,,
63e5fdff7b61e61659be8eec,2023-06-16_10h02.34.253,phx_ver10,2022.2.5,Win32,59.93407252,,,,,,,,,,,,110,testing_3,sh2x,e,sh2x_e,sh2x_8_exe.wav,sh2x_8_exe.wav,,TRUE,FALSE,,,,,,,,,,,,,,f,0.1672,space,0.4005,,,,,,,,0,114,114,109,1,,
63e5fdff7b61e61659be8eec,2023-06-16_10h02.34.253,phx_ver10,2022.2.5,Win32,59.93407252,,,,,,,,,,,,36,testing_3,zh2sh,au,zh2sh_au,zh2sh_8_aushau.wav,zh2sh_1_auzhau.wav,,FALSE,FALSE,,,,,,,,,,,,,,j,0.0504,space,0.3506,,,,,,,,0,115,115,35,1,,
63e5fdff7b61e61659be8eec,2023-06-16_10h02.34.253,phx_ver10,2022.2.5,Win32,59.93407252,,,,,,,,,,,,3,testing_1,zh2x,a,zh2x_a,zh2x_1_azha.wav,zh2x_8_axa.wav,,FALSE,TRUE,,,,,,,,,,,,,,f,0.0674,space,0.3174,,,,,,,,0,116,116,2,1,,
63e5fdff7b61e61659be8eec,2023-06-16_10h02.34.253,phx_ver10,2022.2.5,Win32,59.93407252,,,,,,,,,,,,17,testing_2,zh2x,au,zh2x_au,zh2x_1_auzhau.wav,zh2x_1_auzhau.wav,,TRUE,FALSE,,,,,,,,,,,,,,j,2.0675,space,2.3342,,,,,,,,0,117,117,16,1,,
63e5fdff7b61e61659be8eec,2023-06-16_10h02.34.253,phx_ver10,2022.2.5,Win32,59.93407252,,,,,,,,,,,,123,testing_3,sh2j,a,sh2j_a,sh2j_1_asha.wav,sh2j_8_aja.wav,,FALSE,FALSE,,,,,,,,,,,,,,f,0.0338,space,0.3504,,,,,,,,0,118,118,122,1,,
63e5fdff7b61e61659be8eec,2023-06-16_10h02.34.253,phx_ver10,2022.2.5,Win32,59.93407252,,,,,,,,,,,,88,testing_3,j2x,e,j2x_e,j2x_8_exe.wav,j2x_1_eje.wav,,FALSE,FALSE,,,,,,,,,,,,,,f,1.3337,space,1.4671,,,,,,,,0,119,119,87,1,,
63e5fdff7b61e61659be8eec,2023-06-16_10h02.34.253,phx_ver10,2022.2.5,Win32,59.93407252,,,,,,,,,,,,35,testing_3,zh2sh,au,zh2sh_au,zh2sh_1_auzhau.wav,zh2sh_8_aushau.wav,,FALSE,FALSE,,,,,,,,,,,,,,j,1.3004,space,1.5677,,,,,,,,0,120,120,34,1,,
63e5fdff7b61e61659be8eec,2023-06-16_10h02.34.253,phx_ver10,2022.2.5,Win32,59.93407252,,,,,,,,,,,,78,testing_3,j2x,ai,j2x_ai,j2x_8_aixai.wav,j2x_8_aixai.wav,,TRUE,FALSE,,,,,,,,,,,,,,j,1.4679,space,1.7336,,,,,,,,0,121,121,77,1,,
63e5fdff7b61e61659be8eec,2023-06-16_10h02.34.253,phx_ver10,2022.2.5,Win32,59.93407252,,,,,,,,,,,,32,testing_3,zh2sh,ai,zh2sh_ai,zh2sh_8_aishai.wav,zh2sh_1_aizhai.wav,,FALSE,FALSE,,,,,,,,,,,,,,j,0.3672,space,0.6505,,,,,,,,0,122,122,31,1,,
63e5fdff7b61e61659be8eec,2023-06-16_10h02.34.253,phx_ver10,2022.2.5,Win32,59.93407252,,,,,,,,,,,,48,testing_3,zh2sh,i,zh2sh_i,zh2sh_8_ishi.wav,zh2sh_1_izhi.wav,,FALSE,FALSE,,,,,,,,,,,,,,f,0.1836,space,0.3839,,,,,,,,0,123,123,47,1,,
63e5fdff7b61e61659be8eec,2023-06-16_10h02.34.253,phx_ver10,2022.2.5,Win32,59.93407252,,,,,,,,,,,,92,testing_3,j2x,ei,j2x_ei,j2x_8_eixei.wav,j2x_1_eijei.wav,,FALSE,FALSE,,,,,,,,,,,,,,f,0.7171,space,1.0509,,,,,,,,0,124,124,91,1,,
63e5fdff7b61e61659be8eec,2023-06-16_10h02.34.253,phx_ver10,2022.2.5,Win32,59.93407252,,,,,,,,,,,,124,testing_3,sh2j,a,sh2j_a,sh2j_8_aja.wav,sh2j_1_asha.wav,,FALSE,FALSE,,,,,,,,,,,,,,f,1.1006,space,1.3172,,,,,,,,0,125,125,123,1,,
63e5fdff7b61e61659be8eec,2023-06-16_10h02.34.253,phx_ver10,2022.2.5,Win32,59.93407252,,,,,,,,,,,,28,testing_3,zh2sh,a,zh2sh_a,zh2sh_8_asha.wav,zh2sh_1_azha.wav,,FALSE,FALSE,,,,,,,,,,,,,,f,0.1835,space,0.467,,,,,,,,0,126,126,27,1,,
63e5fdff7b61e61659be8eec,2023-06-16_10h02.34.253,phx_ver10,2022.2.5,Win32,59.93407252,,,,,,,,,,,,131,testing_3,sh2j,au,sh2j_au,sh2j_1_aushau.wav,sh2j_8_aujau.wav,,FALSE,FALSE,,,,,,,,,,,,,,j,2.6173,space,2.7838,,,,,,,,0,127,127,130,1,,
63e5fdff7b61e61659be8eec,2023-06-16_10h02.34.253,phx_ver10,2022.2.5,Win32,59.93407252,,,,,,,,,,,,58,testing_3,zh2j,au,zh2j_au,zh2j_8_aujau.wav,zh2j_8_aujau.wav,,TRUE,FALSE,,,,,,,,,,,,,,j,0.117,space,0.3006,,,,,,,,0,128,128,57,1,,
63e5fdff7b61e61659be8eec,2023-06-16_10h02.34.253,phx_ver10,2022.2.5,Win32,59.93407252,,,,,,,,,,,,66,testing_3,zh2j,ei,zh2j_ei,zh2j_8_eijei.wav,zh2j_8_eijei.wav,,TRUE,FALSE,,,,,,,,,,,,,,f,0.634,space,1.6502,,,,,,,,0,129,129,65,1,,
63e5fdff7b61e61659be8eec,2023-06-16_10h02.34.253,phx_ver10,2022.2.5,Win32,59.93407252,,,,,,,,,,,,30,testing_3,zh2sh,ai,zh2sh_ai,zh2sh_8_aishai.wav,zh2sh_8_aishai.wav,,TRUE,FALSE,,,,,,,,,,,,,,j,0.3174,space,0.5334,,,,,,,,0,130,130,29,1,,
63e5fdff7b61e61659be8eec,2023-06-16_10h02.34.253,phx_ver10,2022.2.5,Win32,59.93407252,,,,,,,,,,,,85,testing_3,j2x,e,j2x_e,j2x_1_eje.wav,j2x_1_eje.wav,,TRUE,FALSE,,,,,,,,,,,,,,f,0.0011,space,0.2672,,,,,,,,0,131,131,84,1,,
63e5fdff7b61e61659be8eec,2023-06-16_10h02.34.253,phx_ver10,2022.2.5,Win32,59.93407252,,,,,,,,,,,,114,testing_3,sh2x,ei,sh2x_ei,sh2x_8_eixei.wav,sh2x_8_eixei.wav,,TRUE,FALSE,,,,,,,,,,,,,,j,0.5672,space,0.817,,,,,,,,0,132,132,113,1,,
63e5fdff7b61e61659be8eec,2023-06-16_10h02.34.253,phx_ver10,2022.2.5,Win32,59.93407252,,,,,,,,,,,,133,testing_3,sh2j,e,sh2j_e,sh2j_1_eshe.wav,sh2j_1_eshe.wav,,TRUE,FALSE,,,,,,,,,,,,,,f,0.134,space,0.367,,,,,,,,0,133,133,132,1,,
63e5fdff7b61e61659be8eec,2023-06-16_10h02.34.253,phx_ver10,2022.2.5,Win32,59.93407252,,,,,,,,,,,,68,testing_3,zh2j,ei,zh2j_ei,zh2j_8_eijei.wav,zh2j_1_eizhei.wav,,FALSE,FALSE,,,,,,,,,,,,,,j,0.9338,space,1.2171,,,,,,,,0,134,134,67,1,,
63e5fdff7b61e61659be8eec,2023-06-16_10h02.34.253,phx_ver10,2022.2.5,Win32,59.93407252,,,,,,,,,,,,108,testing_3,sh2x,au,sh2x_au,sh2x_8_auxau.wav,sh2x_1_aushau.wav,,FALSE,FALSE,,,,,,,,,,,,,,j,0.2173,space,0.517,,,,,,,,0,135,135,107,1,,
63e5fdff7b61e61659be8eec,2023-06-16_10h02.34.253,phx_ver10,2022.2.5,Win32,59.93407252,,,,,,,,,,,,54,testing_3,zh2j,ai,zh2j_ai,zh2j_8_aijai.wav,zh2j_8_aijai.wav,,TRUE,FALSE,,,,,,,,,,,,,,j,1.4702,space,1.6669,,,,,,,,0,136,136,53,1,,
63e5fdff7b61e61659be8eec,2023-06-16_10h02.34.253,phx_ver10,2022.2.5,Win32,59.93407252,,,,,,,,,,,,101,testing_3,sh2x,ai,sh2x_ai,sh2x_1_aishai.wav,sh2x_1_aishai.wav,,TRUE,FALSE,,,,,,,,,,,,,,j,0.1675,space,0.3674,,,,,,,,0,137,137,100,1,,
63e5fdff7b61e61659be8eec,2023-06-16_10h02.34.253,phx_ver10,2022.2.5,Win32,59.93407252,,,,,,,,,,,,102,testing_3,sh2x,ai,sh2x_ai,sh2x_8_aixai.wav,sh2x_8_aixai.wav,,TRUE,FALSE,,,,,,,,,,,,,,j,1.2004,space,1.4338,,,,,,,,0,138,138,101,1,,
63e5fdff7b61e61659be8eec,2023-06-16_10h02.34.253,phx_ver10,2022.2.5,Win32,59.93407252,,,,,,,,,,,,4,testing_1,zh2x,a,zh2x_a,zh2x_8_axa.wav,zh2x_1_azha.wav,,FALSE,TRUE,,,,,,,,,,,,,,f,0.0341,space,0.3177,,,,,,,,0,139,139,3,1,,
63e5fdff7b61e61659be8eec,2023-06-16_10h02.34.253,phx_ver10,2022.2.5,Win32,59.93407252,,,,,,,,,,,,72,testing_3,zh2j,i,zh2j_i,zh2j_8_iji.wav,zh2j_1_izhi.wav,,FALSE,FALSE,,,,,,,,,,,,,,f,1.3168,space,1.4834,,,,,,,,0,140,140,71,1,,
63e5fdff7b61e61659be8eec,2023-06-16_10h02.34.253,phx_ver10,2022.2.5,Win32,59.93407252,,,,,,,,,,,,11,testing_1,zh2x,i,zh2x_i,zh2x_1_izhi.wav,zh2x_8_ixi.wav,,FALSE,TRUE,,,,,,,,,,,,,,f,0.1008,space,0.2842,,,,,,,,0,141,141,10,1,,
63e5fdff7b61e61659be8eec,2023-06-16_10h02.34.253,phx_ver10,2022.2.5,Win32,59.93407252,,,,,,,,,,,,14,testing_2,zh2x,ai,zh2x_ai,zh2x_8_aixai.wav,zh2x_8_aixai.wav,,TRUE,FALSE,,,,,,,,,,,,,,j,1.2504,space,1.4836,,,,,,,,0,142,142,13,1,,
63e5fdff7b61e61659be8eec,2023-06-16_10h02.34.253,phx_ver10,2022.2.5,Win32,59.93407252,,,,,,,,,,,,52,testing_3,zh2j,a,zh2j_a,zh2j_8_aja.wav,zh2j_1_azha.wav,,FALSE,FALSE,,,,,,,,,,,,,,f,1.8002,space,1.9005,,,,,,,,0,143,143,51,1,,
63e5fdff7b61e61659be8eec,2023-06-16_10h02.34.253,phx_ver10,2022.2.5,Win32,59.93407252,,,,,,,,,,,,,,,,,,,,,,,,,,,,,,,,,,,,,,,,,,,,,,,,,,,space,0.3002
