participant,date,expName,psychopyVersion,OS,frameRate,space_1.keys,space_1.rt,space_2.keys,space_2.rt,space_train.keys,space_train.rt,training.thisRepN,training.thisTrialN,training.thisN,training.thisIndex,training.ran,token_id,task,continuum,vowel,series,sound_1,sound_2,img,same,trained,FJ_attn.keys,FJ_attn.rt,space_attn.keys,space_attn.rt,if_attn_test.thisRepN,if_attn_test.thisTrialN,if_attn_test.thisN,if_attn_test.thisIndex,if_attn_test.ran,space_trans_1.keys,space_trans_1.rt,space_trans_11.keys,space_trans_11.rt,FJ_test.keys,FJ_test.rt,space_test.keys,space_test.rt,testing_pre.thisRepN,testing_pre.thisTrialN,testing_pre.thisN,testing_pre.thisIndex,testing_pre.ran,space_trans_2.keys,space_trans_2.rt,testing_all.thisRepN,testing_all.thisTrialN,testing_all.thisN,testing_all.thisIndex,testing_all.ran,space_ending.keys,space_ending.rt
63ebd39a63bb79b50d438ab7,2023-06-16_13h57.24.564,phx_ver10,2022.2.5,Win32,59.90534955,,,,,,,,,,,,,,,,,,,,,,,,,,,,,,,,,,,,,,,,,,,,,,,,,,,,
63ebd39a63bb79b50d438ab7,2023-06-16_13h57.24.564,phx_ver10,2022.2.5,Win32,59.90534955,space,65.6871,,,,,,,,,,,,,,,,,,,,,,,,,,,,,,,,,,,,,,,,,,,,,,,,,,
63ebd39a63bb79b50d438ab7,2023-06-16_13h57.24.564,phx_ver10,2022.2.5,Win32,59.90534955,,,space,2.7482,,,,,,,,,,,,,,,,,,,,,,,,,,,,,,,,,,,,,,,,,,,,,,,,
63ebd39a63bb79b50d438ab7,2023-06-16_13h57.24.564,phx_ver10,2022.2.5,Win32,59.90534955,,,,,space,7.7992,0,0,0,28,1,29,training,zh2x,e,zh2x_e,zh2x_7_exe.wav,,exe.jpg,,,,,,,,,,,,,,,,,,,,,,,,,,,,,,,,,
63ebd39a63bb79b50d438ab7,2023-06-16_13h57.24.564,phx_ver10,2022.2.5,Win32,59.90534955,,,,,space,3.7649,0,1,1,8,1,9,training,zh2x,a,zh2x_a,zh2x_5_axa.wav,,axa.jpg,,,,,,,,,,,,,,,,,,,,,,,,,,,,,,,,,
63ebd39a63bb79b50d438ab7,2023-06-16_13h57.24.564,phx_ver10,2022.2.5,Win32,59.90534955,,,,,space,0.5357,0,2,2,9,1,10,training,zh2x,a,zh2x_a,zh2x_6_axa.wav,,axa.jpg,,,,,,,,,,,,,,,,,,,,,,,,,,,,,,,,,
63ebd39a63bb79b50d438ab7,2023-06-16_13h57.24.564,phx_ver10,2022.2.5,Win32,59.90534955,,,,,space,0.6517,0,3,3,37,1,38,training,zh2x,i,zh2x_i,zh2x_3_izhi.wav,,izhi.jpg,,,,,,,,,,,,,,,,,,,,,,,,,,,,,,,,,
63ebd39a63bb79b50d438ab7,2023-06-16_13h57.24.564,phx_ver10,2022.2.5,Win32,59.90534955,,,,,space,0.3873,0,4,4,29,1,30,training,zh2x,e,zh2x_e,zh2x_7_exe.wav,,exe.jpg,,,,,,,,,,,,,,,,,,,,,,,,,,,,,,,,,
63ebd39a63bb79b50d438ab7,2023-06-16_13h57.24.564,phx_ver10,2022.2.5,Win32,59.90534955,,,,,space,0.5184,0,5,5,6,1,7,training,zh2x,a,zh2x_a,zh2x_3_azha.wav,,azha.jpg,,,,,,,,,,,,,,,,,,,,,,,,,,,,,,,,,
63ebd39a63bb79b50d438ab7,2023-06-16_13h57.24.564,phx_ver10,2022.2.5,Win32,59.90534955,,,,,,,,,,,,,attn_test,,,,zh2x_8_exe.wav,zh2x_8_axa.wav,axa.jpg,RIGHT,,j,7.3276,space,8.7104,0,0,0,0,1,,,,,,,,,,,,,,,,,,,,,,
63ebd39a63bb79b50d438ab7,2023-06-16_13h57.24.564,phx_ver10,2022.2.5,Win32,59.90534955,,,,,space,1.7608,0,6,6,15,1,16,training,zh2x,a,zh2x_a,zh2x_8_axa.wav,,axa.jpg,,,,,,,,,,,,,,,,,,,,,,,,,,,,,,,,,
63ebd39a63bb79b50d438ab7,2023-06-16_13h57.24.564,phx_ver10,2022.2.5,Win32,59.90534955,,,,,space,0.7001,0,7,7,39,1,40,training,zh2x,i,zh2x_i,zh2x_4_izhi.wav,,izhi.jpg,,,,,,,,,,,,,,,,,,,,,,,,,,,,,,,,,
63ebd39a63bb79b50d438ab7,2023-06-16_13h57.24.564,phx_ver10,2022.2.5,Win32,59.90534955,,,,,space,0.4678,0,8,8,24,1,25,training,zh2x,e,zh2x_e,zh2x_5_exe.wav,,exe.jpg,,,,,,,,,,,,,,,,,,,,,,,,,,,,,,,,,
63ebd39a63bb79b50d438ab7,2023-06-16_13h57.24.564,phx_ver10,2022.2.5,Win32,59.90534955,,,,,space,1.685,0,9,9,46,1,47,training,zh2x,i,zh2x_i,zh2x_7_ixi.wav,,ixi.jpg,,,,,,,,,,,,,,,,,,,,,,,,,,,,,,,,,
63ebd39a63bb79b50d438ab7,2023-06-16_13h57.24.564,phx_ver10,2022.2.5,Win32,59.90534955,,,,,space,1.4384,0,10,10,18,1,19,training,zh2x,e,zh2x_e,zh2x_2_ezhe.wav,,ezhe.jpg,,,,,,,,,,,,,,,,,,,,,,,,,,,,,,,,,
63ebd39a63bb79b50d438ab7,2023-06-16_13h57.24.564,phx_ver10,2022.2.5,Win32,59.90534955,,,,,space,0.9509,0,11,11,5,1,6,training,zh2x,a,zh2x_a,zh2x_3_azha.wav,,azha.jpg,,,,,,,,,,,,,,,,,,,,,,,,,,,,,,,,,
63ebd39a63bb79b50d438ab7,2023-06-16_13h57.24.564,phx_ver10,2022.2.5,Win32,59.90534955,,,,,,,,,,,,,attn_test,,,,zh2x_1_izhi.wav,zh2x_8_axa.wav,axa.jpg,RIGHT,,j,1.5495,space,3.5641,0,0,0,0,1,,,,,,,,,,,,,,,,,,,,,,
63ebd39a63bb79b50d438ab7,2023-06-16_13h57.24.564,phx_ver10,2022.2.5,Win32,59.90534955,,,,,space,1.0391,0,12,12,0,1,1,training,zh2x,a,zh2x_a,zh2x_1_azha.wav,,azha.jpg,,,,,,,,,,,,,,,,,,,,,,,,,,,,,,,,,
63ebd39a63bb79b50d438ab7,2023-06-16_13h57.24.564,phx_ver10,2022.2.5,Win32,59.90534955,,,,,space,1.3149,0,13,13,22,1,23,training,zh2x,e,zh2x_e,zh2x_3_ezhe.wav,,ezhe.jpg,,,,,,,,,,,,,,,,,,,,,,,,,,,,,,,,,
63ebd39a63bb79b50d438ab7,2023-06-16_13h57.24.564,phx_ver10,2022.2.5,Win32,59.90534955,,,,,space,0.7732,0,14,14,13,1,14,training,zh2x,a,zh2x_a,zh2x_7_axa.wav,,axa.jpg,,,,,,,,,,,,,,,,,,,,,,,,,,,,,,,,,
63ebd39a63bb79b50d438ab7,2023-06-16_13h57.24.564,phx_ver10,2022.2.5,Win32,59.90534955,,,,,space,0.4171,0,15,15,14,1,15,training,zh2x,a,zh2x_a,zh2x_7_axa.wav,,axa.jpg,,,,,,,,,,,,,,,,,,,,,,,,,,,,,,,,,
63ebd39a63bb79b50d438ab7,2023-06-16_13h57.24.564,phx_ver10,2022.2.5,Win32,59.90534955,,,,,space,0.5233,0,16,16,30,1,31,training,zh2x,e,zh2x_e,zh2x_7_exe.wav,,exe.jpg,,,,,,,,,,,,,,,,,,,,,,,,,,,,,,,,,
63ebd39a63bb79b50d438ab7,2023-06-16_13h57.24.564,phx_ver10,2022.2.5,Win32,59.90534955,,,,,space,0.2532,0,17,17,26,1,27,training,zh2x,e,zh2x_e,zh2x_6_exe.wav,,exe.jpg,,,,,,,,,,,,,,,,,,,,,,,,,,,,,,,,,
63ebd39a63bb79b50d438ab7,2023-06-16_13h57.24.564,phx_ver10,2022.2.5,Win32,59.90534955,,,,,,,,,,,,,attn_test,,,,zh2x_1_izhi.wav,zh2x_1_ezhe.wav,ezhe.jpg,RIGHT,,j,16.4192,space,16.9024,0,0,0,0,1,,,,,,,,,,,,,,,,,,,,,,
63ebd39a63bb79b50d438ab7,2023-06-16_13h57.24.564,phx_ver10,2022.2.5,Win32,59.90534955,,,,,space,0.9401,0,18,18,23,1,24,training,zh2x,e,zh2x_e,zh2x_4_ezhe.wav,,ezhe.jpg,,,,,,,,,,,,,,,,,,,,,,,,,,,,,,,,,
63ebd39a63bb79b50d438ab7,2023-06-16_13h57.24.564,phx_ver10,2022.2.5,Win32,59.90534955,,,,,space,0.8065,0,19,19,41,1,42,training,zh2x,i,zh2x_i,zh2x_6_ixi.wav,,ixi.jpg,,,,,,,,,,,,,,,,,,,,,,,,,,,,,,,,,
63ebd39a63bb79b50d438ab7,2023-06-16_13h57.24.564,phx_ver10,2022.2.5,Win32,59.90534955,,,,,space,0.5255,0,20,20,11,1,12,training,zh2x,a,zh2x_a,zh2x_7_axa.wav,,axa.jpg,,,,,,,,,,,,,,,,,,,,,,,,,,,,,,,,,
63ebd39a63bb79b50d438ab7,2023-06-16_13h57.24.564,phx_ver10,2022.2.5,Win32,59.90534955,,,,,space,0.6022,0,21,21,34,1,35,training,zh2x,i,zh2x_i,zh2x_2_izhi.wav,,izhi.jpg,,,,,,,,,,,,,,,,,,,,,,,,,,,,,,,,,
63ebd39a63bb79b50d438ab7,2023-06-16_13h57.24.564,phx_ver10,2022.2.5,Win32,59.90534955,,,,,space,0.0859,0,22,22,47,1,48,training,zh2x,i,zh2x_i,zh2x_8_ixi.wav,,ixi.jpg,,,,,,,,,,,,,,,,,,,,,,,,,,,,,,,,,
63ebd39a63bb79b50d438ab7,2023-06-16_13h57.24.564,phx_ver10,2022.2.5,Win32,59.90534955,,,,,space,0.5921,0,23,23,12,1,13,training,zh2x,a,zh2x_a,zh2x_7_axa.wav,,axa.jpg,,,,,,,,,,,,,,,,,,,,,,,,,,,,,,,,,
63ebd39a63bb79b50d438ab7,2023-06-16_13h57.24.564,phx_ver10,2022.2.5,Win32,59.90534955,,,,,,,,,,,,,attn_test,,,,zh2x_1_izhi.wav,zh2x_1_ezhe.wav,izhi.jpg,LEFT,,f,0.0401,space,0.7197,0,0,0,0,1,,,,,,,,,,,,,,,,,,,,,,
63ebd39a63bb79b50d438ab7,2023-06-16_13h57.24.564,phx_ver10,2022.2.5,Win32,59.90534955,,,,,space,0.8181,0,24,24,42,1,43,training,zh2x,i,zh2x_i,zh2x_6_ixi.wav,,ixi.jpg,,,,,,,,,,,,,,,,,,,,,,,,,,,,,,,,,
63ebd39a63bb79b50d438ab7,2023-06-16_13h57.24.564,phx_ver10,2022.2.5,Win32,59.90534955,,,,,space,0.3321,0,25,25,25,1,26,training,zh2x,e,zh2x_e,zh2x_6_exe.wav,,exe.jpg,,,,,,,,,,,,,,,,,,,,,,,,,,,,,,,,,
63ebd39a63bb79b50d438ab7,2023-06-16_13h57.24.564,phx_ver10,2022.2.5,Win32,59.90534955,,,,,space,0.2854,0,26,26,44,1,45,training,zh2x,i,zh2x_i,zh2x_7_ixi.wav,,ixi.jpg,,,,,,,,,,,,,,,,,,,,,,,,,,,,,,,,,
63ebd39a63bb79b50d438ab7,2023-06-16_13h57.24.564,phx_ver10,2022.2.5,Win32,59.90534955,,,,,space,0.3483,0,27,27,31,1,32,training,zh2x,e,zh2x_e,zh2x_8_exe.wav,,exe.jpg,,,,,,,,,,,,,,,,,,,,,,,,,,,,,,,,,
63ebd39a63bb79b50d438ab7,2023-06-16_13h57.24.564,phx_ver10,2022.2.5,Win32,59.90534955,,,,,space,0.367,0,28,28,2,1,3,training,zh2x,a,zh2x_a,zh2x_2_azha.wav,,azha.jpg,,,,,,,,,,,,,,,,,,,,,,,,,,,,,,,,,
63ebd39a63bb79b50d438ab7,2023-06-16_13h57.24.564,phx_ver10,2022.2.5,Win32,59.90534955,,,,,space,0.482,0,29,29,19,1,20,training,zh2x,e,zh2x_e,zh2x_2_ezhe.wav,,ezhe.jpg,,,,,,,,,,,,,,,,,,,,,,,,,,,,,,,,,
63ebd39a63bb79b50d438ab7,2023-06-16_13h57.24.564,phx_ver10,2022.2.5,Win32,59.90534955,,,,,,,,,,,,,attn_test,,,,zh2x_8_axa.wav,zh2x_8_exe.wav,exe.jpg,RIGHT,,j,3.366,space,3.785,0,0,0,0,1,,,,,,,,,,,,,,,,,,,,,,
63ebd39a63bb79b50d438ab7,2023-06-16_13h57.24.564,phx_ver10,2022.2.5,Win32,59.90534955,,,,,space,0.1102,0,30,30,16,1,17,training,zh2x,e,zh2x_e,zh2x_1_ezhe.wav,,ezhe.jpg,,,,,,,,,,,,,,,,,,,,,,,,,,,,,,,,,
63ebd39a63bb79b50d438ab7,2023-06-16_13h57.24.564,phx_ver10,2022.2.5,Win32,59.90534955,,,,,space,0.1001,0,31,31,1,1,2,training,zh2x,a,zh2x_a,zh2x_2_azha.wav,,azha.jpg,,,,,,,,,,,,,,,,,,,,,,,,,,,,,,,,,
63ebd39a63bb79b50d438ab7,2023-06-16_13h57.24.564,phx_ver10,2022.2.5,Win32,59.90534955,,,,,space,0.5381,0,32,32,40,1,41,training,zh2x,i,zh2x_i,zh2x_5_ixi.wav,,ixi.jpg,,,,,,,,,,,,,,,,,,,,,,,,,,,,,,,,,
63ebd39a63bb79b50d438ab7,2023-06-16_13h57.24.564,phx_ver10,2022.2.5,Win32,59.90534955,,,,,space,0.434,0,33,33,17,1,18,training,zh2x,e,zh2x_e,zh2x_2_ezhe.wav,,ezhe.jpg,,,,,,,,,,,,,,,,,,,,,,,,,,,,,,,,,
63ebd39a63bb79b50d438ab7,2023-06-16_13h57.24.564,phx_ver10,2022.2.5,Win32,59.90534955,,,,,space,0.8829,0,34,34,27,1,28,training,zh2x,e,zh2x_e,zh2x_7_exe.wav,,exe.jpg,,,,,,,,,,,,,,,,,,,,,,,,,,,,,,,,,
63ebd39a63bb79b50d438ab7,2023-06-16_13h57.24.564,phx_ver10,2022.2.5,Win32,59.90534955,,,,,space,0.3846,0,35,35,3,1,4,training,zh2x,a,zh2x_a,zh2x_2_azha.wav,,azha.jpg,,,,,,,,,,,,,,,,,,,,,,,,,,,,,,,,,
63ebd39a63bb79b50d438ab7,2023-06-16_13h57.24.564,phx_ver10,2022.2.5,Win32,59.90534955,,,,,,,,,,,,,attn_test,,,,zh2x_8_ixi.wav,zh2x_1_izhi.wav,ixi.jpg,LEFT,,f,2.7843,space,3.1995,0,0,0,0,1,,,,,,,,,,,,,,,,,,,,,,
63ebd39a63bb79b50d438ab7,2023-06-16_13h57.24.564,phx_ver10,2022.2.5,Win32,59.90534955,,,,,space,0.7844,0,36,36,43,1,44,training,zh2x,i,zh2x_i,zh2x_7_ixi.wav,,ixi.jpg,,,,,,,,,,,,,,,,,,,,,,,,,,,,,,,,,
63ebd39a63bb79b50d438ab7,2023-06-16_13h57.24.564,phx_ver10,2022.2.5,Win32,59.90534955,,,,,space,0.1683,0,37,37,32,1,33,training,zh2x,i,zh2x_i,zh2x_1_izhi.wav,,izhi.jpg,,,,,,,,,,,,,,,,,,,,,,,,,,,,,,,,,
63ebd39a63bb79b50d438ab7,2023-06-16_13h57.24.564,phx_ver10,2022.2.5,Win32,59.90534955,,,,,space,0.4212,0,38,38,10,1,11,training,zh2x,a,zh2x_a,zh2x_6_axa.wav,,axa.jpg,,,,,,,,,,,,,,,,,,,,,,,,,,,,,,,,,
63ebd39a63bb79b50d438ab7,2023-06-16_13h57.24.564,phx_ver10,2022.2.5,Win32,59.90534955,,,,,space,0.5675,0,39,39,45,1,46,training,zh2x,i,zh2x_i,zh2x_7_ixi.wav,,ixi.jpg,,,,,,,,,,,,,,,,,,,,,,,,,,,,,,,,,
63ebd39a63bb79b50d438ab7,2023-06-16_13h57.24.564,phx_ver10,2022.2.5,Win32,59.90534955,,,,,space,0.9826,0,40,40,33,1,34,training,zh2x,i,zh2x_i,zh2x_2_izhi.wav,,izhi.jpg,,,,,,,,,,,,,,,,,,,,,,,,,,,,,,,,,
63ebd39a63bb79b50d438ab7,2023-06-16_13h57.24.564,phx_ver10,2022.2.5,Win32,59.90534955,,,,,space,0.0336,0,41,41,35,1,36,training,zh2x,i,zh2x_i,zh2x_2_izhi.wav,,izhi.jpg,,,,,,,,,,,,,,,,,,,,,,,,,,,,,,,,,
63ebd39a63bb79b50d438ab7,2023-06-16_13h57.24.564,phx_ver10,2022.2.5,Win32,59.90534955,,,,,,,,,,,,,attn_test,,,,zh2x_8_ixi.wav,zh2x_1_ezhe.wav,ixi.jpg,LEFT,,f,0.1808,space,0.5174,0,0,0,0,1,,,,,,,,,,,,,,,,,,,,,,
63ebd39a63bb79b50d438ab7,2023-06-16_13h57.24.564,phx_ver10,2022.2.5,Win32,59.90534955,,,,,space,0.5836,0,42,42,36,1,37,training,zh2x,i,zh2x_i,zh2x_2_izhi.wav,,izhi.jpg,,,,,,,,,,,,,,,,,,,,,,,,,,,,,,,,,
63ebd39a63bb79b50d438ab7,2023-06-16_13h57.24.564,phx_ver10,2022.2.5,Win32,59.90534955,,,,,space,0.4,0,43,43,20,1,21,training,zh2x,e,zh2x_e,zh2x_2_ezhe.wav,,ezhe.jpg,,,,,,,,,,,,,,,,,,,,,,,,,,,,,,,,,
63ebd39a63bb79b50d438ab7,2023-06-16_13h57.24.564,phx_ver10,2022.2.5,Win32,59.90534955,,,,,space,0.2541,0,44,44,4,1,5,training,zh2x,a,zh2x_a,zh2x_2_azha.wav,,azha.jpg,,,,,,,,,,,,,,,,,,,,,,,,,,,,,,,,,
63ebd39a63bb79b50d438ab7,2023-06-16_13h57.24.564,phx_ver10,2022.2.5,Win32,59.90534955,,,,,space,0.07,0,45,45,21,1,22,training,zh2x,e,zh2x_e,zh2x_3_ezhe.wav,,ezhe.jpg,,,,,,,,,,,,,,,,,,,,,,,,,,,,,,,,,
63ebd39a63bb79b50d438ab7,2023-06-16_13h57.24.564,phx_ver10,2022.2.5,Win32,59.90534955,,,,,space,0.5839,0,46,46,38,1,39,training,zh2x,i,zh2x_i,zh2x_3_izhi.wav,,izhi.jpg,,,,,,,,,,,,,,,,,,,,,,,,,,,,,,,,,
63ebd39a63bb79b50d438ab7,2023-06-16_13h57.24.564,phx_ver10,2022.2.5,Win32,59.90534955,,,,,space,0.4161,0,47,47,7,1,8,training,zh2x,a,zh2x_a,zh2x_4_azha.wav,,azha.jpg,,,,,,,,,,,,,,,,,,,,,,,,,,,,,,,,,
63ebd39a63bb79b50d438ab7,2023-06-16_13h57.24.564,phx_ver10,2022.2.5,Win32,59.90534955,,,,,,,,,,,,,attn_test,,,,zh2x_8_exe.wav,zh2x_1_izhi.wav,izhi.jpg,RIGHT,,j,0.4303,space,0.8524,,,,,,,,,,,,,,,,,,,,,,,,,,,
63ebd39a63bb79b50d438ab7,2023-06-16_13h57.24.564,phx_ver10,2022.2.5,Win32,59.90534955,,,,,,,,,,,,,,,,,,,,,,,,,,,,,,,space,0.5008,,,,,,,,,,,,,,,,,,,,
63ebd39a63bb79b50d438ab7,2023-06-16_13h57.24.564,phx_ver10,2022.2.5,Win32,59.90534955,,,,,,,,,,,,,,,,,,,,,,,,,,,,,,,,,space,8.521,,,,,,,,,,,,,,,,,,
63ebd39a63bb79b50d438ab7,2023-06-16_13h57.24.564,phx_ver10,2022.2.5,Win32,59.90534955,,,,,,,,,,,,3,testing_pre,,,,afa.wav,aha.wav,,FALSE,,,,,,,,,,,,,,,j,0.8536,space,2.6234,0,0,0,2,1,,,,,,,,,
63ebd39a63bb79b50d438ab7,2023-06-16_13h57.24.564,phx_ver10,2022.2.5,Win32,59.90534955,,,,,,,,,,,,5,testing_pre,,,,ihi.wav,ifi.wav,,FALSE,,,,,,,,,,,,,,,j,0.1339,space,0.9156,0,1,1,4,1,,,,,,,,,
63ebd39a63bb79b50d438ab7,2023-06-16_13h57.24.564,phx_ver10,2022.2.5,Win32,59.90534955,,,,,,,,,,,,2,testing_pre,,,,auhau.wav,aufau.wav,,FALSE,,,,,,,,,,,,,,,j,6.1499,space,6.8956,0,2,2,1,1,,,,,,,,,
63ebd39a63bb79b50d438ab7,2023-06-16_13h57.24.564,phx_ver10,2022.2.5,Win32,59.90534955,,,,,,,,,,,,4,testing_pre,,,,eihei.wav,eihei.wav,,TRUE,,,,,,,,,,,,,,,f,0.4688,space,0.8168,0,3,3,3,1,,,,,,,,,
63ebd39a63bb79b50d438ab7,2023-06-16_13h57.24.564,phx_ver10,2022.2.5,Win32,59.90534955,,,,,,,,,,,,1,testing_pre,,,,ifi.wav,ifi.wav,,TRUE,,,,,,,,,,,,,,,f,0.4833,space,1.0009,0,4,4,0,1,,,,,,,,,
63ebd39a63bb79b50d438ab7,2023-06-16_13h57.24.564,phx_ver10,2022.2.5,Win32,59.90534955,,,,,,,,,,,,,,,,,,,,,,,,,,,,,,,,,,,,,,,,,,,,space,0.6731,,,,,,,
63ebd39a63bb79b50d438ab7,2023-06-16_13h57.24.564,phx_ver10,2022.2.5,Win32,59.90534955,,,,,,,,,,,,106,testing_3,sh2x,au,sh2x_au,sh2x_8_auxau.wav,sh2x_8_auxau.wav,,TRUE,FALSE,,,,,,,,,,,,,,f,3.3392,space,3.7157,,,,,,,,0,0,0,105,1,,
63ebd39a63bb79b50d438ab7,2023-06-16_13h57.24.564,phx_ver10,2022.2.5,Win32,59.90534955,,,,,,,,,,,,84,testing_3,j2x,au,j2x_au,j2x_8_auxau.wav,j2x_1_aujau.wav,,FALSE,FALSE,,,,,,,,,,,,,,j,0.1716,space,0.5688,,,,,,,,0,1,1,83,1,,
63ebd39a63bb79b50d438ab7,2023-06-16_13h57.24.564,phx_ver10,2022.2.5,Win32,59.90534955,,,,,,,,,,,,142,testing_3,sh2j,i,sh2j_i,sh2j_8_iji.wav,sh2j_8_iji.wav,,TRUE,FALSE,,,,,,,,,,,,,,j,2.7405,space,3.1131,,,,,,,,0,2,2,141,1,,
63ebd39a63bb79b50d438ab7,2023-06-16_13h57.24.564,phx_ver10,2022.2.5,Win32,59.90534955,,,,,,,,,,,,75,testing_3,j2x,a,j2x_a,j2x_1_aja.wav,j2x_8_axa.wav,,FALSE,FALSE,,,,,,,,,,,,,,j,0.1991,space,0.4668,,,,,,,,0,3,3,74,1,,
63ebd39a63bb79b50d438ab7,2023-06-16_13h57.24.564,phx_ver10,2022.2.5,Win32,59.90534955,,,,,,,,,,,,113,testing_3,sh2x,ei,sh2x_ei,sh2x_1_eishei.wav,sh2x_1_eishei.wav,,TRUE,FALSE,,,,,,,,,,,,,,j,0.0888,space,0.4195,,,,,,,,0,4,4,112,1,,
63ebd39a63bb79b50d438ab7,2023-06-16_13h57.24.564,phx_ver10,2022.2.5,Win32,59.90534955,,,,,,,,,,,,50,testing_3,zh2j,a,zh2j_a,zh2j_8_aja.wav,zh2j_8_aja.wav,,TRUE,FALSE,,,,,,,,,,,,,,f,0.2092,space,0.5389,,,,,,,,0,5,5,49,1,,
63ebd39a63bb79b50d438ab7,2023-06-16_13h57.24.564,phx_ver10,2022.2.5,Win32,59.90534955,,,,,,,,,,,,87,testing_3,j2x,e,j2x_e,j2x_1_eje.wav,j2x_8_exe.wav,,FALSE,FALSE,,,,,,,,,,,,,,j,0.4811,space,0.8388,,,,,,,,0,6,6,86,1,,
63ebd39a63bb79b50d438ab7,2023-06-16_13h57.24.564,phx_ver10,2022.2.5,Win32,59.90534955,,,,,,,,,,,,11,testing_1,zh2x,i,zh2x_i,zh2x_1_izhi.wav,zh2x_8_ixi.wav,,FALSE,TRUE,,,,,,,,,,,,,,j,0.184,space,0.5158,,,,,,,,0,7,7,10,1,,
63ebd39a63bb79b50d438ab7,2023-06-16_13h57.24.564,phx_ver10,2022.2.5,Win32,59.90534955,,,,,,,,,,,,115,testing_3,sh2x,ei,sh2x_ei,sh2x_1_eishei.wav,sh2x_8_eixei.wav,,FALSE,FALSE,,,,,,,,,,,,,,f,0.3082,space,1.0421,,,,,,,,0,8,8,114,1,,
63ebd39a63bb79b50d438ab7,2023-06-16_13h57.24.564,phx_ver10,2022.2.5,Win32,59.90534955,,,,,,,,,,,,80,testing_3,j2x,ai,j2x_ai,j2x_8_aixai.wav,j2x_1_aijai.wav,,FALSE,FALSE,,,,,,,,,,,,,,j,0.4708,space,0.8107,,,,,,,,0,9,9,79,1,,
63ebd39a63bb79b50d438ab7,2023-06-16_13h57.24.564,phx_ver10,2022.2.5,Win32,59.90534955,,,,,,,,,,,,13,testing_2,zh2x,ai,zh2x_ai,zh2x_1_aizhai.wav,zh2x_1_aizhai.wav,,TRUE,FALSE,,,,,,,,,,,,,,f,0.3029,space,0.6667,,,,,,,,0,10,10,12,1,,
63ebd39a63bb79b50d438ab7,2023-06-16_13h57.24.564,phx_ver10,2022.2.5,Win32,59.90534955,,,,,,,,,,,,32,testing_3,zh2sh,ai,zh2sh_ai,zh2sh_8_aishai.wav,zh2sh_1_aizhai.wav,,FALSE,FALSE,,,,,,,,,,,,,,j,0.3219,space,0.6432,,,,,,,,0,11,11,31,1,,
63ebd39a63bb79b50d438ab7,2023-06-16_13h57.24.564,phx_ver10,2022.2.5,Win32,59.90534955,,,,,,,,,,,,47,testing_3,zh2sh,i,zh2sh_i,zh2sh_1_izhi.wav,zh2sh_8_ishi.wav,,FALSE,FALSE,,,,,,,,,,,,,,j,0.032,space,0.4734,,,,,,,,0,12,12,46,1,,
63ebd39a63bb79b50d438ab7,2023-06-16_13h57.24.564,phx_ver10,2022.2.5,Win32,59.90534955,,,,,,,,,,,,1,testing_1,zh2x,a,zh2x_a,zh2x_1_azha.wav,zh2x_1_azha_copy.wav,,TRUE,TRUE,,,,,,,,,,,,,,f,0.2021,space,0.6309,,,,,,,,0,13,13,0,1,,
63ebd39a63bb79b50d438ab7,2023-06-16_13h57.24.564,phx_ver10,2022.2.5,Win32,59.90534955,,,,,,,,,,,,118,testing_3,sh2x,i,sh2x_i,sh2x_8_ixi.wav,sh2x_8_ixi.wav,,TRUE,FALSE,,,,,,,,,,,,,,f,1.09,space,1.4272,,,,,,,,0,14,14,117,1,,
63ebd39a63bb79b50d438ab7,2023-06-16_13h57.24.564,phx_ver10,2022.2.5,Win32,59.90534955,,,,,,,,,,,,63,testing_3,zh2j,e,zh2j_e,zh2j_1_ezhe.wav,zh2j_8_eje.wav,,FALSE,FALSE,,,,,,,,,,,,,,f,0.4023,space,0.7887,,,,,,,,0,15,15,62,1,,
63ebd39a63bb79b50d438ab7,2023-06-16_13h57.24.564,phx_ver10,2022.2.5,Win32,59.90534955,,,,,,,,,,,,134,testing_3,sh2j,e,sh2j_e,sh2j_8_eje.wav,sh2j_8_eje.wav,,TRUE,FALSE,,,,,,,,,,,,,,f,0.0004,space,0.3649,,,,,,,,0,16,16,133,1,,
63ebd39a63bb79b50d438ab7,2023-06-16_13h57.24.564,phx_ver10,2022.2.5,Win32,59.90534955,,,,,,,,,,,,127,testing_3,sh2j,ai,sh2j_ai,sh2j_1_aishai.wav,sh2j_8_aijai.wav,,FALSE,FALSE,,,,,,,,,,,,,,j,0.1064,space,0.4526,,,,,,,,0,17,17,126,1,,
63ebd39a63bb79b50d438ab7,2023-06-16_13h57.24.564,phx_ver10,2022.2.5,Win32,59.90534955,,,,,,,,,,,,69,testing_3,zh2j,i,zh2j_i,zh2j_1_izhi.wav,zh2j_1_izhi.wav,,TRUE,FALSE,,,,,,,,,,,,,,f,0.1604,space,0.5979,,,,,,,,0,18,18,68,1,,
63ebd39a63bb79b50d438ab7,2023-06-16_13h57.24.564,phx_ver10,2022.2.5,Win32,59.90534955,,,,,,,,,,,,18,testing_2,zh2x,au,zh2x_au,zh2x_8_auxau.wav,zh2x_8_auxau.wav,,TRUE,FALSE,,,,,,,,,,,,,,f,0.2758,space,0.6333,,,,,,,,0,19,19,17,1,,
63ebd39a63bb79b50d438ab7,2023-06-16_13h57.24.564,phx_ver10,2022.2.5,Win32,59.90534955,,,,,,,,,,,,42,testing_3,zh2sh,ei,zh2sh_ei,zh2sh_8_eishei.wav,zh2sh_8_eishei.wav,,TRUE,FALSE,,,,,,,,,,,,,,j,0.1523,space,0.7541,,,,,,,,0,20,20,41,1,,
63ebd39a63bb79b50d438ab7,2023-06-16_13h57.24.564,phx_ver10,2022.2.5,Win32,59.90534955,,,,,,,,,,,,90,testing_3,j2x,ei,j2x_ei,j2x_8_eixei.wav,j2x_8_eixei.wav,,TRUE,FALSE,,,,,,,,,,,,,,f,0.7136,space,1.0522,,,,,,,,0,21,21,89,1,,
63ebd39a63bb79b50d438ab7,2023-06-16_13h57.24.564,phx_ver10,2022.2.5,Win32,59.90534955,,,,,,,,,,,,26,testing_3,zh2sh,a,zh2sh_a,zh2sh_8_asha.wav,zh2sh_8_asha.wav,,TRUE,FALSE,,,,,,,,,,,,,,f,0.2965,space,0.6033,,,,,,,,0,22,22,25,1,,
63ebd39a63bb79b50d438ab7,2023-06-16_13h57.24.564,phx_ver10,2022.2.5,Win32,59.90534955,,,,,,,,,,,,65,testing_3,zh2j,ei,zh2j_ei,zh2j_1_eizhei.wav,zh2j_1_eizhei.wav,,TRUE,FALSE,,,,,,,,,,,,,,f,0.1328,space,0.8937,,,,,,,,0,23,23,64,1,,
63ebd39a63bb79b50d438ab7,2023-06-16_13h57.24.564,phx_ver10,2022.2.5,Win32,59.90534955,,,,,,,,,,,,22,testing_2,zh2x,ei,zh2x_ei,zh2x_8_eixei.wav,zh2x_8_eixei.wav,,TRUE,FALSE,,,,,,,,,,,,,,f,0.4648,space,0.7867,,,,,,,,0,24,24,21,1,,
63ebd39a63bb79b50d438ab7,2023-06-16_13h57.24.564,phx_ver10,2022.2.5,Win32,59.90534955,,,,,,,,,,,,132,testing_3,sh2j,au,sh2j_au,sh2j_8_aujau.wav,sh2j_1_aushau.wav,,FALSE,FALSE,,,,,,,,,,,,,,j,0.2336,space,0.5897,,,,,,,,0,25,25,131,1,,
63ebd39a63bb79b50d438ab7,2023-06-16_13h57.24.564,phx_ver10,2022.2.5,Win32,59.90534955,,,,,,,,,,,,117,testing_3,sh2x,i,sh2x_i,sh2x_1_ishi.wav,sh2x_1_ishi.wav,,TRUE,FALSE,,,,,,,,,,,,,,f,0.2357,space,0.5095,,,,,,,,0,26,26,116,1,,
63ebd39a63bb79b50d438ab7,2023-06-16_13h57.24.564,phx_ver10,2022.2.5,Win32,59.90534955,,,,,,,,,,,,111,testing_3,sh2x,e,sh2x_e,sh2x_1_eshe.wav,sh2x_8_exe.wav,,FALSE,FALSE,,,,,,,,,,,,,,f,0.0336,space,0.4515,,,,,,,,0,27,27,110,1,,
63ebd39a63bb79b50d438ab7,2023-06-16_13h57.24.564,phx_ver10,2022.2.5,Win32,59.90534955,,,,,,,,,,,,66,testing_3,zh2j,ei,zh2j_ei,zh2j_8_eijei.wav,zh2j_8_eijei.wav,,TRUE,FALSE,,,,,,,,,,,,,,f,0.0822,space,0.4178,,,,,,,,0,28,28,65,1,,
63ebd39a63bb79b50d438ab7,2023-06-16_13h57.24.564,phx_ver10,2022.2.5,Win32,59.90534955,,,,,,,,,,,,16,testing_2,zh2x,ai,zh2x_ai,zh2x_8_aixai.wav,zh2x_1_aizhai.wav,,FALSE,FALSE,,,,,,,,,,,,,,j,0.1988,space,0.5229,,,,,,,,0,29,29,15,1,,
63ebd39a63bb79b50d438ab7,2023-06-16_13h57.24.564,phx_ver10,2022.2.5,Win32,59.90534955,,,,,,,,,,,,103,testing_3,sh2x,ai,sh2x_ai,sh2x_1_aishai.wav,sh2x_8_aixai.wav,,FALSE,FALSE,,,,,,,,,,,,,,f,0.1168,space,0.4333,,,,,,,,0,30,30,102,1,,
63ebd39a63bb79b50d438ab7,2023-06-16_13h57.24.564,phx_ver10,2022.2.5,Win32,59.90534955,,,,,,,,,,,,48,testing_3,zh2sh,i,zh2sh_i,zh2sh_8_ishi.wav,zh2sh_1_izhi.wav,,FALSE,FALSE,,,,,,,,,,,,,,j,0.087,space,0.4732,,,,,,,,0,31,31,47,1,,
63ebd39a63bb79b50d438ab7,2023-06-16_13h57.24.564,phx_ver10,2022.2.5,Win32,59.90534955,,,,,,,,,,,,19,testing_2,zh2x,au,zh2x_au,zh2x_1_auzhau.wav,zh2x_8_auxau.wav,,FALSE,FALSE,,,,,,,,,,,,,,j,0.1335,space,0.5348,,,,,,,,0,32,32,18,1,,
63ebd39a63bb79b50d438ab7,2023-06-16_13h57.24.564,phx_ver10,2022.2.5,Win32,59.90534955,,,,,,,,,,,,88,testing_3,j2x,e,j2x_e,j2x_8_exe.wav,j2x_1_eje.wav,,FALSE,FALSE,,,,,,,,,,,,,,j,0.4224,space,0.8356,,,,,,,,0,33,33,87,1,,
63ebd39a63bb79b50d438ab7,2023-06-16_13h57.24.564,phx_ver10,2022.2.5,Win32,59.90534955,,,,,,,,,,,,37,testing_3,zh2sh,e,zh2sh_e,zh2sh_1_ezhe.wav,zh2sh_1_ezhe.wav,,TRUE,FALSE,,,,,,,,,,,,,,f,0.7147,space,1.0422,,,,,,,,0,34,34,36,1,,
63ebd39a63bb79b50d438ab7,2023-06-16_13h57.24.564,phx_ver10,2022.2.5,Win32,59.90534955,,,,,,,,,,,,89,testing_3,j2x,ei,j2x_ei,j2x_1_eijei.wav,j2x_1_eijei.wav,,TRUE,FALSE,,,,,,,,,,,,,,f,0.2342,space,0.6029,,,,,,,,0,35,35,88,1,,
63ebd39a63bb79b50d438ab7,2023-06-16_13h57.24.564,phx_ver10,2022.2.5,Win32,59.90534955,,,,,,,,,,,,138,testing_3,sh2j,ei,sh2j_ei,sh2j_8_eijei.wav,sh2j_8_eijei.wav,,TRUE,FALSE,,,,,,,,,,,,,,f,0.1991,space,0.518,,,,,,,,0,36,36,137,1,,
63ebd39a63bb79b50d438ab7,2023-06-16_13h57.24.564,phx_ver10,2022.2.5,Win32,59.90534955,,,,,,,,,,,,45,testing_3,zh2sh,i,zh2sh_i,zh2sh_1_izhi.wav,zh2sh_1_izhi.wav,,TRUE,FALSE,,,,,,,,,,,,,,f,0.3356,space,0.6741,,,,,,,,0,37,37,44,1,,
63ebd39a63bb79b50d438ab7,2023-06-16_13h57.24.564,phx_ver10,2022.2.5,Win32,59.90534955,,,,,,,,,,,,83,testing_3,j2x,au,j2x_au,j2x_1_aujau.wav,j2x_8_auxau.wav,,FALSE,FALSE,,,,,,,,,,,,,,j,5.0593,space,5.4961,,,,,,,,0,38,38,82,1,,
63ebd39a63bb79b50d438ab7,2023-06-16_13h57.24.564,phx_ver10,2022.2.5,Win32,59.90534955,,,,,,,,,,,,62,testing_3,zh2j,e,zh2j_e,zh2j_8_eje.wav,zh2j_8_eje.wav,,TRUE,FALSE,,,,,,,,,,,,,,f,2.0723,space,2.6187,,,,,,,,0,39,39,61,1,,
63ebd39a63bb79b50d438ab7,2023-06-16_13h57.24.564,phx_ver10,2022.2.5,Win32,59.90534955,,,,,,,,,,,,105,testing_3,sh2x,au,sh2x_au,sh2x_1_aushau.wav,sh2x_1_aushau.wav,,TRUE,FALSE,,,,,,,,,,,,,,j,0.9702,space,1.3686,,,,,,,,0,40,40,104,1,,
63ebd39a63bb79b50d438ab7,2023-06-16_13h57.24.564,phx_ver10,2022.2.5,Win32,59.90534955,,,,,,,,,,,,31,testing_3,zh2sh,ai,zh2sh_ai,zh2sh_1_aizhai.wav,zh2sh_8_aishai.wav,,FALSE,FALSE,,,,,,,,,,,,,,j,0.0851,space,0.49,,,,,,,,0,41,41,30,1,,
63ebd39a63bb79b50d438ab7,2023-06-16_13h57.24.564,phx_ver10,2022.2.5,Win32,59.90534955,,,,,,,,,,,,79,testing_3,j2x,ai,j2x_ai,j2x_1_aijai.wav,j2x_8_aixai.wav,,FALSE,FALSE,,,,,,,,,,,,,,j,0.4359,space,0.7004,,,,,,,,0,42,42,78,1,,
63ebd39a63bb79b50d438ab7,2023-06-16_13h57.24.564,phx_ver10,2022.2.5,Win32,59.90534955,,,,,,,,,,,,94,testing_3,j2x,i,j2x_i,j2x_8_ixi.wav,j2x_8_ixi.wav,,TRUE,FALSE,,,,,,,,,,,,,,f,0.3209,space,0.625,,,,,,,,0,43,43,93,1,,
63ebd39a63bb79b50d438ab7,2023-06-16_13h57.24.564,phx_ver10,2022.2.5,Win32,59.90534955,,,,,,,,,,,,68,testing_3,zh2j,ei,zh2j_ei,zh2j_8_eijei.wav,zh2j_1_eizhei.wav,,FALSE,FALSE,,,,,,,,,,,,,,f,0.5226,space,0.8299,,,,,,,,0,44,44,67,1,,
63ebd39a63bb79b50d438ab7,2023-06-16_13h57.24.564,phx_ver10,2022.2.5,Win32,59.90534955,,,,,,,,,,,,91,testing_3,j2x,ei,j2x_ei,j2x_1_eijei.wav,j2x_8_eixei.wav,,FALSE,FALSE,,,,,,,,,,,,,,j,0.0502,space,0.3805,,,,,,,,0,45,45,90,1,,
63ebd39a63bb79b50d438ab7,2023-06-16_13h57.24.564,phx_ver10,2022.2.5,Win32,59.90534955,,,,,,,,,,,,8,testing_1,zh2x,e,zh2x_e,zh2x_8_exe.wav,zh2x_1_ezhe.wav,,FALSE,TRUE,,,,,,,,,,,,,,j,0.3136,space,0.524,,,,,,,,0,46,46,7,1,,
63ebd39a63bb79b50d438ab7,2023-06-16_13h57.24.564,phx_ver10,2022.2.5,Win32,59.90534955,,,,,,,,,,,,33,testing_3,zh2sh,au,zh2sh_au,zh2sh_1_auzhau.wav,zh2sh_1_auzhau.wav,,TRUE,FALSE,,,,,,,,,,,,,,f,0.5575,space,0.8663,,,,,,,,0,47,47,32,1,,
63ebd39a63bb79b50d438ab7,2023-06-16_13h57.24.564,phx_ver10,2022.2.5,Win32,59.90534955,,,,,,,,,,,,35,testing_3,zh2sh,au,zh2sh_au,zh2sh_1_auzhau.wav,zh2sh_8_aushau.wav,,FALSE,FALSE,,,,,,,,,,,,,,j,0.0384,space,0.4007,,,,,,,,0,48,48,34,1,,
63ebd39a63bb79b50d438ab7,2023-06-16_13h57.24.564,phx_ver10,2022.2.5,Win32,59.90534955,,,,,,,,,,,,38,testing_3,zh2sh,e,zh2sh_e,zh2sh_8_eshe.wav,zh2sh_8_eshe.wav,,TRUE,FALSE,,,,,,,,,,,,,,f,0.1016,space,0.4069,,,,,,,,0,49,49,37,1,,
63ebd39a63bb79b50d438ab7,2023-06-16_13h57.24.564,phx_ver10,2022.2.5,Win32,59.90534955,,,,,,,,,,,,6,testing_1,zh2x,e,zh2x_e,zh2x_8_exe.wav,zh2x_8_exe_copy.wav,,TRUE,TRUE,,,,,,,,,,,,,,f,0.3069,space,0.5866,,,,,,,,0,50,50,5,1,,
63ebd39a63bb79b50d438ab7,2023-06-16_13h57.24.564,phx_ver10,2022.2.5,Win32,59.90534955,,,,,,,,,,,,120,testing_3,sh2x,i,sh2x_i,sh2x_8_ixi.wav,sh2x_1_ishi.wav,,FALSE,FALSE,,,,,,,,,,,,,,f,0.2524,space,0.5159,,,,,,,,0,51,51,119,1,,
63ebd39a63bb79b50d438ab7,2023-06-16_13h57.24.564,phx_ver10,2022.2.5,Win32,59.90534955,,,,,,,,,,,,7,testing_1,zh2x,e,zh2x_e,zh2x_1_ezhe.wav,zh2x_8_exe.wav,,FALSE,TRUE,,,,,,,,,,,,,,j,0.2165,space,0.5353,,,,,,,,0,52,52,6,1,,
63ebd39a63bb79b50d438ab7,2023-06-16_13h57.24.564,phx_ver10,2022.2.5,Win32,59.90534955,,,,,,,,,,,,135,testing_3,sh2j,e,sh2j_e,sh2j_1_eshe.wav,sh2j_8_eje.wav,,FALSE,FALSE,,,,,,,,,,,,,,j,0.0973,space,0.5197,,,,,,,,0,53,53,134,1,,
63ebd39a63bb79b50d438ab7,2023-06-16_13h57.24.564,phx_ver10,2022.2.5,Win32,59.90534955,,,,,,,,,,,,34,testing_3,zh2sh,au,zh2sh_au,zh2sh_8_aushau.wav,zh2sh_8_aushau.wav,,TRUE,FALSE,,,,,,,,,,,,,,f,0.2908,space,0.5908,,,,,,,,0,54,54,33,1,,
63ebd39a63bb79b50d438ab7,2023-06-16_13h57.24.564,phx_ver10,2022.2.5,Win32,59.90534955,,,,,,,,,,,,10,testing_1,zh2x,i,zh2x_i,zh2x_8_ixi.wav,zh2x_8_ixi_copy.wav,,TRUE,TRUE,,,,,,,,,,,,,,f,0.0009,space,0.4181,,,,,,,,0,55,55,9,1,,
63ebd39a63bb79b50d438ab7,2023-06-16_13h57.24.564,phx_ver10,2022.2.5,Win32,59.90534955,,,,,,,,,,,,136,testing_3,sh2j,e,sh2j_e,sh2j_8_eje.wav,sh2j_1_eshe.wav,,FALSE,FALSE,,,,,,,,,,,,,,j,0.4406,space,0.6583,,,,,,,,0,56,56,135,1,,
63ebd39a63bb79b50d438ab7,2023-06-16_13h57.24.564,phx_ver10,2022.2.5,Win32,59.90534955,,,,,,,,,,,,81,testing_3,j2x,au,j2x_au,j2x_1_aujau.wav,j2x_1_aujau.wav,,TRUE,FALSE,,,,,,,,,,,,,,f,0.2507,space,1.436,,,,,,,,0,57,57,80,1,,
63ebd39a63bb79b50d438ab7,2023-06-16_13h57.24.564,phx_ver10,2022.2.5,Win32,59.90534955,,,,,,,,,,,,49,testing_3,zh2j,a,zh2j_a,zh2j_1_azha.wav,zh2j_1_azha.wav,,TRUE,FALSE,,,,,,,,,,,,,,f,0.303,space,0.5494,,,,,,,,0,58,58,48,1,,
63ebd39a63bb79b50d438ab7,2023-06-16_13h57.24.564,phx_ver10,2022.2.5,Win32,59.90534955,,,,,,,,,,,,85,testing_3,j2x,e,j2x_e,j2x_1_eje.wav,j2x_1_eje.wav,,TRUE,FALSE,,,,,,,,,,,,,,f,0.0013,space,0.4381,,,,,,,,0,59,59,84,1,,
63ebd39a63bb79b50d438ab7,2023-06-16_13h57.24.564,phx_ver10,2022.2.5,Win32,59.90534955,,,,,,,,,,,,137,testing_3,sh2j,ei,sh2j_ei,sh2j_1_eishei.wav,sh2j_1_eishei.wav,,TRUE,FALSE,,,,,,,,,,,,,,f,0.1563,space,0.464,,,,,,,,0,60,60,136,1,,
63ebd39a63bb79b50d438ab7,2023-06-16_13h57.24.564,phx_ver10,2022.2.5,Win32,59.90534955,,,,,,,,,,,,72,testing_3,zh2j,i,zh2j_i,zh2j_8_iji.wav,zh2j_1_izhi.wav,,FALSE,FALSE,,,,,,,,,,,,,,f,0.3201,space,0.535,,,,,,,,0,61,61,71,1,,
63ebd39a63bb79b50d438ab7,2023-06-16_13h57.24.564,phx_ver10,2022.2.5,Win32,59.90534955,,,,,,,,,,,,29,testing_3,zh2sh,ai,zh2sh_ai,zh2sh_1_aizhai.wav,zh2sh_1_aizhai.wav,,TRUE,FALSE,,,,,,,,,,,,,,f,0.0532,space,0.4011,,,,,,,,0,62,62,28,1,,
63ebd39a63bb79b50d438ab7,2023-06-16_13h57.24.564,phx_ver10,2022.2.5,Win32,59.90534955,,,,,,,,,,,,57,testing_3,zh2j,au,zh2j_au,zh2j_1_auzhau.wav,zh2j_1_auzhau.wav,,TRUE,FALSE,,,,,,,,,,,,,,f,0.2977,space,0.4966,,,,,,,,0,63,63,56,1,,
63ebd39a63bb79b50d438ab7,2023-06-16_13h57.24.564,phx_ver10,2022.2.5,Win32,59.90534955,,,,,,,,,,,,67,testing_3,zh2j,ei,zh2j_ei,zh2j_1_eizhei.wav,zh2j_8_eijei.wav,,FALSE,FALSE,,,,,,,,,,,,,,f,0.3355,space,0.6658,,,,,,,,0,64,64,66,1,,
63ebd39a63bb79b50d438ab7,2023-06-16_13h57.24.564,phx_ver10,2022.2.5,Win32,59.90534955,,,,,,,,,,,,30,testing_3,zh2sh,ai,zh2sh_ai,zh2sh_8_aishai.wav,zh2sh_8_aishai.wav,,TRUE,FALSE,,,,,,,,,,,,,,f,0.6839,space,0.9608,,,,,,,,0,65,65,29,1,,
63ebd39a63bb79b50d438ab7,2023-06-16_13h57.24.564,phx_ver10,2022.2.5,Win32,59.90534955,,,,,,,,,,,,133,testing_3,sh2j,e,sh2j_e,sh2j_1_eshe.wav,sh2j_1_eshe.wav,,TRUE,FALSE,,,,,,,,,,,,,,f,0.2403,space,0.5242,,,,,,,,0,66,66,132,1,,
63ebd39a63bb79b50d438ab7,2023-06-16_13h57.24.564,phx_ver10,2022.2.5,Win32,59.90534955,,,,,,,,,,,,116,testing_3,sh2x,ei,sh2x_ei,sh2x_8_eixei.wav,sh2x_1_eishei.wav,,FALSE,FALSE,,,,,,,,,,,,,,f,0.2864,space,0.5505,,,,,,,,0,67,67,115,1,,
63ebd39a63bb79b50d438ab7,2023-06-16_13h57.24.564,phx_ver10,2022.2.5,Win32,59.90534955,,,,,,,,,,,,74,testing_3,j2x,a,j2x_a,j2x_8_axa.wav,j2x_8_axa.wav,,TRUE,FALSE,,,,,,,,,,,,,,f,0.2873,space,0.4938,,,,,,,,0,68,68,73,1,,
63ebd39a63bb79b50d438ab7,2023-06-16_13h57.24.564,phx_ver10,2022.2.5,Win32,59.90534955,,,,,,,,,,,,44,testing_3,zh2sh,ei,zh2sh_ei,zh2sh_8_eishei.wav,zh2sh_1_eizhei.wav,,FALSE,FALSE,,,,,,,,,,,,,,j,0.3069,space,0.5642,,,,,,,,0,69,69,43,1,,
63ebd39a63bb79b50d438ab7,2023-06-16_13h57.24.564,phx_ver10,2022.2.5,Win32,59.90534955,,,,,,,,,,,,93,testing_3,j2x,i,j2x_i,j2x_1_iji.wav,j2x_1_iji.wav,,TRUE,FALSE,,,,,,,,,,,,,,f,0.1415,space,0.4193,,,,,,,,0,70,70,92,1,,
63ebd39a63bb79b50d438ab7,2023-06-16_13h57.24.564,phx_ver10,2022.2.5,Win32,59.90534955,,,,,,,,,,,,108,testing_3,sh2x,au,sh2x_au,sh2x_8_auxau.wav,sh2x_1_aushau.wav,,FALSE,FALSE,,,,,,,,,,,,,,f,0.9868,space,1.2008,,,,,,,,0,71,71,107,1,,
63ebd39a63bb79b50d438ab7,2023-06-16_13h57.24.564,phx_ver10,2022.2.5,Win32,59.90534955,,,,,,,,,,,,17,testing_2,zh2x,au,zh2x_au,zh2x_1_auzhau.wav,zh2x_1_auzhau.wav,,TRUE,FALSE,,,,,,,,,,,,,,f,0.3124,space,0.5526,,,,,,,,0,72,72,16,1,,
63ebd39a63bb79b50d438ab7,2023-06-16_13h57.24.564,phx_ver10,2022.2.5,Win32,59.90534955,,,,,,,,,,,,107,testing_3,sh2x,au,sh2x_au,sh2x_1_aushau.wav,sh2x_8_auxau.wav,,FALSE,FALSE,,,,,,,,,,,,,,f,0.2996,space,0.5265,,,,,,,,0,73,73,106,1,,
63ebd39a63bb79b50d438ab7,2023-06-16_13h57.24.564,phx_ver10,2022.2.5,Win32,59.90534955,,,,,,,,,,,,60,testing_3,zh2j,au,zh2j_au,zh2j_8_aujau.wav,zh2j_1_auzhau.wav,,FALSE,FALSE,,,,,,,,,,,,,,f,0.1516,space,0.4166,,,,,,,,0,74,74,59,1,,
63ebd39a63bb79b50d438ab7,2023-06-16_13h57.24.564,phx_ver10,2022.2.5,Win32,59.90534955,,,,,,,,,,,,3,testing_1,zh2x,a,zh2x_a,zh2x_1_azha.wav,zh2x_8_axa.wav,,FALSE,TRUE,,,,,,,,,,,,,,j,0.0761,space,0.3951,,,,,,,,0,75,75,2,1,,
63ebd39a63bb79b50d438ab7,2023-06-16_13h57.24.564,phx_ver10,2022.2.5,Win32,59.90534955,,,,,,,,,,,,14,testing_2,zh2x,ai,zh2x_ai,zh2x_8_aixai.wav,zh2x_8_aixai.wav,,TRUE,FALSE,,,,,,,,,,,,,,f,1.0325,space,1.291,,,,,,,,0,76,76,13,1,,
63ebd39a63bb79b50d438ab7,2023-06-16_13h57.24.564,phx_ver10,2022.2.5,Win32,59.90534955,,,,,,,,,,,,128,testing_3,sh2j,ai,sh2j_ai,sh2j_8_aijai.wav,sh2j_1_aishai.wav,,FALSE,FALSE,,,,,,,,,,,,,,j,0.0561,space,0.3506,,,,,,,,0,77,77,127,1,,
63ebd39a63bb79b50d438ab7,2023-06-16_13h57.24.564,phx_ver10,2022.2.5,Win32,59.90534955,,,,,,,,,,,,112,testing_3,sh2x,e,sh2x_e,sh2x_8_exe.wav,sh2x_1_eshe.wav,,FALSE,FALSE,,,,,,,,,,,,,,f,0.1147,space,0.4069,,,,,,,,0,78,78,111,1,,
63ebd39a63bb79b50d438ab7,2023-06-16_13h57.24.564,phx_ver10,2022.2.5,Win32,59.90534955,,,,,,,,,,,,23,testing_2,zh2x,ei,zh2x_ei,zh2x_1_eizhei.wav,zh2x_8_eixei.wav,,FALSE,FALSE,,,,,,,,,,,,,,j,0.5578,space,0.7827,,,,,,,,0,79,79,22,1,,
63ebd39a63bb79b50d438ab7,2023-06-16_13h57.24.564,phx_ver10,2022.2.5,Win32,59.90534955,,,,,,,,,,,,71,testing_3,zh2j,i,zh2j_i,zh2j_1_izhi.wav,zh2j_8_iji.wav,,FALSE,FALSE,,,,,,,,,,,,,,f,0.161,space,0.3659,,,,,,,,0,80,80,70,1,,
63ebd39a63bb79b50d438ab7,2023-06-16_13h57.24.564,phx_ver10,2022.2.5,Win32,59.90534955,,,,,,,,,,,,52,testing_3,zh2j,a,zh2j_a,zh2j_8_aja.wav,zh2j_1_azha.wav,,FALSE,FALSE,,,,,,,,,,,,,,f,0.9521,space,1.1666,,,,,,,,0,81,81,51,1,,
63ebd39a63bb79b50d438ab7,2023-06-16_13h57.24.564,phx_ver10,2022.2.5,Win32,59.90534955,,,,,,,,,,,,20,testing_2,zh2x,au,zh2x_au,zh2x_8_auxau.wav,zh2x_1_auzhau.wav,,FALSE,FALSE,,,,,,,,,,,,,,j,0.2513,space,0.5338,,,,,,,,0,82,82,19,1,,
63ebd39a63bb79b50d438ab7,2023-06-16_13h57.24.564,phx_ver10,2022.2.5,Win32,59.90534955,,,,,,,,,,,,54,testing_3,zh2j,ai,zh2j_ai,zh2j_8_aijai.wav,zh2j_8_aijai.wav,,TRUE,FALSE,,,,,,,,,,,,,,f,0.0006,space,0.3822,,,,,,,,0,83,83,53,1,,
63ebd39a63bb79b50d438ab7,2023-06-16_13h57.24.564,phx_ver10,2022.2.5,Win32,59.90534955,,,,,,,,,,,,46,testing_3,zh2sh,i,zh2sh_i,zh2sh_8_ishi.wav,zh2sh_8_ishi.wav,,TRUE,FALSE,,,,,,,,,,,,,,f,0.148,space,0.3852,,,,,,,,0,84,84,45,1,,
63ebd39a63bb79b50d438ab7,2023-06-16_13h57.24.564,phx_ver10,2022.2.5,Win32,59.90534955,,,,,,,,,,,,56,testing_3,zh2j,ai,zh2j_ai,zh2j_8_aijai.wav,zh2j_1_aizhai.wav,,FALSE,FALSE,,,,,,,,,,,,,,f,0.0867,space,0.4452,,,,,,,,0,85,85,55,1,,
63ebd39a63bb79b50d438ab7,2023-06-16_13h57.24.564,phx_ver10,2022.2.5,Win32,59.90534955,,,,,,,,,,,,139,testing_3,sh2j,ei,sh2j_ei,sh2j_1_eishei.wav,sh2j_8_eijei.wav,,FALSE,FALSE,,,,,,,,,,,,,,j,0.1002,space,0.3346,,,,,,,,0,86,86,138,1,,
63ebd39a63bb79b50d438ab7,2023-06-16_13h57.24.564,phx_ver10,2022.2.5,Win32,59.90534955,,,,,,,,,,,,124,testing_3,sh2j,a,sh2j_a,sh2j_8_aja.wav,sh2j_1_asha.wav,,FALSE,FALSE,,,,,,,,,,,,,,j,0.3168,space,0.5657,,,,,,,,0,87,87,123,1,,
63ebd39a63bb79b50d438ab7,2023-06-16_13h57.24.564,phx_ver10,2022.2.5,Win32,59.90534955,,,,,,,,,,,,40,testing_3,zh2sh,e,zh2sh_e,zh2sh_8_eshe.wav,zh2sh_1_ezhe.wav,,FALSE,FALSE,,,,,,,,,,,,,,j,0.1672,space,0.5499,,,,,,,,0,88,88,39,1,,
63ebd39a63bb79b50d438ab7,2023-06-16_13h57.24.564,phx_ver10,2022.2.5,Win32,59.90534955,,,,,,,,,,,,97,testing_3,sh2x,a,sh2x_a,sh2x_1_asha.wav,sh2x_1_asha.wav,,TRUE,FALSE,,,,,,,,,,,,,,f,0.2807,space,0.5166,,,,,,,,0,89,89,96,1,,
63ebd39a63bb79b50d438ab7,2023-06-16_13h57.24.564,phx_ver10,2022.2.5,Win32,59.90534955,,,,,,,,,,,,104,testing_3,sh2x,ai,sh2x_ai,sh2x_8_aixai.wav,sh2x_1_aishai.wav,,FALSE,FALSE,,,,,,,,,,,,,,f,0.1843,space,0.4202,,,,,,,,0,90,90,103,1,,
63ebd39a63bb79b50d438ab7,2023-06-16_13h57.24.564,phx_ver10,2022.2.5,Win32,59.90534955,,,,,,,,,,,,53,testing_3,zh2j,ai,zh2j_ai,zh2j_1_aizhai.wav,zh2j_1_aizhai.wav,,TRUE,FALSE,,,,,,,,,,,,,,f,0.5158,space,0.7996,,,,,,,,0,91,91,52,1,,
63ebd39a63bb79b50d438ab7,2023-06-16_13h57.24.564,phx_ver10,2022.2.5,Win32,59.90534955,,,,,,,,,,,,27,testing_3,zh2sh,a,zh2sh_a,zh2sh_1_azha.wav,zh2sh_8_asha.wav,,FALSE,FALSE,,,,,,,,,,,,,,j,0.2574,space,0.4926,,,,,,,,0,92,92,26,1,,
63ebd39a63bb79b50d438ab7,2023-06-16_13h57.24.564,phx_ver10,2022.2.5,Win32,59.90534955,,,,,,,,,,,,64,testing_3,zh2j,e,zh2j_e,zh2j_8_eje.wav,zh2j_1_ezhe.wav,,FALSE,FALSE,,,,,,,,,,,,,,f,0.3236,space,0.535,,,,,,,,0,93,93,63,1,,
63ebd39a63bb79b50d438ab7,2023-06-16_13h57.24.564,phx_ver10,2022.2.5,Win32,59.90534955,,,,,,,,,,,,114,testing_3,sh2x,ei,sh2x_ei,sh2x_8_eixei.wav,sh2x_8_eixei.wav,,TRUE,FALSE,,,,,,,,,,,,,,f,0.3324,space,0.5652,,,,,,,,0,94,94,113,1,,
63ebd39a63bb79b50d438ab7,2023-06-16_13h57.24.564,phx_ver10,2022.2.5,Win32,59.90534955,,,,,,,,,,,,36,testing_3,zh2sh,au,zh2sh_au,zh2sh_8_aushau.wav,zh2sh_1_auzhau.wav,,FALSE,FALSE,,,,,,,,,,,,,,j,0.3073,space,0.5173,,,,,,,,0,95,95,35,1,,
63ebd39a63bb79b50d438ab7,2023-06-16_13h57.24.564,phx_ver10,2022.2.5,Win32,59.90534955,,,,,,,,,,,,92,testing_3,j2x,ei,j2x_ei,j2x_8_eixei.wav,j2x_1_eijei.wav,,FALSE,FALSE,,,,,,,,,,,,,,j,0.349,space,0.5872,,,,,,,,0,96,96,91,1,,
63ebd39a63bb79b50d438ab7,2023-06-16_13h57.24.564,phx_ver10,2022.2.5,Win32,59.90534955,,,,,,,,,,,,41,testing_3,zh2sh,ei,zh2sh_ei,zh2sh_1_eizhei.wav,zh2sh_1_eizhei.wav,,TRUE,FALSE,,,,,,,,,,,,,,f,0.5836,space,0.8383,,,,,,,,0,97,97,40,1,,
63ebd39a63bb79b50d438ab7,2023-06-16_13h57.24.564,phx_ver10,2022.2.5,Win32,59.90534955,,,,,,,,,,,,101,testing_3,sh2x,ai,sh2x_ai,sh2x_1_aishai.wav,sh2x_1_aishai.wav,,TRUE,FALSE,,,,,,,,,,,,,,f,0.9829,space,1.2994,,,,,,,,0,98,98,100,1,,
63ebd39a63bb79b50d438ab7,2023-06-16_13h57.24.564,phx_ver10,2022.2.5,Win32,59.90534955,,,,,,,,,,,,95,testing_3,j2x,i,j2x_i,j2x_1_iji.wav,j2x_8_ixi.wav,,FALSE,FALSE,,,,,,,,,,,,,,j,0.583,space,0.8497,,,,,,,,0,99,99,94,1,,
63ebd39a63bb79b50d438ab7,2023-06-16_13h57.24.564,phx_ver10,2022.2.5,Win32,59.90534955,,,,,,,,,,,,39,testing_3,zh2sh,e,zh2sh_e,zh2sh_1_ezhe.wav,zh2sh_8_eshe.wav,,FALSE,FALSE,,,,,,,,,,,,,,j,0.1203,space,0.3918,,,,,,,,0,100,100,38,1,,
63ebd39a63bb79b50d438ab7,2023-06-16_13h57.24.564,phx_ver10,2022.2.5,Win32,59.90534955,,,,,,,,,,,,98,testing_3,sh2x,a,sh2x_a,sh2x_8_axa.wav,sh2x_8_axa.wav,,TRUE,FALSE,,,,,,,,,,,,,,f,0.5481,space,0.7662,,,,,,,,0,101,101,97,1,,
63ebd39a63bb79b50d438ab7,2023-06-16_13h57.24.564,phx_ver10,2022.2.5,Win32,59.90534955,,,,,,,,,,,,15,testing_2,zh2x,ai,zh2x_ai,zh2x_1_aizhai.wav,zh2x_8_aixai.wav,,FALSE,FALSE,,,,,,,,,,,,,,j,0.4504,space,0.6833,,,,,,,,0,102,102,14,1,,
63ebd39a63bb79b50d438ab7,2023-06-16_13h57.24.564,phx_ver10,2022.2.5,Win32,59.90534955,,,,,,,,,,,,86,testing_3,j2x,e,j2x_e,j2x_8_exe.wav,j2x_8_exe.wav,,TRUE,FALSE,,,,,,,,,,,,,,f,0.175,space,0.4998,,,,,,,,0,103,103,85,1,,
63ebd39a63bb79b50d438ab7,2023-06-16_13h57.24.564,phx_ver10,2022.2.5,Win32,59.90534955,,,,,,,,,,,,140,testing_3,sh2j,ei,sh2j_ei,sh2j_8_eijei.wav,sh2j_1_eishei.wav,,FALSE,FALSE,,,,,,,,,,,,,,j,0.5331,space,0.7656,,,,,,,,0,104,104,139,1,,
63ebd39a63bb79b50d438ab7,2023-06-16_13h57.24.564,phx_ver10,2022.2.5,Win32,59.90534955,,,,,,,,,,,,61,testing_3,zh2j,e,zh2j_e,zh2j_1_ezhe.wav,zh2j_1_ezhe.wav,,TRUE,FALSE,,,,,,,,,,,,,,f,0.1557,space,0.3715,,,,,,,,0,105,105,60,1,,
63ebd39a63bb79b50d438ab7,2023-06-16_13h57.24.564,phx_ver10,2022.2.5,Win32,59.90534955,,,,,,,,,,,,141,testing_3,sh2j,i,sh2j_i,sh2j_1_ishi.wav,sh2j_1_ishi.wav,,TRUE,FALSE,,,,,,,,,,,,,,f,0.51,space,0.6768,,,,,,,,0,106,106,140,1,,
63ebd39a63bb79b50d438ab7,2023-06-16_13h57.24.564,phx_ver10,2022.2.5,Win32,59.90534955,,,,,,,,,,,,119,testing_3,sh2x,i,sh2x_i,sh2x_1_ishi.wav,sh2x_8_ixi.wav,,FALSE,FALSE,,,,,,,,,,,,,,f,0.085,space,0.3669,,,,,,,,0,107,107,118,1,,
63ebd39a63bb79b50d438ab7,2023-06-16_13h57.24.564,phx_ver10,2022.2.5,Win32,59.90534955,,,,,,,,,,,,110,testing_3,sh2x,e,sh2x_e,sh2x_8_exe.wav,sh2x_8_exe.wav,,TRUE,FALSE,,,,,,,,,,,,,,f,0.0766,space,0.3076,,,,,,,,0,108,108,109,1,,
63ebd39a63bb79b50d438ab7,2023-06-16_13h57.24.564,phx_ver10,2022.2.5,Win32,59.90534955,,,,,,,,,,,,25,testing_3,zh2sh,a,zh2sh_a,zh2sh_1_azha.wav,zh2sh_1_azha.wav,,TRUE,FALSE,,,,,,,,,,,,,,f,0.4342,space,0.5836,,,,,,,,0,109,109,24,1,,
63ebd39a63bb79b50d438ab7,2023-06-16_13h57.24.564,phx_ver10,2022.2.5,Win32,59.90534955,,,,,,,,,,,,28,testing_3,zh2sh,a,zh2sh_a,zh2sh_8_asha.wav,zh2sh_1_azha.wav,,FALSE,FALSE,,,,,,,,,,,,,,j,0.2879,space,0.5824,,,,,,,,0,110,110,27,1,,
63ebd39a63bb79b50d438ab7,2023-06-16_13h57.24.564,phx_ver10,2022.2.5,Win32,59.90534955,,,,,,,,,,,,123,testing_3,sh2j,a,sh2j_a,sh2j_1_asha.wav,sh2j_8_aja.wav,,FALSE,FALSE,,,,,,,,,,,,,,j,0.0004,space,0.3176,,,,,,,,0,111,111,122,1,,
63ebd39a63bb79b50d438ab7,2023-06-16_13h57.24.564,phx_ver10,2022.2.5,Win32,59.90534955,,,,,,,,,,,,121,testing_3,sh2j,a,sh2j_a,sh2j_1_asha.wav,sh2j_1_asha.wav,,TRUE,FALSE,,,,,,,,,,,,,,f,0.2738,space,0.5568,,,,,,,,0,112,112,120,1,,
63ebd39a63bb79b50d438ab7,2023-06-16_13h57.24.564,phx_ver10,2022.2.5,Win32,59.90534955,,,,,,,,,,,,2,testing_1,zh2x,a,zh2x_a,zh2x_8_axa.wav,zh2x_8_axa_copy.wav,,TRUE,TRUE,,,,,,,,,,,,,,f,0.0269,space,0.4008,,,,,,,,0,113,113,1,1,,
63ebd39a63bb79b50d438ab7,2023-06-16_13h57.24.564,phx_ver10,2022.2.5,Win32,59.90534955,,,,,,,,,,,,144,testing_3,sh2j,i,sh2j_i,sh2j_8_iji.wav,sh2j_1_ishi.wav,,FALSE,FALSE,,,,,,,,,,,,,,j,0.4507,space,0.7494,,,,,,,,0,114,114,143,1,,
63ebd39a63bb79b50d438ab7,2023-06-16_13h57.24.564,phx_ver10,2022.2.5,Win32,59.90534955,,,,,,,,,,,,109,testing_3,sh2x,e,sh2x_e,sh2x_1_eshe.wav,sh2x_1_eshe.wav,,TRUE,FALSE,,,,,,,,,,,,,,f,0.1347,space,0.4678,,,,,,,,0,115,115,108,1,,
63ebd39a63bb79b50d438ab7,2023-06-16_13h57.24.564,phx_ver10,2022.2.5,Win32,59.90534955,,,,,,,,,,,,24,testing_2,zh2x,ei,zh2x_ei,zh2x_8_eixei.wav,zh2x_1_eizhei.wav,,FALSE,FALSE,,,,,,,,,,,,,,j,0.4682,space,0.819,,,,,,,,0,116,116,23,1,,
63ebd39a63bb79b50d438ab7,2023-06-16_13h57.24.564,phx_ver10,2022.2.5,Win32,59.90534955,,,,,,,,,,,,130,testing_3,sh2j,au,sh2j_au,sh2j_8_aujau.wav,sh2j_8_aujau.wav,,TRUE,FALSE,,,,,,,,,,,,,,f,0.1365,space,0.4688,,,,,,,,0,117,117,129,1,,
63ebd39a63bb79b50d438ab7,2023-06-16_13h57.24.564,phx_ver10,2022.2.5,Win32,59.90534955,,,,,,,,,,,,4,testing_1,zh2x,a,zh2x_a,zh2x_8_axa.wav,zh2x_1_azha.wav,,FALSE,TRUE,,,,,,,,,,,,,,j,0.417,space,0.6501,,,,,,,,0,118,118,3,1,,
63ebd39a63bb79b50d438ab7,2023-06-16_13h57.24.564,phx_ver10,2022.2.5,Win32,59.90534955,,,,,,,,,,,,102,testing_3,sh2x,ai,sh2x_ai,sh2x_8_aixai.wav,sh2x_8_aixai.wav,,TRUE,FALSE,,,,,,,,,,,,,,f,0.0923,space,0.4472,,,,,,,,0,119,119,101,1,,
63ebd39a63bb79b50d438ab7,2023-06-16_13h57.24.564,phx_ver10,2022.2.5,Win32,59.90534955,,,,,,,,,,,,77,testing_3,j2x,ai,j2x_ai,j2x_1_aijai.wav,j2x_1_aijai.wav,,TRUE,FALSE,,,,,,,,,,,,,,f,0.5676,space,0.7672,,,,,,,,0,120,120,76,1,,
63ebd39a63bb79b50d438ab7,2023-06-16_13h57.24.564,phx_ver10,2022.2.5,Win32,59.90534955,,,,,,,,,,,,55,testing_3,zh2j,ai,zh2j_ai,zh2j_1_aizhai.wav,zh2j_8_aijai.wav,,FALSE,FALSE,,,,,,,,,,,,,,f,0.2019,space,0.4487,,,,,,,,0,121,121,54,1,,
63ebd39a63bb79b50d438ab7,2023-06-16_13h57.24.564,phx_ver10,2022.2.5,Win32,59.90534955,,,,,,,,,,,,76,testing_3,j2x,a,j2x_a,j2x_8_axa.wav,j2x_1_aja.wav,,FALSE,FALSE,,,,,,,,,,,,,,j,0.3429,space,0.5899,,,,,,,,0,122,122,75,1,,
63ebd39a63bb79b50d438ab7,2023-06-16_13h57.24.564,phx_ver10,2022.2.5,Win32,59.90534955,,,,,,,,,,,,58,testing_3,zh2j,au,zh2j_au,zh2j_8_aujau.wav,zh2j_8_aujau.wav,,TRUE,FALSE,,,,,,,,,,,,,,f,0.0351,space,0.3993,,,,,,,,0,123,123,57,1,,
63ebd39a63bb79b50d438ab7,2023-06-16_13h57.24.564,phx_ver10,2022.2.5,Win32,59.90534955,,,,,,,,,,,,82,testing_3,j2x,au,j2x_au,j2x_8_auxau.wav,j2x_8_auxau.wav,,TRUE,FALSE,,,,,,,,,,,,,,j,0.1007,space,0.6835,,,,,,,,0,124,124,81,1,,
63ebd39a63bb79b50d438ab7,2023-06-16_13h57.24.564,phx_ver10,2022.2.5,Win32,59.90534955,,,,,,,,,,,,70,testing_3,zh2j,i,zh2j_i,zh2j_8_iji.wav,zh2j_8_iji.wav,,TRUE,FALSE,,,,,,,,,,,,,,f,0.8074,space,1.1003,,,,,,,,0,125,125,69,1,,
63ebd39a63bb79b50d438ab7,2023-06-16_13h57.24.564,phx_ver10,2022.2.5,Win32,59.90534955,,,,,,,,,,,,43,testing_3,zh2sh,ei,zh2sh_ei,zh2sh_1_eizhei.wav,zh2sh_8_eishei.wav,,FALSE,FALSE,,,,,,,,,,,,,,j,0.3166,space,0.6247,,,,,,,,0,126,126,42,1,,
63ebd39a63bb79b50d438ab7,2023-06-16_13h57.24.564,phx_ver10,2022.2.5,Win32,59.90534955,,,,,,,,,,,,73,testing_3,j2x,a,j2x_a,j2x_1_aja.wav,j2x_1_aja.wav,,TRUE,FALSE,,,,,,,,,,,,,,f,0.2661,space,0.5048,,,,,,,,0,127,127,72,1,,
63ebd39a63bb79b50d438ab7,2023-06-16_13h57.24.564,phx_ver10,2022.2.5,Win32,59.90534955,,,,,,,,,,,,100,testing_3,sh2x,a,sh2x_a,sh2x_8_axa.wav,sh2x_1_asha.wav,,FALSE,FALSE,,,,,,,,,,,,,,f,1.7326,space,2.079,,,,,,,,0,128,128,99,1,,
63ebd39a63bb79b50d438ab7,2023-06-16_13h57.24.564,phx_ver10,2022.2.5,Win32,59.90534955,,,,,,,,,,,,96,testing_3,j2x,i,j2x_i,j2x_8_ixi.wav,j2x_1_iji.wav,,FALSE,FALSE,,,,,,,,,,,,,,j,0.0843,space,0.3837,,,,,,,,0,129,129,95,1,,
63ebd39a63bb79b50d438ab7,2023-06-16_13h57.24.564,phx_ver10,2022.2.5,Win32,59.90534955,,,,,,,,,,,,143,testing_3,sh2j,i,sh2j_i,sh2j_1_ishi.wav,sh2j_8_iji.wav,,FALSE,FALSE,,,,,,,,,,,,,,j,0.6187,space,0.8673,,,,,,,,0,130,130,142,1,,
63ebd39a63bb79b50d438ab7,2023-06-16_13h57.24.564,phx_ver10,2022.2.5,Win32,59.90534955,,,,,,,,,,,,122,testing_3,sh2j,a,sh2j_a,sh2j_8_aja.wav,sh2j_8_aja.wav,,TRUE,FALSE,,,,,,,,,,,,,,f,0.2301,space,0.4968,,,,,,,,0,131,131,121,1,,
63ebd39a63bb79b50d438ab7,2023-06-16_13h57.24.564,phx_ver10,2022.2.5,Win32,59.90534955,,,,,,,,,,,,5,testing_1,zh2x,e,zh2x_e,zh2x_1_ezhe.wav,zh2x_1_ezhe_copy.wav,,TRUE,TRUE,,,,,,,,,,,,,,f,0.3503,space,0.5998,,,,,,,,0,132,132,4,1,,
63ebd39a63bb79b50d438ab7,2023-06-16_13h57.24.564,phx_ver10,2022.2.5,Win32,59.90534955,,,,,,,,,,,,12,testing_1,zh2x,i,zh2x_i,zh2x_8_ixi.wav,zh2x_1_izhi.wav,,FALSE,TRUE,,,,,,,,,,,,,,f,0.3322,space,0.5816,,,,,,,,0,133,133,11,1,,
63ebd39a63bb79b50d438ab7,2023-06-16_13h57.24.564,phx_ver10,2022.2.5,Win32,59.90534955,,,,,,,,,,,,9,testing_1,zh2x,i,zh2x_i,zh2x_1_izhi.wav,zh2x_1_izhi_copy.wav,,TRUE,TRUE,,,,,,,,,,,,,,f,0.0499,space,0.3874,,,,,,,,0,134,134,8,1,,
63ebd39a63bb79b50d438ab7,2023-06-16_13h57.24.564,phx_ver10,2022.2.5,Win32,59.90534955,,,,,,,,,,,,126,testing_3,sh2j,ai,sh2j_ai,sh2j_8_aijai.wav,sh2j_8_aijai.wav,,TRUE,FALSE,,,,,,,,,,,,,,f,0.233,space,0.486,,,,,,,,0,135,135,125,1,,
63ebd39a63bb79b50d438ab7,2023-06-16_13h57.24.564,phx_ver10,2022.2.5,Win32,59.90534955,,,,,,,,,,,,99,testing_3,sh2x,a,sh2x_a,sh2x_1_asha.wav,sh2x_8_axa.wav,,FALSE,FALSE,,,,,,,,,,,,,,f,0.0528,space,0.6831,,,,,,,,0,136,136,98,1,,
63ebd39a63bb79b50d438ab7,2023-06-16_13h57.24.564,phx_ver10,2022.2.5,Win32,59.90534955,,,,,,,,,,,,125,testing_3,sh2j,ai,sh2j_ai,sh2j_1_aishai.wav,sh2j_1_aishai.wav,,TRUE,FALSE,,,,,,,,,,,,,,f,0.3343,space,0.6657,,,,,,,,0,137,137,124,1,,
63ebd39a63bb79b50d438ab7,2023-06-16_13h57.24.564,phx_ver10,2022.2.5,Win32,59.90534955,,,,,,,,,,,,21,testing_2,zh2x,ei,zh2x_ei,zh2x_1_eizhei.wav,zh2x_1_eizhei.wav,,TRUE,FALSE,,,,,,,,,,,,,,f,0.9687,space,1.1173,,,,,,,,0,138,138,20,1,,
63ebd39a63bb79b50d438ab7,2023-06-16_13h57.24.564,phx_ver10,2022.2.5,Win32,59.90534955,,,,,,,,,,,,129,testing_3,sh2j,au,sh2j_au,sh2j_1_aushau.wav,sh2j_1_aushau.wav,,TRUE,FALSE,,,,,,,,,,,,,,f,0.4338,space,0.7739,,,,,,,,0,139,139,128,1,,
63ebd39a63bb79b50d438ab7,2023-06-16_13h57.24.564,phx_ver10,2022.2.5,Win32,59.90534955,,,,,,,,,,,,131,testing_3,sh2j,au,sh2j_au,sh2j_1_aushau.wav,sh2j_8_aujau.wav,,FALSE,FALSE,,,,,,,,,,,,,,j,0.716,space,1.1825,,,,,,,,0,140,140,130,1,,
63ebd39a63bb79b50d438ab7,2023-06-16_13h57.24.564,phx_ver10,2022.2.5,Win32,59.90534955,,,,,,,,,,,,51,testing_3,zh2j,a,zh2j_a,zh2j_1_azha.wav,zh2j_8_aja.wav,,FALSE,FALSE,,,,,,,,,,,,,,f,0.091,space,0.4497,,,,,,,,0,141,141,50,1,,
63ebd39a63bb79b50d438ab7,2023-06-16_13h57.24.564,phx_ver10,2022.2.5,Win32,59.90534955,,,,,,,,,,,,59,testing_3,zh2j,au,zh2j_au,zh2j_1_auzhau.wav,zh2j_8_aujau.wav,,FALSE,FALSE,,,,,,,,,,,,,,f,0.8825,space,1.2165,,,,,,,,0,142,142,58,1,,
63ebd39a63bb79b50d438ab7,2023-06-16_13h57.24.564,phx_ver10,2022.2.5,Win32,59.90534955,,,,,,,,,,,,78,testing_3,j2x,ai,j2x_ai,j2x_8_aixai.wav,j2x_8_aixai.wav,,TRUE,FALSE,,,,,,,,,,,,,,f,0.0086,space,0.3714,,,,,,,,0,143,143,77,1,,
63ebd39a63bb79b50d438ab7,2023-06-16_13h57.24.564,phx_ver10,2022.2.5,Win32,59.90534955,,,,,,,,,,,,,,,,,,,,,,,,,,,,,,,,,,,,,,,,,,,,,,,,,,,space,3.8637
