participant,date,expName,psychopyVersion,OS,frameRate,space_1.keys,space_1.rt,space_2.keys,space_2.rt,space_train.keys,space_train.rt,training.thisRepN,training.thisTrialN,training.thisN,training.thisIndex,training.ran,token_id,task,continuum,vowel,series,sound_1,sound_2,img,same,trained,FJ_attn.keys,FJ_attn.rt,space_attn.keys,space_attn.rt,if_attn_test.thisRepN,if_attn_test.thisTrialN,if_attn_test.thisN,if_attn_test.thisIndex,if_attn_test.ran,space_trans_1.keys,space_trans_1.rt,space_trans_11.keys,space_trans_11.rt,FJ_test.keys,FJ_test.rt,space_test.keys,space_test.rt,testing_pre.thisRepN,testing_pre.thisTrialN,testing_pre.thisN,testing_pre.thisIndex,testing_pre.ran,space_trans_2.keys,space_trans_2.rt,testing_all.thisRepN,testing_all.thisTrialN,testing_all.thisN,testing_all.thisIndex,testing_all.ran,space_ending.keys,space_ending.rt
63f6262642c9fc5e3c002287,2023-06-16_10h27.52.310,phx_ver10,2022.2.5,MacIntel,60.0024001,,,,,,,,,,,,,,,,,,,,,,,,,,,,,,,,,,,,,,,,,,,,,,,,,,,,
63f6262642c9fc5e3c002287,2023-06-16_10h27.52.310,phx_ver10,2022.2.5,MacIntel,60.0024001,space,1.3325,,,,,,,,,,,,,,,,,,,,,,,,,,,,,,,,,,,,,,,,,,,,,,,,,,
63f6262642c9fc5e3c002287,2023-06-16_10h27.52.310,phx_ver10,2022.2.5,MacIntel,60.0024001,,,space,0.8906,,,,,,,,,,,,,,,,,,,,,,,,,,,,,,,,,,,,,,,,,,,,,,,,
63f6262642c9fc5e3c002287,2023-06-16_10h27.52.310,phx_ver10,2022.2.5,MacIntel,60.0024001,,,,,space,3.2447,0,0,0,35,1,36,training,zh2x,i,zh2x_i,zh2x_2_izhi.wav,,izhi.jpg,,,,,,,,,,,,,,,,,,,,,,,,,,,,,,,,,
63f6262642c9fc5e3c002287,2023-06-16_10h27.52.310,phx_ver10,2022.2.5,MacIntel,60.0024001,,,,,space,0.7276,0,1,1,10,1,11,training,zh2x,a,zh2x_a,zh2x_6_axa.wav,,axa.jpg,,,,,,,,,,,,,,,,,,,,,,,,,,,,,,,,,
63f6262642c9fc5e3c002287,2023-06-16_10h27.52.310,phx_ver10,2022.2.5,MacIntel,60.0024001,,,,,space,1.1489,0,2,2,29,1,30,training,zh2x,e,zh2x_e,zh2x_7_exe.wav,,exe.jpg,,,,,,,,,,,,,,,,,,,,,,,,,,,,,,,,,
63f6262642c9fc5e3c002287,2023-06-16_10h27.52.310,phx_ver10,2022.2.5,MacIntel,60.0024001,,,,,space,0.2431,0,3,3,44,1,45,training,zh2x,i,zh2x_i,zh2x_7_ixi.wav,,ixi.jpg,,,,,,,,,,,,,,,,,,,,,,,,,,,,,,,,,
63f6262642c9fc5e3c002287,2023-06-16_10h27.52.310,phx_ver10,2022.2.5,MacIntel,60.0024001,,,,,space,0.7192,0,4,4,27,1,28,training,zh2x,e,zh2x_e,zh2x_7_exe.wav,,exe.jpg,,,,,,,,,,,,,,,,,,,,,,,,,,,,,,,,,
63f6262642c9fc5e3c002287,2023-06-16_10h27.52.310,phx_ver10,2022.2.5,MacIntel,60.0024001,,,,,space,0.08,0,5,5,8,1,9,training,zh2x,a,zh2x_a,zh2x_5_axa.wav,,axa.jpg,,,,,,,,,,,,,,,,,,,,,,,,,,,,,,,,,
63f6262642c9fc5e3c002287,2023-06-16_10h27.52.310,phx_ver10,2022.2.5,MacIntel,60.0024001,,,,,,,,,,,,,attn_test,,,,zh2x_1_ezhe.wav,zh2x_8_exe.wav,exe.jpg,RIGHT,,f,2.1317,space,3.8087,0,0,0,0,1,,,,,,,,,,,,,,,,,,,,,,
63f6262642c9fc5e3c002287,2023-06-16_10h27.52.310,phx_ver10,2022.2.5,MacIntel,60.0024001,,,,,space,0.9922,0,6,6,31,1,32,training,zh2x,e,zh2x_e,zh2x_8_exe.wav,,exe.jpg,,,,,,,,,,,,,,,,,,,,,,,,,,,,,,,,,
63f6262642c9fc5e3c002287,2023-06-16_10h27.52.310,phx_ver10,2022.2.5,MacIntel,60.0024001,,,,,space,0.4342,0,7,7,18,1,19,training,zh2x,e,zh2x_e,zh2x_2_ezhe.wav,,ezhe.jpg,,,,,,,,,,,,,,,,,,,,,,,,,,,,,,,,,
63f6262642c9fc5e3c002287,2023-06-16_10h27.52.310,phx_ver10,2022.2.5,MacIntel,60.0024001,,,,,space,0.1166,0,8,8,33,1,34,training,zh2x,i,zh2x_i,zh2x_2_izhi.wav,,izhi.jpg,,,,,,,,,,,,,,,,,,,,,,,,,,,,,,,,,
63f6262642c9fc5e3c002287,2023-06-16_10h27.52.310,phx_ver10,2022.2.5,MacIntel,60.0024001,,,,,space,0.4353,0,9,9,39,1,40,training,zh2x,i,zh2x_i,zh2x_4_izhi.wav,,izhi.jpg,,,,,,,,,,,,,,,,,,,,,,,,,,,,,,,,,
63f6262642c9fc5e3c002287,2023-06-16_10h27.52.310,phx_ver10,2022.2.5,MacIntel,60.0024001,,,,,space,1.5488,0,10,10,21,1,22,training,zh2x,e,zh2x_e,zh2x_3_ezhe.wav,,ezhe.jpg,,,,,,,,,,,,,,,,,,,,,,,,,,,,,,,,,
63f6262642c9fc5e3c002287,2023-06-16_10h27.52.310,phx_ver10,2022.2.5,MacIntel,60.0024001,,,,,space,2.3267,0,11,11,20,1,21,training,zh2x,e,zh2x_e,zh2x_2_ezhe.wav,,ezhe.jpg,,,,,,,,,,,,,,,,,,,,,,,,,,,,,,,,,
63f6262642c9fc5e3c002287,2023-06-16_10h27.52.310,phx_ver10,2022.2.5,MacIntel,60.0024001,,,,,,,,,,,,,attn_test,,,,zh2x_1_ezhe.wav,zh2x_8_exe.wav,ezhe.jpg,LEFT,,f,0.7631,space,2.5013,0,0,0,0,1,,,,,,,,,,,,,,,,,,,,,,
63f6262642c9fc5e3c002287,2023-06-16_10h27.52.310,phx_ver10,2022.2.5,MacIntel,60.0024001,,,,,space,0.0347,0,12,12,36,1,37,training,zh2x,i,zh2x_i,zh2x_2_izhi.wav,,izhi.jpg,,,,,,,,,,,,,,,,,,,,,,,,,,,,,,,,,
63f6262642c9fc5e3c002287,2023-06-16_10h27.52.310,phx_ver10,2022.2.5,MacIntel,60.0024001,,,,,space,0.2723,0,13,13,11,1,12,training,zh2x,a,zh2x_a,zh2x_7_axa.wav,,axa.jpg,,,,,,,,,,,,,,,,,,,,,,,,,,,,,,,,,
63f6262642c9fc5e3c002287,2023-06-16_10h27.52.310,phx_ver10,2022.2.5,MacIntel,60.0024001,,,,,space,0.8823,0,14,14,45,1,46,training,zh2x,i,zh2x_i,zh2x_7_ixi.wav,,ixi.jpg,,,,,,,,,,,,,,,,,,,,,,,,,,,,,,,,,
63f6262642c9fc5e3c002287,2023-06-16_10h27.52.310,phx_ver10,2022.2.5,MacIntel,60.0024001,,,,,space,0.017,0,15,15,19,1,20,training,zh2x,e,zh2x_e,zh2x_2_ezhe.wav,,ezhe.jpg,,,,,,,,,,,,,,,,,,,,,,,,,,,,,,,,,
63f6262642c9fc5e3c002287,2023-06-16_10h27.52.310,phx_ver10,2022.2.5,MacIntel,60.0024001,,,,,space,0.0007,0,16,16,5,1,6,training,zh2x,a,zh2x_a,zh2x_3_azha.wav,,azha.jpg,,,,,,,,,,,,,,,,,,,,,,,,,,,,,,,,,
63f6262642c9fc5e3c002287,2023-06-16_10h27.52.310,phx_ver10,2022.2.5,MacIntel,60.0024001,,,,,space,0.6962,0,17,17,13,1,14,training,zh2x,a,zh2x_a,zh2x_7_axa.wav,,axa.jpg,,,,,,,,,,,,,,,,,,,,,,,,,,,,,,,,,
63f6262642c9fc5e3c002287,2023-06-16_10h27.52.310,phx_ver10,2022.2.5,MacIntel,60.0024001,,,,,,,,,,,,,attn_test,,,,zh2x_1_azha.wav,zh2x_1_izhi.wav,azha.jpg,LEFT,,f,0.1352,space,1.3978,0,0,0,0,1,,,,,,,,,,,,,,,,,,,,,,
63f6262642c9fc5e3c002287,2023-06-16_10h27.52.310,phx_ver10,2022.2.5,MacIntel,60.0024001,,,,,space,1.3809,0,18,18,7,1,8,training,zh2x,a,zh2x_a,zh2x_4_azha.wav,,azha.jpg,,,,,,,,,,,,,,,,,,,,,,,,,,,,,,,,,
63f6262642c9fc5e3c002287,2023-06-16_10h27.52.310,phx_ver10,2022.2.5,MacIntel,60.0024001,,,,,space,0.4331,0,19,19,42,1,43,training,zh2x,i,zh2x_i,zh2x_6_ixi.wav,,ixi.jpg,,,,,,,,,,,,,,,,,,,,,,,,,,,,,,,,,
63f6262642c9fc5e3c002287,2023-06-16_10h27.52.310,phx_ver10,2022.2.5,MacIntel,60.0024001,,,,,space,0.239,0,20,20,6,1,7,training,zh2x,a,zh2x_a,zh2x_3_azha.wav,,azha.jpg,,,,,,,,,,,,,,,,,,,,,,,,,,,,,,,,,
63f6262642c9fc5e3c002287,2023-06-16_10h27.52.310,phx_ver10,2022.2.5,MacIntel,60.0024001,,,,,space,0.3591,0,21,21,32,1,33,training,zh2x,i,zh2x_i,zh2x_1_izhi.wav,,izhi.jpg,,,,,,,,,,,,,,,,,,,,,,,,,,,,,,,,,
63f6262642c9fc5e3c002287,2023-06-16_10h27.52.310,phx_ver10,2022.2.5,MacIntel,60.0024001,,,,,space,0.2019,0,22,22,47,1,48,training,zh2x,i,zh2x_i,zh2x_8_ixi.wav,,ixi.jpg,,,,,,,,,,,,,,,,,,,,,,,,,,,,,,,,,
63f6262642c9fc5e3c002287,2023-06-16_10h27.52.310,phx_ver10,2022.2.5,MacIntel,60.0024001,,,,,space,0.1272,0,23,23,41,1,42,training,zh2x,i,zh2x_i,zh2x_6_ixi.wav,,ixi.jpg,,,,,,,,,,,,,,,,,,,,,,,,,,,,,,,,,
63f6262642c9fc5e3c002287,2023-06-16_10h27.52.310,phx_ver10,2022.2.5,MacIntel,60.0024001,,,,,,,,,,,,,attn_test,,,,zh2x_1_ezhe.wav,zh2x_1_azha.wav,azha.jpg,RIGHT,,j,0.2029,space,0.72,0,0,0,0,1,,,,,,,,,,,,,,,,,,,,,,
63f6262642c9fc5e3c002287,2023-06-16_10h27.52.310,phx_ver10,2022.2.5,MacIntel,60.0024001,,,,,space,0.208,0,24,24,22,1,23,training,zh2x,e,zh2x_e,zh2x_3_ezhe.wav,,ezhe.jpg,,,,,,,,,,,,,,,,,,,,,,,,,,,,,,,,,
63f6262642c9fc5e3c002287,2023-06-16_10h27.52.310,phx_ver10,2022.2.5,MacIntel,60.0024001,,,,,space,0.0628,0,25,25,16,1,17,training,zh2x,e,zh2x_e,zh2x_1_ezhe.wav,,ezhe.jpg,,,,,,,,,,,,,,,,,,,,,,,,,,,,,,,,,
63f6262642c9fc5e3c002287,2023-06-16_10h27.52.310,phx_ver10,2022.2.5,MacIntel,60.0024001,,,,,space,0.0004,0,26,26,46,1,47,training,zh2x,i,zh2x_i,zh2x_7_ixi.wav,,ixi.jpg,,,,,,,,,,,,,,,,,,,,,,,,,,,,,,,,,
63f6262642c9fc5e3c002287,2023-06-16_10h27.52.310,phx_ver10,2022.2.5,MacIntel,60.0024001,,,,,space,0.0645,0,27,27,12,1,13,training,zh2x,a,zh2x_a,zh2x_7_axa.wav,,axa.jpg,,,,,,,,,,,,,,,,,,,,,,,,,,,,,,,,,
63f6262642c9fc5e3c002287,2023-06-16_10h27.52.310,phx_ver10,2022.2.5,MacIntel,60.0024001,,,,,space,0.6204,0,28,28,28,1,29,training,zh2x,e,zh2x_e,zh2x_7_exe.wav,,exe.jpg,,,,,,,,,,,,,,,,,,,,,,,,,,,,,,,,,
63f6262642c9fc5e3c002287,2023-06-16_10h27.52.310,phx_ver10,2022.2.5,MacIntel,60.0024001,,,,,space,0.1269,0,29,29,43,1,44,training,zh2x,i,zh2x_i,zh2x_7_ixi.wav,,ixi.jpg,,,,,,,,,,,,,,,,,,,,,,,,,,,,,,,,,
63f6262642c9fc5e3c002287,2023-06-16_10h27.52.310,phx_ver10,2022.2.5,MacIntel,60.0024001,,,,,,,,,,,,,attn_test,,,,zh2x_1_izhi.wav,zh2x_1_ezhe.wav,ezhe.jpg,RIGHT,,j,2.9197,space,3.3546,0,0,0,0,1,,,,,,,,,,,,,,,,,,,,,,
63f6262642c9fc5e3c002287,2023-06-16_10h27.52.310,phx_ver10,2022.2.5,MacIntel,60.0024001,,,,,space,0.1584,0,30,30,17,1,18,training,zh2x,e,zh2x_e,zh2x_2_ezhe.wav,,ezhe.jpg,,,,,,,,,,,,,,,,,,,,,,,,,,,,,,,,,
63f6262642c9fc5e3c002287,2023-06-16_10h27.52.310,phx_ver10,2022.2.5,MacIntel,60.0024001,,,,,space,0.1947,0,31,31,3,1,4,training,zh2x,a,zh2x_a,zh2x_2_azha.wav,,azha.jpg,,,,,,,,,,,,,,,,,,,,,,,,,,,,,,,,,
63f6262642c9fc5e3c002287,2023-06-16_10h27.52.310,phx_ver10,2022.2.5,MacIntel,60.0024001,,,,,space,0.0007,0,32,32,0,1,1,training,zh2x,a,zh2x_a,zh2x_1_azha.wav,,azha.jpg,,,,,,,,,,,,,,,,,,,,,,,,,,,,,,,,,
63f6262642c9fc5e3c002287,2023-06-16_10h27.52.310,phx_ver10,2022.2.5,MacIntel,60.0024001,,,,,space,0.0762,0,33,33,23,1,24,training,zh2x,e,zh2x_e,zh2x_4_ezhe.wav,,ezhe.jpg,,,,,,,,,,,,,,,,,,,,,,,,,,,,,,,,,
63f6262642c9fc5e3c002287,2023-06-16_10h27.52.310,phx_ver10,2022.2.5,MacIntel,60.0024001,,,,,space,0.0327,0,34,34,38,1,39,training,zh2x,i,zh2x_i,zh2x_3_izhi.wav,,izhi.jpg,,,,,,,,,,,,,,,,,,,,,,,,,,,,,,,,,
63f6262642c9fc5e3c002287,2023-06-16_10h27.52.310,phx_ver10,2022.2.5,MacIntel,60.0024001,,,,,space,0.0337,0,35,35,2,1,3,training,zh2x,a,zh2x_a,zh2x_2_azha.wav,,azha.jpg,,,,,,,,,,,,,,,,,,,,,,,,,,,,,,,,,
63f6262642c9fc5e3c002287,2023-06-16_10h27.52.310,phx_ver10,2022.2.5,MacIntel,60.0024001,,,,,,,,,,,,,attn_test,,,,zh2x_1_ezhe.wav,zh2x_1_izhi.wav,ezhe.jpg,LEFT,,f,0.1863,space,0.6284,0,0,0,0,1,,,,,,,,,,,,,,,,,,,,,,
63f6262642c9fc5e3c002287,2023-06-16_10h27.52.310,phx_ver10,2022.2.5,MacIntel,60.0024001,,,,,space,0.2332,0,36,36,30,1,31,training,zh2x,e,zh2x_e,zh2x_7_exe.wav,,exe.jpg,,,,,,,,,,,,,,,,,,,,,,,,,,,,,,,,,
63f6262642c9fc5e3c002287,2023-06-16_10h27.52.310,phx_ver10,2022.2.5,MacIntel,60.0024001,,,,,space,0.4213,0,37,37,1,1,2,training,zh2x,a,zh2x_a,zh2x_2_azha.wav,,azha.jpg,,,,,,,,,,,,,,,,,,,,,,,,,,,,,,,,,
63f6262642c9fc5e3c002287,2023-06-16_10h27.52.310,phx_ver10,2022.2.5,MacIntel,60.0024001,,,,,space,0.141,0,38,38,25,1,26,training,zh2x,e,zh2x_e,zh2x_6_exe.wav,,exe.jpg,,,,,,,,,,,,,,,,,,,,,,,,,,,,,,,,,
63f6262642c9fc5e3c002287,2023-06-16_10h27.52.310,phx_ver10,2022.2.5,MacIntel,60.0024001,,,,,space,0.3843,0,39,39,24,1,25,training,zh2x,e,zh2x_e,zh2x_5_exe.wav,,exe.jpg,,,,,,,,,,,,,,,,,,,,,,,,,,,,,,,,,
63f6262642c9fc5e3c002287,2023-06-16_10h27.52.310,phx_ver10,2022.2.5,MacIntel,60.0024001,,,,,space,0.293,0,40,40,40,1,41,training,zh2x,i,zh2x_i,zh2x_5_ixi.wav,,ixi.jpg,,,,,,,,,,,,,,,,,,,,,,,,,,,,,,,,,
63f6262642c9fc5e3c002287,2023-06-16_10h27.52.310,phx_ver10,2022.2.5,MacIntel,60.0024001,,,,,space,0.3327,0,41,41,37,1,38,training,zh2x,i,zh2x_i,zh2x_3_izhi.wav,,izhi.jpg,,,,,,,,,,,,,,,,,,,,,,,,,,,,,,,,,
63f6262642c9fc5e3c002287,2023-06-16_10h27.52.310,phx_ver10,2022.2.5,MacIntel,60.0024001,,,,,,,,,,,,,attn_test,,,,zh2x_1_ezhe.wav,zh2x_1_izhi.wav,izhi.jpg,RIGHT,,j,0.3922,space,0.8332,0,0,0,0,1,,,,,,,,,,,,,,,,,,,,,,
63f6262642c9fc5e3c002287,2023-06-16_10h27.52.310,phx_ver10,2022.2.5,MacIntel,60.0024001,,,,,space,0.1816,0,42,42,9,1,10,training,zh2x,a,zh2x_a,zh2x_6_axa.wav,,axa.jpg,,,,,,,,,,,,,,,,,,,,,,,,,,,,,,,,,
63f6262642c9fc5e3c002287,2023-06-16_10h27.52.310,phx_ver10,2022.2.5,MacIntel,60.0024001,,,,,space,0.2426,0,43,43,34,1,35,training,zh2x,i,zh2x_i,zh2x_2_izhi.wav,,izhi.jpg,,,,,,,,,,,,,,,,,,,,,,,,,,,,,,,,,
63f6262642c9fc5e3c002287,2023-06-16_10h27.52.310,phx_ver10,2022.2.5,MacIntel,60.0024001,,,,,space,0.0673,0,44,44,26,1,27,training,zh2x,e,zh2x_e,zh2x_6_exe.wav,,exe.jpg,,,,,,,,,,,,,,,,,,,,,,,,,,,,,,,,,
63f6262642c9fc5e3c002287,2023-06-16_10h27.52.310,phx_ver10,2022.2.5,MacIntel,60.0024001,,,,,space,0.0101,0,45,45,15,1,16,training,zh2x,a,zh2x_a,zh2x_8_axa.wav,,axa.jpg,,,,,,,,,,,,,,,,,,,,,,,,,,,,,,,,,
63f6262642c9fc5e3c002287,2023-06-16_10h27.52.310,phx_ver10,2022.2.5,MacIntel,60.0024001,,,,,space,0.3341,0,46,46,4,1,5,training,zh2x,a,zh2x_a,zh2x_2_azha.wav,,azha.jpg,,,,,,,,,,,,,,,,,,,,,,,,,,,,,,,,,
63f6262642c9fc5e3c002287,2023-06-16_10h27.52.310,phx_ver10,2022.2.5,MacIntel,60.0024001,,,,,space,0.5425,0,47,47,14,1,15,training,zh2x,a,zh2x_a,zh2x_7_axa.wav,,axa.jpg,,,,,,,,,,,,,,,,,,,,,,,,,,,,,,,,,
63f6262642c9fc5e3c002287,2023-06-16_10h27.52.310,phx_ver10,2022.2.5,MacIntel,60.0024001,,,,,,,,,,,,,attn_test,,,,zh2x_8_axa.wav,zh2x_8_ixi.wav,axa.jpg,LEFT,,f,0.2083,space,0.5068,,,,,,,,,,,,,,,,,,,,,,,,,,,
63f6262642c9fc5e3c002287,2023-06-16_10h27.52.310,phx_ver10,2022.2.5,MacIntel,60.0024001,,,,,,,,,,,,,,,,,,,,,,,,,,,,,,,space,1.0489,,,,,,,,,,,,,,,,,,,,
63f6262642c9fc5e3c002287,2023-06-16_10h27.52.310,phx_ver10,2022.2.5,MacIntel,60.0024001,,,,,,,,,,,,,,,,,,,,,,,,,,,,,,,,,space,3.0458,,,,,,,,,,,,,,,,,,
63f6262642c9fc5e3c002287,2023-06-16_10h27.52.310,phx_ver10,2022.2.5,MacIntel,60.0024001,,,,,,,,,,,,4,testing_pre,,,,eihei.wav,eihei.wav,,TRUE,,,,,,,,,,,,,,,f,0.8249,space,1.9419,0,0,0,3,1,,,,,,,,,
63f6262642c9fc5e3c002287,2023-06-16_10h27.52.310,phx_ver10,2022.2.5,MacIntel,60.0024001,,,,,,,,,,,,2,testing_pre,,,,auhau.wav,aufau.wav,,FALSE,,,,,,,,,,,,,,,j,1.4585,space,1.7506,0,1,1,1,1,,,,,,,,,
63f6262642c9fc5e3c002287,2023-06-16_10h27.52.310,phx_ver10,2022.2.5,MacIntel,60.0024001,,,,,,,,,,,,5,testing_pre,,,,ihi.wav,ifi.wav,,FALSE,,,,,,,,,,,,,,,f,0.2996,space,0.6659,0,2,2,4,1,,,,,,,,,
63f6262642c9fc5e3c002287,2023-06-16_10h27.52.310,phx_ver10,2022.2.5,MacIntel,60.0024001,,,,,,,,,,,,3,testing_pre,,,,afa.wav,aha.wav,,FALSE,,,,,,,,,,,,,,,j,0.8585,space,1.2083,0,3,3,2,1,,,,,,,,,
63f6262642c9fc5e3c002287,2023-06-16_10h27.52.310,phx_ver10,2022.2.5,MacIntel,60.0024001,,,,,,,,,,,,1,testing_pre,,,,ifi.wav,ifi.wav,,TRUE,,,,,,,,,,,,,,,f,2.1669,space,5.8993,0,4,4,0,1,,,,,,,,,
63f6262642c9fc5e3c002287,2023-06-16_10h27.52.310,phx_ver10,2022.2.5,MacIntel,60.0024001,,,,,,,,,,,,,,,,,,,,,,,,,,,,,,,,,,,,,,,,,,,,space,0.8986,,,,,,,
63f6262642c9fc5e3c002287,2023-06-16_10h27.52.310,phx_ver10,2022.2.5,MacIntel,60.0024001,,,,,,,,,,,,84,testing_3,j2x,au,j2x_au,j2x_8_auxau.wav,j2x_1_aujau.wav,,FALSE,FALSE,,,,,,,,,,,,,,j,0.2525,space,0.5978,,,,,,,,0,0,0,83,1,,
63f6262642c9fc5e3c002287,2023-06-16_10h27.52.310,phx_ver10,2022.2.5,MacIntel,60.0024001,,,,,,,,,,,,100,testing_3,sh2x,a,sh2x_a,sh2x_8_axa.wav,sh2x_1_asha.wav,,FALSE,FALSE,,,,,,,,,,,,,,f,0.0668,space,0.4344,,,,,,,,0,1,1,99,1,,
63f6262642c9fc5e3c002287,2023-06-16_10h27.52.310,phx_ver10,2022.2.5,MacIntel,60.0024001,,,,,,,,,,,,50,testing_3,zh2j,a,zh2j_a,zh2j_8_aja.wav,zh2j_8_aja.wav,,TRUE,FALSE,,,,,,,,,,,,,,f,0.2253,space,0.4988,,,,,,,,0,2,2,49,1,,
63f6262642c9fc5e3c002287,2023-06-16_10h27.52.310,phx_ver10,2022.2.5,MacIntel,60.0024001,,,,,,,,,,,,144,testing_3,sh2j,i,sh2j_i,sh2j_8_iji.wav,sh2j_1_ishi.wav,,FALSE,FALSE,,,,,,,,,,,,,,j,1.2839,space,1.6917,,,,,,,,0,3,3,143,1,,
63f6262642c9fc5e3c002287,2023-06-16_10h27.52.310,phx_ver10,2022.2.5,MacIntel,60.0024001,,,,,,,,,,,,20,testing_2,zh2x,au,zh2x_au,zh2x_8_auxau.wav,zh2x_1_auzhau.wav,,FALSE,FALSE,,,,,,,,,,,,,,j,0.7248,space,1.0883,,,,,,,,0,4,4,19,1,,
63f6262642c9fc5e3c002287,2023-06-16_10h27.52.310,phx_ver10,2022.2.5,MacIntel,60.0024001,,,,,,,,,,,,82,testing_3,j2x,au,j2x_au,j2x_8_auxau.wav,j2x_8_auxau.wav,,TRUE,FALSE,,,,,,,,,,,,,,f,0.3838,space,0.6632,,,,,,,,0,5,5,81,1,,
63f6262642c9fc5e3c002287,2023-06-16_10h27.52.310,phx_ver10,2022.2.5,MacIntel,60.0024001,,,,,,,,,,,,4,testing_1,zh2x,a,zh2x_a,zh2x_8_axa.wav,zh2x_1_azha.wav,,FALSE,TRUE,,,,,,,,,,,,,,j,0.2328,space,0.8022,,,,,,,,0,6,6,3,1,,
63f6262642c9fc5e3c002287,2023-06-16_10h27.52.310,phx_ver10,2022.2.5,MacIntel,60.0024001,,,,,,,,,,,,28,testing_3,zh2sh,a,zh2sh_a,zh2sh_8_asha.wav,zh2sh_1_azha.wav,,FALSE,FALSE,,,,,,,,,,,,,,j,0.1246,space,0.6243,,,,,,,,0,7,7,27,1,,
63f6262642c9fc5e3c002287,2023-06-16_10h27.52.310,phx_ver10,2022.2.5,MacIntel,60.0024001,,,,,,,,,,,,8,testing_1,zh2x,e,zh2x_e,zh2x_8_exe.wav,zh2x_1_ezhe.wav,,FALSE,TRUE,,,,,,,,,,,,,,j,0.1405,space,0.5591,,,,,,,,0,8,8,7,1,,
63f6262642c9fc5e3c002287,2023-06-16_10h27.52.310,phx_ver10,2022.2.5,MacIntel,60.0024001,,,,,,,,,,,,78,testing_3,j2x,ai,j2x_ai,j2x_8_aixai.wav,j2x_8_aixai.wav,,TRUE,FALSE,,,,,,,,,,,,,,f,0.0583,space,0.4056,,,,,,,,0,9,9,77,1,,
63f6262642c9fc5e3c002287,2023-06-16_10h27.52.310,phx_ver10,2022.2.5,MacIntel,60.0024001,,,,,,,,,,,,27,testing_3,zh2sh,a,zh2sh_a,zh2sh_1_azha.wav,zh2sh_8_asha.wav,,FALSE,FALSE,,,,,,,,,,,,,,j,0.2156,space,0.6656,,,,,,,,0,10,10,26,1,,
63f6262642c9fc5e3c002287,2023-06-16_10h27.52.310,phx_ver10,2022.2.5,MacIntel,60.0024001,,,,,,,,,,,,142,testing_3,sh2j,i,sh2j_i,sh2j_8_iji.wav,sh2j_8_iji.wav,,TRUE,FALSE,,,,,,,,,,,,,,f,0.4171,space,0.6317,,,,,,,,0,11,11,141,1,,
63f6262642c9fc5e3c002287,2023-06-16_10h27.52.310,phx_ver10,2022.2.5,MacIntel,60.0024001,,,,,,,,,,,,69,testing_3,zh2j,i,zh2j_i,zh2j_1_izhi.wav,zh2j_1_izhi.wav,,TRUE,FALSE,,,,,,,,,,,,,,f,0.2742,space,0.5831,,,,,,,,0,12,12,68,1,,
63f6262642c9fc5e3c002287,2023-06-16_10h27.52.310,phx_ver10,2022.2.5,MacIntel,60.0024001,,,,,,,,,,,,72,testing_3,zh2j,i,zh2j_i,zh2j_8_iji.wav,zh2j_1_izhi.wav,,FALSE,FALSE,,,,,,,,,,,,,,f,0.151,space,0.4829,,,,,,,,0,13,13,71,1,,
63f6262642c9fc5e3c002287,2023-06-16_10h27.52.310,phx_ver10,2022.2.5,MacIntel,60.0024001,,,,,,,,,,,,135,testing_3,sh2j,e,sh2j_e,sh2j_1_eshe.wav,sh2j_8_eje.wav,,FALSE,FALSE,,,,,,,,,,,,,,j,0.2793,space,0.967,,,,,,,,0,14,14,134,1,,
63f6262642c9fc5e3c002287,2023-06-16_10h27.52.310,phx_ver10,2022.2.5,MacIntel,60.0024001,,,,,,,,,,,,39,testing_3,zh2sh,e,zh2sh_e,zh2sh_1_ezhe.wav,zh2sh_8_eshe.wav,,FALSE,FALSE,,,,,,,,,,,,,,j,1.0095,space,1.4331,,,,,,,,0,15,15,38,1,,
63f6262642c9fc5e3c002287,2023-06-16_10h27.52.310,phx_ver10,2022.2.5,MacIntel,60.0024001,,,,,,,,,,,,92,testing_3,j2x,ei,j2x_ei,j2x_8_eixei.wav,j2x_1_eijei.wav,,FALSE,FALSE,,,,,,,,,,,,,,j,0.1743,space,0.6061,,,,,,,,0,16,16,91,1,,
63f6262642c9fc5e3c002287,2023-06-16_10h27.52.310,phx_ver10,2022.2.5,MacIntel,60.0024001,,,,,,,,,,,,53,testing_3,zh2j,ai,zh2j_ai,zh2j_1_aizhai.wav,zh2j_1_aizhai.wav,,TRUE,FALSE,,,,,,,,,,,,,,f,0.1976,space,0.5155,,,,,,,,0,17,17,52,1,,
63f6262642c9fc5e3c002287,2023-06-16_10h27.52.310,phx_ver10,2022.2.5,MacIntel,60.0024001,,,,,,,,,,,,81,testing_3,j2x,au,j2x_au,j2x_1_aujau.wav,j2x_1_aujau.wav,,TRUE,FALSE,,,,,,,,,,,,,,f,0.3745,space,0.5864,,,,,,,,0,18,18,80,1,,
63f6262642c9fc5e3c002287,2023-06-16_10h27.52.310,phx_ver10,2022.2.5,MacIntel,60.0024001,,,,,,,,,,,,55,testing_3,zh2j,ai,zh2j_ai,zh2j_1_aizhai.wav,zh2j_8_aijai.wav,,FALSE,FALSE,,,,,,,,,,,,,,f,0.2749,space,0.5749,,,,,,,,0,19,19,54,1,,
63f6262642c9fc5e3c002287,2023-06-16_10h27.52.310,phx_ver10,2022.2.5,MacIntel,60.0024001,,,,,,,,,,,,88,testing_3,j2x,e,j2x_e,j2x_8_exe.wav,j2x_1_eje.wav,,FALSE,FALSE,,,,,,,,,,,,,,j,0.3864,space,0.826,,,,,,,,0,20,20,87,1,,
63f6262642c9fc5e3c002287,2023-06-16_10h27.52.310,phx_ver10,2022.2.5,MacIntel,60.0024001,,,,,,,,,,,,139,testing_3,sh2j,ei,sh2j_ei,sh2j_1_eishei.wav,sh2j_8_eijei.wav,,FALSE,FALSE,,,,,,,,,,,,,,j,0.0679,space,0.5005,,,,,,,,0,21,21,138,1,,
63f6262642c9fc5e3c002287,2023-06-16_10h27.52.310,phx_ver10,2022.2.5,MacIntel,60.0024001,,,,,,,,,,,,12,testing_1,zh2x,i,zh2x_i,zh2x_8_ixi.wav,zh2x_1_izhi.wav,,FALSE,TRUE,,,,,,,,,,,,,,j,0.4744,space,0.7409,,,,,,,,0,22,22,11,1,,
63f6262642c9fc5e3c002287,2023-06-16_10h27.52.310,phx_ver10,2022.2.5,MacIntel,60.0024001,,,,,,,,,,,,122,testing_3,sh2j,a,sh2j_a,sh2j_8_aja.wav,sh2j_8_aja.wav,,TRUE,FALSE,,,,,,,,,,,,,,f,0.2486,space,0.6842,,,,,,,,0,23,23,121,1,,
63f6262642c9fc5e3c002287,2023-06-16_10h27.52.310,phx_ver10,2022.2.5,MacIntel,60.0024001,,,,,,,,,,,,95,testing_3,j2x,i,j2x_i,j2x_1_iji.wav,j2x_8_ixi.wav,,FALSE,FALSE,,,,,,,,,,,,,,j,0.2007,space,0.6924,,,,,,,,0,24,24,94,1,,
63f6262642c9fc5e3c002287,2023-06-16_10h27.52.310,phx_ver10,2022.2.5,MacIntel,60.0024001,,,,,,,,,,,,57,testing_3,zh2j,au,zh2j_au,zh2j_1_auzhau.wav,zh2j_1_auzhau.wav,,TRUE,FALSE,,,,,,,,,,,,,,f,1.3572,space,1.6758,,,,,,,,0,25,25,56,1,,
63f6262642c9fc5e3c002287,2023-06-16_10h27.52.310,phx_ver10,2022.2.5,MacIntel,60.0024001,,,,,,,,,,,,11,testing_1,zh2x,i,zh2x_i,zh2x_1_izhi.wav,zh2x_8_ixi.wav,,FALSE,TRUE,,,,,,,,,,,,,,j,0.3594,space,0.625,,,,,,,,0,26,26,10,1,,
63f6262642c9fc5e3c002287,2023-06-16_10h27.52.310,phx_ver10,2022.2.5,MacIntel,60.0024001,,,,,,,,,,,,26,testing_3,zh2sh,a,zh2sh_a,zh2sh_8_asha.wav,zh2sh_8_asha.wav,,TRUE,FALSE,,,,,,,,,,,,,,f,0.0342,space,0.4114,,,,,,,,0,27,27,25,1,,
63f6262642c9fc5e3c002287,2023-06-16_10h27.52.310,phx_ver10,2022.2.5,MacIntel,60.0024001,,,,,,,,,,,,85,testing_3,j2x,e,j2x_e,j2x_1_eje.wav,j2x_1_eje.wav,,TRUE,FALSE,,,,,,,,,,,,,,j,0.1989,space,0.5143,,,,,,,,0,28,28,84,1,,
63f6262642c9fc5e3c002287,2023-06-16_10h27.52.310,phx_ver10,2022.2.5,MacIntel,60.0024001,,,,,,,,,,,,106,testing_3,sh2x,au,sh2x_au,sh2x_8_auxau.wav,sh2x_8_auxau.wav,,TRUE,FALSE,,,,,,,,,,,,,,f,0.1175,space,0.3822,,,,,,,,0,29,29,105,1,,
63f6262642c9fc5e3c002287,2023-06-16_10h27.52.310,phx_ver10,2022.2.5,MacIntel,60.0024001,,,,,,,,,,,,18,testing_2,zh2x,au,zh2x_au,zh2x_8_auxau.wav,zh2x_8_auxau.wav,,TRUE,FALSE,,,,,,,,,,,,,,f,0.0443,space,0.3591,,,,,,,,0,30,30,17,1,,
63f6262642c9fc5e3c002287,2023-06-16_10h27.52.310,phx_ver10,2022.2.5,MacIntel,60.0024001,,,,,,,,,,,,96,testing_3,j2x,i,j2x_i,j2x_8_ixi.wav,j2x_1_iji.wav,,FALSE,FALSE,,,,,,,,,,,,,,j,0.1825,space,0.5163,,,,,,,,0,31,31,95,1,,
63f6262642c9fc5e3c002287,2023-06-16_10h27.52.310,phx_ver10,2022.2.5,MacIntel,60.0024001,,,,,,,,,,,,17,testing_2,zh2x,au,zh2x_au,zh2x_1_auzhau.wav,zh2x_1_auzhau.wav,,TRUE,FALSE,,,,,,,,,,,,,,f,0.0255,space,0.299,,,,,,,,0,32,32,16,1,,
63f6262642c9fc5e3c002287,2023-06-16_10h27.52.310,phx_ver10,2022.2.5,MacIntel,60.0024001,,,,,,,,,,,,34,testing_3,zh2sh,au,zh2sh_au,zh2sh_8_aushau.wav,zh2sh_8_aushau.wav,,TRUE,FALSE,,,,,,,,,,,,,,f,0.2982,space,0.5001,,,,,,,,0,33,33,33,1,,
63f6262642c9fc5e3c002287,2023-06-16_10h27.52.310,phx_ver10,2022.2.5,MacIntel,60.0024001,,,,,,,,,,,,23,testing_2,zh2x,ei,zh2x_ei,zh2x_1_eizhei.wav,zh2x_8_eixei.wav,,FALSE,FALSE,,,,,,,,,,,,,,j,0.2405,space,0.5402,,,,,,,,0,34,34,22,1,,
63f6262642c9fc5e3c002287,2023-06-16_10h27.52.310,phx_ver10,2022.2.5,MacIntel,60.0024001,,,,,,,,,,,,115,testing_3,sh2x,ei,sh2x_ei,sh2x_1_eishei.wav,sh2x_8_eixei.wav,,FALSE,FALSE,,,,,,,,,,,,,,j,0.1174,space,0.5985,,,,,,,,0,35,35,114,1,,
63f6262642c9fc5e3c002287,2023-06-16_10h27.52.310,phx_ver10,2022.2.5,MacIntel,60.0024001,,,,,,,,,,,,2,testing_1,zh2x,a,zh2x_a,zh2x_8_axa.wav,zh2x_8_axa_copy.wav,,TRUE,TRUE,,,,,,,,,,,,,,f,0.3952,space,0.6355,,,,,,,,0,36,36,1,1,,
63f6262642c9fc5e3c002287,2023-06-16_10h27.52.310,phx_ver10,2022.2.5,MacIntel,60.0024001,,,,,,,,,,,,38,testing_3,zh2sh,e,zh2sh_e,zh2sh_8_eshe.wav,zh2sh_8_eshe.wav,,TRUE,FALSE,,,,,,,,,,,,,,f,0.0747,space,0.3771,,,,,,,,0,37,37,37,1,,
63f6262642c9fc5e3c002287,2023-06-16_10h27.52.310,phx_ver10,2022.2.5,MacIntel,60.0024001,,,,,,,,,,,,62,testing_3,zh2j,e,zh2j_e,zh2j_8_eje.wav,zh2j_8_eje.wav,,TRUE,FALSE,,,,,,,,,,,,,,f,0.0008,space,0.2886,,,,,,,,0,38,38,61,1,,
63f6262642c9fc5e3c002287,2023-06-16_10h27.52.310,phx_ver10,2022.2.5,MacIntel,60.0024001,,,,,,,,,,,,80,testing_3,j2x,ai,j2x_ai,j2x_8_aixai.wav,j2x_1_aijai.wav,,FALSE,FALSE,,,,,,,,,,,,,,j,0.2516,space,0.5322,,,,,,,,0,39,39,79,1,,
63f6262642c9fc5e3c002287,2023-06-16_10h27.52.310,phx_ver10,2022.2.5,MacIntel,60.0024001,,,,,,,,,,,,6,testing_1,zh2x,e,zh2x_e,zh2x_8_exe.wav,zh2x_8_exe_copy.wav,,TRUE,TRUE,,,,,,,,,,,,,,f,0.0401,space,0.325,,,,,,,,0,40,40,5,1,,
63f6262642c9fc5e3c002287,2023-06-16_10h27.52.310,phx_ver10,2022.2.5,MacIntel,60.0024001,,,,,,,,,,,,10,testing_1,zh2x,i,zh2x_i,zh2x_8_ixi.wav,zh2x_8_ixi_copy.wav,,TRUE,TRUE,,,,,,,,,,,,,,f,0.036,space,0.3175,,,,,,,,0,41,41,9,1,,
63f6262642c9fc5e3c002287,2023-06-16_10h27.52.310,phx_ver10,2022.2.5,MacIntel,60.0024001,,,,,,,,,,,,107,testing_3,sh2x,au,sh2x_au,sh2x_1_aushau.wav,sh2x_8_auxau.wav,,FALSE,FALSE,,,,,,,,,,,,,,j,0.4431,space,0.7408,,,,,,,,0,42,42,106,1,,
63f6262642c9fc5e3c002287,2023-06-16_10h27.52.310,phx_ver10,2022.2.5,MacIntel,60.0024001,,,,,,,,,,,,76,testing_3,j2x,a,j2x_a,j2x_8_axa.wav,j2x_1_aja.wav,,FALSE,FALSE,,,,,,,,,,,,,,j,0.0341,space,0.5341,,,,,,,,0,43,43,75,1,,
63f6262642c9fc5e3c002287,2023-06-16_10h27.52.310,phx_ver10,2022.2.5,MacIntel,60.0024001,,,,,,,,,,,,124,testing_3,sh2j,a,sh2j_a,sh2j_8_aja.wav,sh2j_1_asha.wav,,FALSE,FALSE,,,,,,,,,,,,,,j,0.2551,space,0.6574,,,,,,,,0,44,44,123,1,,
63f6262642c9fc5e3c002287,2023-06-16_10h27.52.310,phx_ver10,2022.2.5,MacIntel,60.0024001,,,,,,,,,,,,54,testing_3,zh2j,ai,zh2j_ai,zh2j_8_aijai.wav,zh2j_8_aijai.wav,,TRUE,FALSE,,,,,,,,,,,,,,f,0.2016,space,0.4784,,,,,,,,0,45,45,53,1,,
63f6262642c9fc5e3c002287,2023-06-16_10h27.52.310,phx_ver10,2022.2.5,MacIntel,60.0024001,,,,,,,,,,,,134,testing_3,sh2j,e,sh2j_e,sh2j_8_eje.wav,sh2j_8_eje.wav,,TRUE,FALSE,,,,,,,,,,,,,,f,0.0709,space,0.3226,,,,,,,,0,46,46,133,1,,
63f6262642c9fc5e3c002287,2023-06-16_10h27.52.310,phx_ver10,2022.2.5,MacIntel,60.0024001,,,,,,,,,,,,9,testing_1,zh2x,i,zh2x_i,zh2x_1_izhi.wav,zh2x_1_izhi_copy.wav,,TRUE,TRUE,,,,,,,,,,,,,,f,0.0007,space,0.2836,,,,,,,,0,47,47,8,1,,
63f6262642c9fc5e3c002287,2023-06-16_10h27.52.310,phx_ver10,2022.2.5,MacIntel,60.0024001,,,,,,,,,,,,110,testing_3,sh2x,e,sh2x_e,sh2x_8_exe.wav,sh2x_8_exe.wav,,TRUE,FALSE,,,,,,,,,,,,,,f,0.0324,space,0.2811,,,,,,,,0,48,48,109,1,,
63f6262642c9fc5e3c002287,2023-06-16_10h27.52.310,phx_ver10,2022.2.5,MacIntel,60.0024001,,,,,,,,,,,,60,testing_3,zh2j,au,zh2j_au,zh2j_8_aujau.wav,zh2j_1_auzhau.wav,,FALSE,FALSE,,,,,,,,,,,,,,f,0.6064,space,0.7913,,,,,,,,0,49,49,59,1,,
63f6262642c9fc5e3c002287,2023-06-16_10h27.52.310,phx_ver10,2022.2.5,MacIntel,60.0024001,,,,,,,,,,,,90,testing_3,j2x,ei,j2x_ei,j2x_8_eixei.wav,j2x_8_eixei.wav,,TRUE,FALSE,,,,,,,,,,,,,,f,0.1986,space,0.6485,,,,,,,,0,50,50,89,1,,
63f6262642c9fc5e3c002287,2023-06-16_10h27.52.310,phx_ver10,2022.2.5,MacIntel,60.0024001,,,,,,,,,,,,7,testing_1,zh2x,e,zh2x_e,zh2x_1_ezhe.wav,zh2x_8_exe.wav,,FALSE,TRUE,,,,,,,,,,,,,,j,0.2076,space,0.5842,,,,,,,,0,51,51,6,1,,
63f6262642c9fc5e3c002287,2023-06-16_10h27.52.310,phx_ver10,2022.2.5,MacIntel,60.0024001,,,,,,,,,,,,45,testing_3,zh2sh,i,zh2sh_i,zh2sh_1_izhi.wav,zh2sh_1_izhi.wav,,TRUE,FALSE,,,,,,,,,,,,,,f,0.3174,space,0.5152,,,,,,,,0,52,52,44,1,,
63f6262642c9fc5e3c002287,2023-06-16_10h27.52.310,phx_ver10,2022.2.5,MacIntel,60.0024001,,,,,,,,,,,,32,testing_3,zh2sh,ai,zh2sh_ai,zh2sh_8_aishai.wav,zh2sh_1_aizhai.wav,,FALSE,FALSE,,,,,,,,,,,,,,j,0.3031,space,0.735,,,,,,,,0,53,53,31,1,,
63f6262642c9fc5e3c002287,2023-06-16_10h27.52.310,phx_ver10,2022.2.5,MacIntel,60.0024001,,,,,,,,,,,,105,testing_3,sh2x,au,sh2x_au,sh2x_1_aushau.wav,sh2x_1_aushau.wav,,TRUE,FALSE,,,,,,,,,,,,,,f,0.1172,space,0.4938,,,,,,,,0,54,54,104,1,,
63f6262642c9fc5e3c002287,2023-06-16_10h27.52.310,phx_ver10,2022.2.5,MacIntel,60.0024001,,,,,,,,,,,,70,testing_3,zh2j,i,zh2j_i,zh2j_8_iji.wav,zh2j_8_iji.wav,,TRUE,FALSE,,,,,,,,,,,,,,f,0.0107,space,0.4339,,,,,,,,0,55,55,69,1,,
63f6262642c9fc5e3c002287,2023-06-16_10h27.52.310,phx_ver10,2022.2.5,MacIntel,60.0024001,,,,,,,,,,,,109,testing_3,sh2x,e,sh2x_e,sh2x_1_eshe.wav,sh2x_1_eshe.wav,,TRUE,FALSE,,,,,,,,,,,,,,f,0.3416,space,0.5918,,,,,,,,0,56,56,108,1,,
63f6262642c9fc5e3c002287,2023-06-16_10h27.52.310,phx_ver10,2022.2.5,MacIntel,60.0024001,,,,,,,,,,,,63,testing_3,zh2j,e,zh2j_e,zh2j_1_ezhe.wav,zh2j_8_eje.wav,,FALSE,FALSE,,,,,,,,,,,,,,f,0.0177,space,0.3187,,,,,,,,0,57,57,62,1,,
63f6262642c9fc5e3c002287,2023-06-16_10h27.52.310,phx_ver10,2022.2.5,MacIntel,60.0024001,,,,,,,,,,,,123,testing_3,sh2j,a,sh2j_a,sh2j_1_asha.wav,sh2j_8_aja.wav,,FALSE,FALSE,,,,,,,,,,,,,,f,0.1983,space,0.4814,,,,,,,,0,58,58,122,1,,
63f6262642c9fc5e3c002287,2023-06-16_10h27.52.310,phx_ver10,2022.2.5,MacIntel,60.0024001,,,,,,,,,,,,19,testing_2,zh2x,au,zh2x_au,zh2x_1_auzhau.wav,zh2x_8_auxau.wav,,FALSE,FALSE,,,,,,,,,,,,,,j,0.3951,space,0.7919,,,,,,,,0,59,59,18,1,,
63f6262642c9fc5e3c002287,2023-06-16_10h27.52.310,phx_ver10,2022.2.5,MacIntel,60.0024001,,,,,,,,,,,,37,testing_3,zh2sh,e,zh2sh_e,zh2sh_1_ezhe.wav,zh2sh_1_ezhe.wav,,TRUE,FALSE,,,,,,,,,,,,,,f,0.2245,space,0.4912,,,,,,,,0,60,60,36,1,,
63f6262642c9fc5e3c002287,2023-06-16_10h27.52.310,phx_ver10,2022.2.5,MacIntel,60.0024001,,,,,,,,,,,,73,testing_3,j2x,a,j2x_a,j2x_1_aja.wav,j2x_1_aja.wav,,TRUE,FALSE,,,,,,,,,,,,,,f,0.2311,space,0.4652,,,,,,,,0,61,61,72,1,,
63f6262642c9fc5e3c002287,2023-06-16_10h27.52.310,phx_ver10,2022.2.5,MacIntel,60.0024001,,,,,,,,,,,,141,testing_3,sh2j,i,sh2j_i,sh2j_1_ishi.wav,sh2j_1_ishi.wav,,TRUE,FALSE,,,,,,,,,,,,,,f,0.5602,space,0.7211,,,,,,,,0,62,62,140,1,,
63f6262642c9fc5e3c002287,2023-06-16_10h27.52.310,phx_ver10,2022.2.5,MacIntel,60.0024001,,,,,,,,,,,,140,testing_3,sh2j,ei,sh2j_ei,sh2j_8_eijei.wav,sh2j_1_eishei.wav,,FALSE,FALSE,,,,,,,,,,,,,,j,0.0563,space,0.3223,,,,,,,,0,63,63,139,1,,
63f6262642c9fc5e3c002287,2023-06-16_10h27.52.310,phx_ver10,2022.2.5,MacIntel,60.0024001,,,,,,,,,,,,113,testing_3,sh2x,ei,sh2x_ei,sh2x_1_eishei.wav,sh2x_1_eishei.wav,,TRUE,FALSE,,,,,,,,,,,,,,f,0.3006,space,0.6302,,,,,,,,0,64,64,112,1,,
63f6262642c9fc5e3c002287,2023-06-16_10h27.52.310,phx_ver10,2022.2.5,MacIntel,60.0024001,,,,,,,,,,,,56,testing_3,zh2j,ai,zh2j_ai,zh2j_8_aijai.wav,zh2j_1_aizhai.wav,,FALSE,FALSE,,,,,,,,,,,,,,f,0.0005,space,0.2998,,,,,,,,0,65,65,55,1,,
63f6262642c9fc5e3c002287,2023-06-16_10h27.52.310,phx_ver10,2022.2.5,MacIntel,60.0024001,,,,,,,,,,,,21,testing_2,zh2x,ei,zh2x_ei,zh2x_1_eizhei.wav,zh2x_1_eizhei.wav,,TRUE,FALSE,,,,,,,,,,,,,,f,0.1625,space,0.328,,,,,,,,0,66,66,20,1,,
63f6262642c9fc5e3c002287,2023-06-16_10h27.52.310,phx_ver10,2022.2.5,MacIntel,60.0024001,,,,,,,,,,,,44,testing_3,zh2sh,ei,zh2sh_ei,zh2sh_8_eishei.wav,zh2sh_1_eizhei.wav,,FALSE,FALSE,,,,,,,,,,,,,,j,0.1681,space,0.3677,,,,,,,,0,67,67,43,1,,
63f6262642c9fc5e3c002287,2023-06-16_10h27.52.310,phx_ver10,2022.2.5,MacIntel,60.0024001,,,,,,,,,,,,51,testing_3,zh2j,a,zh2j_a,zh2j_1_azha.wav,zh2j_8_aja.wav,,FALSE,FALSE,,,,,,,,,,,,,,j,0.1668,space,0.4298,,,,,,,,0,68,68,50,1,,
63f6262642c9fc5e3c002287,2023-06-16_10h27.52.310,phx_ver10,2022.2.5,MacIntel,60.0024001,,,,,,,,,,,,40,testing_3,zh2sh,e,zh2sh_e,zh2sh_8_eshe.wav,zh2sh_1_ezhe.wav,,FALSE,FALSE,,,,,,,,,,,,,,j,0.3086,space,0.5021,,,,,,,,0,69,69,39,1,,
63f6262642c9fc5e3c002287,2023-06-16_10h27.52.310,phx_ver10,2022.2.5,MacIntel,60.0024001,,,,,,,,,,,,102,testing_3,sh2x,ai,sh2x_ai,sh2x_8_aixai.wav,sh2x_8_aixai.wav,,TRUE,FALSE,,,,,,,,,,,,,,f,0.1834,space,0.2997,,,,,,,,0,70,70,101,1,,
63f6262642c9fc5e3c002287,2023-06-16_10h27.52.310,phx_ver10,2022.2.5,MacIntel,60.0024001,,,,,,,,,,,,16,testing_2,zh2x,ai,zh2x_ai,zh2x_8_aixai.wav,zh2x_1_aizhai.wav,,FALSE,FALSE,,,,,,,,,,,,,,j,0.1611,space,0.3995,,,,,,,,0,71,71,15,1,,
63f6262642c9fc5e3c002287,2023-06-16_10h27.52.310,phx_ver10,2022.2.5,MacIntel,60.0024001,,,,,,,,,,,,128,testing_3,sh2j,ai,sh2j_ai,sh2j_8_aijai.wav,sh2j_1_aishai.wav,,FALSE,FALSE,,,,,,,,,,,,,,j,0.6656,space,0.9004,,,,,,,,0,72,72,127,1,,
63f6262642c9fc5e3c002287,2023-06-16_10h27.52.310,phx_ver10,2022.2.5,MacIntel,60.0024001,,,,,,,,,,,,116,testing_3,sh2x,ei,sh2x_ei,sh2x_8_eixei.wav,sh2x_1_eishei.wav,,FALSE,FALSE,,,,,,,,,,,,,,f,0.0104,space,0.278,,,,,,,,0,73,73,115,1,,
63f6262642c9fc5e3c002287,2023-06-16_10h27.52.310,phx_ver10,2022.2.5,MacIntel,60.0024001,,,,,,,,,,,,46,testing_3,zh2sh,i,zh2sh_i,zh2sh_8_ishi.wav,zh2sh_8_ishi.wav,,TRUE,FALSE,,,,,,,,,,,,,,f,0.1248,space,0.3237,,,,,,,,0,74,74,45,1,,
63f6262642c9fc5e3c002287,2023-06-16_10h27.52.310,phx_ver10,2022.2.5,MacIntel,60.0024001,,,,,,,,,,,,83,testing_3,j2x,au,j2x_au,j2x_1_aujau.wav,j2x_8_auxau.wav,,FALSE,FALSE,,,,,,,,,,,,,,j,0.1898,space,0.3916,,,,,,,,0,75,75,82,1,,
63f6262642c9fc5e3c002287,2023-06-16_10h27.52.310,phx_ver10,2022.2.5,MacIntel,60.0024001,,,,,,,,,,,,59,testing_3,zh2j,au,zh2j_au,zh2j_1_auzhau.wav,zh2j_8_aujau.wav,,FALSE,FALSE,,,,,,,,,,,,,,j,0.5505,space,0.7342,,,,,,,,0,76,76,58,1,,
63f6262642c9fc5e3c002287,2023-06-16_10h27.52.310,phx_ver10,2022.2.5,MacIntel,60.0024001,,,,,,,,,,,,13,testing_2,zh2x,ai,zh2x_ai,zh2x_1_aizhai.wav,zh2x_1_aizhai.wav,,TRUE,FALSE,,,,,,,,,,,,,,f,0.519,space,0.7091,,,,,,,,0,77,77,12,1,,
63f6262642c9fc5e3c002287,2023-06-16_10h27.52.310,phx_ver10,2022.2.5,MacIntel,60.0024001,,,,,,,,,,,,112,testing_3,sh2x,e,sh2x_e,sh2x_8_exe.wav,sh2x_1_eshe.wav,,FALSE,FALSE,,,,,,,,,,,,,,j,0.2784,space,0.6857,,,,,,,,0,78,78,111,1,,
63f6262642c9fc5e3c002287,2023-06-16_10h27.52.310,phx_ver10,2022.2.5,MacIntel,60.0024001,,,,,,,,,,,,138,testing_3,sh2j,ei,sh2j_ei,sh2j_8_eijei.wav,sh2j_8_eijei.wav,,TRUE,FALSE,,,,,,,,,,,,,,f,0.0161,space,0.3134,,,,,,,,0,79,79,137,1,,
63f6262642c9fc5e3c002287,2023-06-16_10h27.52.310,phx_ver10,2022.2.5,MacIntel,60.0024001,,,,,,,,,,,,31,testing_3,zh2sh,ai,zh2sh_ai,zh2sh_1_aizhai.wav,zh2sh_8_aishai.wav,,FALSE,FALSE,,,,,,,,,,,,,,j,0.1504,space,0.367,,,,,,,,0,80,80,30,1,,
63f6262642c9fc5e3c002287,2023-06-16_10h27.52.310,phx_ver10,2022.2.5,MacIntel,60.0024001,,,,,,,,,,,,130,testing_3,sh2j,au,sh2j_au,sh2j_8_aujau.wav,sh2j_8_aujau.wav,,TRUE,FALSE,,,,,,,,,,,,,,f,0.3919,space,0.5349,,,,,,,,0,81,81,129,1,,
63f6262642c9fc5e3c002287,2023-06-16_10h27.52.310,phx_ver10,2022.2.5,MacIntel,60.0024001,,,,,,,,,,,,119,testing_3,sh2x,i,sh2x_i,sh2x_1_ishi.wav,sh2x_8_ixi.wav,,FALSE,FALSE,,,,,,,,,,,,,,j,0.1672,space,0.411,,,,,,,,0,82,82,118,1,,
63f6262642c9fc5e3c002287,2023-06-16_10h27.52.310,phx_ver10,2022.2.5,MacIntel,60.0024001,,,,,,,,,,,,65,testing_3,zh2j,ei,zh2j_ei,zh2j_1_eizhei.wav,zh2j_1_eizhei.wav,,TRUE,FALSE,,,,,,,,,,,,,,f,0.2505,space,0.3833,,,,,,,,0,83,83,64,1,,
63f6262642c9fc5e3c002287,2023-06-16_10h27.52.310,phx_ver10,2022.2.5,MacIntel,60.0024001,,,,,,,,,,,,52,testing_3,zh2j,a,zh2j_a,zh2j_8_aja.wav,zh2j_1_azha.wav,,FALSE,FALSE,,,,,,,,,,,,,,f,0.2936,space,0.5094,,,,,,,,0,84,84,51,1,,
63f6262642c9fc5e3c002287,2023-06-16_10h27.52.310,phx_ver10,2022.2.5,MacIntel,60.0024001,,,,,,,,,,,,66,testing_3,zh2j,ei,zh2j_ei,zh2j_8_eijei.wav,zh2j_8_eijei.wav,,TRUE,FALSE,,,,,,,,,,,,,,f,0.1154,space,0.4508,,,,,,,,0,85,85,65,1,,
63f6262642c9fc5e3c002287,2023-06-16_10h27.52.310,phx_ver10,2022.2.5,MacIntel,60.0024001,,,,,,,,,,,,24,testing_2,zh2x,ei,zh2x_ei,zh2x_8_eixei.wav,zh2x_1_eizhei.wav,,FALSE,FALSE,,,,,,,,,,,,,,j,0.0862,space,0.4458,,,,,,,,0,86,86,23,1,,
63f6262642c9fc5e3c002287,2023-06-16_10h27.52.310,phx_ver10,2022.2.5,MacIntel,60.0024001,,,,,,,,,,,,36,testing_3,zh2sh,au,zh2sh_au,zh2sh_8_aushau.wav,zh2sh_1_auzhau.wav,,FALSE,FALSE,,,,,,,,,,,,,,j,0.3454,space,0.6506,,,,,,,,0,87,87,35,1,,
63f6262642c9fc5e3c002287,2023-06-16_10h27.52.310,phx_ver10,2022.2.5,MacIntel,60.0024001,,,,,,,,,,,,47,testing_3,zh2sh,i,zh2sh_i,zh2sh_1_izhi.wav,zh2sh_8_ishi.wav,,FALSE,FALSE,,,,,,,,,,,,,,j,0.1523,space,0.4335,,,,,,,,0,88,88,46,1,,
63f6262642c9fc5e3c002287,2023-06-16_10h27.52.310,phx_ver10,2022.2.5,MacIntel,60.0024001,,,,,,,,,,,,89,testing_3,j2x,ei,j2x_ei,j2x_1_eijei.wav,j2x_1_eijei.wav,,TRUE,FALSE,,,,,,,,,,,,,,f,0.1082,space,0.4399,,,,,,,,0,89,89,88,1,,
63f6262642c9fc5e3c002287,2023-06-16_10h27.52.310,phx_ver10,2022.2.5,MacIntel,60.0024001,,,,,,,,,,,,118,testing_3,sh2x,i,sh2x_i,sh2x_8_ixi.wav,sh2x_8_ixi.wav,,TRUE,FALSE,,,,,,,,,,,,,,f,0.3654,space,0.5441,,,,,,,,0,90,90,117,1,,
63f6262642c9fc5e3c002287,2023-06-16_10h27.52.310,phx_ver10,2022.2.5,MacIntel,60.0024001,,,,,,,,,,,,48,testing_3,zh2sh,i,zh2sh_i,zh2sh_8_ishi.wav,zh2sh_1_izhi.wav,,FALSE,FALSE,,,,,,,,,,,,,,j,0.3582,space,0.6171,,,,,,,,0,91,91,47,1,,
63f6262642c9fc5e3c002287,2023-06-16_10h27.52.310,phx_ver10,2022.2.5,MacIntel,60.0024001,,,,,,,,,,,,126,testing_3,sh2j,ai,sh2j_ai,sh2j_8_aijai.wav,sh2j_8_aijai.wav,,TRUE,FALSE,,,,,,,,,,,,,,f,0.1505,space,0.4674,,,,,,,,0,92,92,125,1,,
63f6262642c9fc5e3c002287,2023-06-16_10h27.52.310,phx_ver10,2022.2.5,MacIntel,60.0024001,,,,,,,,,,,,49,testing_3,zh2j,a,zh2j_a,zh2j_1_azha.wav,zh2j_1_azha.wav,,TRUE,FALSE,,,,,,,,,,,,,,f,0.0993,space,0.5024,,,,,,,,0,93,93,48,1,,
63f6262642c9fc5e3c002287,2023-06-16_10h27.52.310,phx_ver10,2022.2.5,MacIntel,60.0024001,,,,,,,,,,,,143,testing_3,sh2j,i,sh2j_i,sh2j_1_ishi.wav,sh2j_8_iji.wav,,FALSE,FALSE,,,,,,,,,,,,,,j,0.0742,space,0.4249,,,,,,,,0,94,94,142,1,,
63f6262642c9fc5e3c002287,2023-06-16_10h27.52.310,phx_ver10,2022.2.5,MacIntel,60.0024001,,,,,,,,,,,,74,testing_3,j2x,a,j2x_a,j2x_8_axa.wav,j2x_8_axa.wav,,TRUE,FALSE,,,,,,,,,,,,,,f,0.1251,space,0.4221,,,,,,,,0,95,95,73,1,,
63f6262642c9fc5e3c002287,2023-06-16_10h27.52.310,phx_ver10,2022.2.5,MacIntel,60.0024001,,,,,,,,,,,,133,testing_3,sh2j,e,sh2j_e,sh2j_1_eshe.wav,sh2j_1_eshe.wav,,TRUE,FALSE,,,,,,,,,,,,,,f,0.0009,space,0.2693,,,,,,,,0,96,96,132,1,,
63f6262642c9fc5e3c002287,2023-06-16_10h27.52.310,phx_ver10,2022.2.5,MacIntel,60.0024001,,,,,,,,,,,,30,testing_3,zh2sh,ai,zh2sh_ai,zh2sh_8_aishai.wav,zh2sh_8_aishai.wav,,TRUE,FALSE,,,,,,,,,,,,,,f,0.0095,space,0.2663,,,,,,,,0,97,97,29,1,,
63f6262642c9fc5e3c002287,2023-06-16_10h27.52.310,phx_ver10,2022.2.5,MacIntel,60.0024001,,,,,,,,,,,,98,testing_3,sh2x,a,sh2x_a,sh2x_8_axa.wav,sh2x_8_axa.wav,,TRUE,FALSE,,,,,,,,,,,,,,f,0.1078,space,0.3849,,,,,,,,0,98,98,97,1,,
63f6262642c9fc5e3c002287,2023-06-16_10h27.52.310,phx_ver10,2022.2.5,MacIntel,60.0024001,,,,,,,,,,,,41,testing_3,zh2sh,ei,zh2sh_ei,zh2sh_1_eizhei.wav,zh2sh_1_eizhei.wav,,TRUE,FALSE,,,,,,,,,,,,,,f,0.0106,space,0.2692,,,,,,,,0,99,99,40,1,,
63f6262642c9fc5e3c002287,2023-06-16_10h27.52.310,phx_ver10,2022.2.5,MacIntel,60.0024001,,,,,,,,,,,,93,testing_3,j2x,i,j2x_i,j2x_1_iji.wav,j2x_1_iji.wav,,TRUE,FALSE,,,,,,,,,,,,,,f,0.0007,space,0.2853,,,,,,,,0,100,100,92,1,,
63f6262642c9fc5e3c002287,2023-06-16_10h27.52.310,phx_ver10,2022.2.5,MacIntel,60.0024001,,,,,,,,,,,,87,testing_3,j2x,e,j2x_e,j2x_1_eje.wav,j2x_8_exe.wav,,FALSE,FALSE,,,,,,,,,,,,,,j,0.1908,space,0.508,,,,,,,,0,101,101,86,1,,
63f6262642c9fc5e3c002287,2023-06-16_10h27.52.310,phx_ver10,2022.2.5,MacIntel,60.0024001,,,,,,,,,,,,137,testing_3,sh2j,ei,sh2j_ei,sh2j_1_eishei.wav,sh2j_1_eishei.wav,,TRUE,FALSE,,,,,,,,,,,,,,f,0.4177,space,0.6662,,,,,,,,0,102,102,136,1,,
63f6262642c9fc5e3c002287,2023-06-16_10h27.52.310,phx_ver10,2022.2.5,MacIntel,60.0024001,,,,,,,,,,,,121,testing_3,sh2j,a,sh2j_a,sh2j_1_asha.wav,sh2j_1_asha.wav,,TRUE,FALSE,,,,,,,,,,,,,,f,0.0698,space,0.3848,,,,,,,,0,103,103,120,1,,
63f6262642c9fc5e3c002287,2023-06-16_10h27.52.310,phx_ver10,2022.2.5,MacIntel,60.0024001,,,,,,,,,,,,132,testing_3,sh2j,au,sh2j_au,sh2j_8_aujau.wav,sh2j_1_aushau.wav,,FALSE,FALSE,,,,,,,,,,,,,,j,0.1274,space,0.4802,,,,,,,,0,104,104,131,1,,
63f6262642c9fc5e3c002287,2023-06-16_10h27.52.310,phx_ver10,2022.2.5,MacIntel,60.0024001,,,,,,,,,,,,114,testing_3,sh2x,ei,sh2x_ei,sh2x_8_eixei.wav,sh2x_8_eixei.wav,,TRUE,FALSE,,,,,,,,,,,,,,f,0.0935,space,0.3917,,,,,,,,0,105,105,113,1,,
63f6262642c9fc5e3c002287,2023-06-16_10h27.52.310,phx_ver10,2022.2.5,MacIntel,60.0024001,,,,,,,,,,,,120,testing_3,sh2x,i,sh2x_i,sh2x_8_ixi.wav,sh2x_1_ishi.wav,,FALSE,FALSE,,,,,,,,,,,,,,j,0.382,space,0.5961,,,,,,,,0,106,106,119,1,,
63f6262642c9fc5e3c002287,2023-06-16_10h27.52.310,phx_ver10,2022.2.5,MacIntel,60.0024001,,,,,,,,,,,,14,testing_2,zh2x,ai,zh2x_ai,zh2x_8_aixai.wav,zh2x_8_aixai.wav,,TRUE,FALSE,,,,,,,,,,,,,,f,0.0902,space,0.3518,,,,,,,,0,107,107,13,1,,
63f6262642c9fc5e3c002287,2023-06-16_10h27.52.310,phx_ver10,2022.2.5,MacIntel,60.0024001,,,,,,,,,,,,68,testing_3,zh2j,ei,zh2j_ei,zh2j_8_eijei.wav,zh2j_1_eizhei.wav,,FALSE,FALSE,,,,,,,,,,,,,,f,0.1467,space,0.4102,,,,,,,,0,108,108,67,1,,
63f6262642c9fc5e3c002287,2023-06-16_10h27.52.310,phx_ver10,2022.2.5,MacIntel,60.0024001,,,,,,,,,,,,97,testing_3,sh2x,a,sh2x_a,sh2x_1_asha.wav,sh2x_1_asha.wav,,TRUE,FALSE,,,,,,,,,,,,,,f,0.5656,space,0.7672,,,,,,,,0,109,109,96,1,,
63f6262642c9fc5e3c002287,2023-06-16_10h27.52.310,phx_ver10,2022.2.5,MacIntel,60.0024001,,,,,,,,,,,,86,testing_3,j2x,e,j2x_e,j2x_8_exe.wav,j2x_8_exe.wav,,TRUE,FALSE,,,,,,,,,,,,,,f,0.1003,space,0.4022,,,,,,,,0,110,110,85,1,,
63f6262642c9fc5e3c002287,2023-06-16_10h27.52.310,phx_ver10,2022.2.5,MacIntel,60.0024001,,,,,,,,,,,,25,testing_3,zh2sh,a,zh2sh_a,zh2sh_1_azha.wav,zh2sh_1_azha.wav,,TRUE,FALSE,,,,,,,,,,,,,,f,0.036,space,0.3286,,,,,,,,0,111,111,24,1,,
63f6262642c9fc5e3c002287,2023-06-16_10h27.52.310,phx_ver10,2022.2.5,MacIntel,60.0024001,,,,,,,,,,,,91,testing_3,j2x,ei,j2x_ei,j2x_1_eijei.wav,j2x_8_eixei.wav,,FALSE,FALSE,,,,,,,,,,,,,,j,0.1416,space,0.4102,,,,,,,,0,112,112,90,1,,
63f6262642c9fc5e3c002287,2023-06-16_10h27.52.310,phx_ver10,2022.2.5,MacIntel,60.0024001,,,,,,,,,,,,22,testing_2,zh2x,ei,zh2x_ei,zh2x_8_eixei.wav,zh2x_8_eixei.wav,,TRUE,FALSE,,,,,,,,,,,,,,f,0.2508,space,0.436,,,,,,,,0,113,113,21,1,,
63f6262642c9fc5e3c002287,2023-06-16_10h27.52.310,phx_ver10,2022.2.5,MacIntel,60.0024001,,,,,,,,,,,,3,testing_1,zh2x,a,zh2x_a,zh2x_1_azha.wav,zh2x_8_axa.wav,,FALSE,TRUE,,,,,,,,,,,,,,j,1.3571,space,1.6902,,,,,,,,0,114,114,2,1,,
63f6262642c9fc5e3c002287,2023-06-16_10h27.52.310,phx_ver10,2022.2.5,MacIntel,60.0024001,,,,,,,,,,,,43,testing_3,zh2sh,ei,zh2sh_ei,zh2sh_1_eizhei.wav,zh2sh_8_eishei.wav,,FALSE,FALSE,,,,,,,,,,,,,,j,0.0425,space,0.4293,,,,,,,,0,115,115,42,1,,
63f6262642c9fc5e3c002287,2023-06-16_10h27.52.310,phx_ver10,2022.2.5,MacIntel,60.0024001,,,,,,,,,,,,108,testing_3,sh2x,au,sh2x_au,sh2x_8_auxau.wav,sh2x_1_aushau.wav,,FALSE,FALSE,,,,,,,,,,,,,,j,0.3851,space,0.6323,,,,,,,,0,116,116,107,1,,
63f6262642c9fc5e3c002287,2023-06-16_10h27.52.310,phx_ver10,2022.2.5,MacIntel,60.0024001,,,,,,,,,,,,125,testing_3,sh2j,ai,sh2j_ai,sh2j_1_aishai.wav,sh2j_1_aishai.wav,,TRUE,FALSE,,,,,,,,,,,,,,f,0.2005,space,0.4805,,,,,,,,0,117,117,124,1,,
63f6262642c9fc5e3c002287,2023-06-16_10h27.52.310,phx_ver10,2022.2.5,MacIntel,60.0024001,,,,,,,,,,,,75,testing_3,j2x,a,j2x_a,j2x_1_aja.wav,j2x_8_axa.wav,,FALSE,FALSE,,,,,,,,,,,,,,j,0.4841,space,0.6674,,,,,,,,0,118,118,74,1,,
63f6262642c9fc5e3c002287,2023-06-16_10h27.52.310,phx_ver10,2022.2.5,MacIntel,60.0024001,,,,,,,,,,,,79,testing_3,j2x,ai,j2x_ai,j2x_1_aijai.wav,j2x_8_aixai.wav,,FALSE,FALSE,,,,,,,,,,,,,,j,0.6598,space,0.8763,,,,,,,,0,119,119,78,1,,
63f6262642c9fc5e3c002287,2023-06-16_10h27.52.310,phx_ver10,2022.2.5,MacIntel,60.0024001,,,,,,,,,,,,99,testing_3,sh2x,a,sh2x_a,sh2x_1_asha.wav,sh2x_8_axa.wav,,FALSE,FALSE,,,,,,,,,,,,,,j,0.3913,space,0.6166,,,,,,,,0,120,120,98,1,,
63f6262642c9fc5e3c002287,2023-06-16_10h27.52.310,phx_ver10,2022.2.5,MacIntel,60.0024001,,,,,,,,,,,,64,testing_3,zh2j,e,zh2j_e,zh2j_8_eje.wav,zh2j_1_ezhe.wav,,FALSE,FALSE,,,,,,,,,,,,,,f,0.3914,space,0.7844,,,,,,,,0,121,121,63,1,,
63f6262642c9fc5e3c002287,2023-06-16_10h27.52.310,phx_ver10,2022.2.5,MacIntel,60.0024001,,,,,,,,,,,,29,testing_3,zh2sh,ai,zh2sh_ai,zh2sh_1_aizhai.wav,zh2sh_1_aizhai.wav,,TRUE,FALSE,,,,,,,,,,,,,,f,0.285,space,0.5016,,,,,,,,0,122,122,28,1,,
63f6262642c9fc5e3c002287,2023-06-16_10h27.52.310,phx_ver10,2022.2.5,MacIntel,60.0024001,,,,,,,,,,,,129,testing_3,sh2j,au,sh2j_au,sh2j_1_aushau.wav,sh2j_1_aushau.wav,,TRUE,FALSE,,,,,,,,,,,,,,f,0.5523,space,0.7519,,,,,,,,0,123,123,128,1,,
63f6262642c9fc5e3c002287,2023-06-16_10h27.52.310,phx_ver10,2022.2.5,MacIntel,60.0024001,,,,,,,,,,,,111,testing_3,sh2x,e,sh2x_e,sh2x_1_eshe.wav,sh2x_8_exe.wav,,FALSE,FALSE,,,,,,,,,,,,,,j,0.0004,space,0.3259,,,,,,,,0,124,124,110,1,,
63f6262642c9fc5e3c002287,2023-06-16_10h27.52.310,phx_ver10,2022.2.5,MacIntel,60.0024001,,,,,,,,,,,,136,testing_3,sh2j,e,sh2j_e,sh2j_8_eje.wav,sh2j_1_eshe.wav,,FALSE,FALSE,,,,,,,,,,,,,,j,0.0835,space,0.47,,,,,,,,0,125,125,135,1,,
63f6262642c9fc5e3c002287,2023-06-16_10h27.52.310,phx_ver10,2022.2.5,MacIntel,60.0024001,,,,,,,,,,,,58,testing_3,zh2j,au,zh2j_au,zh2j_8_aujau.wav,zh2j_8_aujau.wav,,TRUE,FALSE,,,,,,,,,,,,,,f,0.1005,space,0.4005,,,,,,,,0,126,126,57,1,,
63f6262642c9fc5e3c002287,2023-06-16_10h27.52.310,phx_ver10,2022.2.5,MacIntel,60.0024001,,,,,,,,,,,,103,testing_3,sh2x,ai,sh2x_ai,sh2x_1_aishai.wav,sh2x_8_aixai.wav,,FALSE,FALSE,,,,,,,,,,,,,,j,0.0701,space,0.3632,,,,,,,,0,127,127,102,1,,
63f6262642c9fc5e3c002287,2023-06-16_10h27.52.310,phx_ver10,2022.2.5,MacIntel,60.0024001,,,,,,,,,,,,77,testing_3,j2x,ai,j2x_ai,j2x_1_aijai.wav,j2x_1_aijai.wav,,TRUE,FALSE,,,,,,,,,,,,,,f,0.4165,space,0.5631,,,,,,,,0,128,128,76,1,,
63f6262642c9fc5e3c002287,2023-06-16_10h27.52.310,phx_ver10,2022.2.5,MacIntel,60.0024001,,,,,,,,,,,,127,testing_3,sh2j,ai,sh2j_ai,sh2j_1_aishai.wav,sh2j_8_aijai.wav,,FALSE,FALSE,,,,,,,,,,,,,,j,0.4003,space,1.0141,,,,,,,,0,129,129,126,1,,
63f6262642c9fc5e3c002287,2023-06-16_10h27.52.310,phx_ver10,2022.2.5,MacIntel,60.0024001,,,,,,,,,,,,131,testing_3,sh2j,au,sh2j_au,sh2j_1_aushau.wav,sh2j_8_aujau.wav,,FALSE,FALSE,,,,,,,,,,,,,,j,0.3589,space,0.6323,,,,,,,,0,130,130,130,1,,
63f6262642c9fc5e3c002287,2023-06-16_10h27.52.310,phx_ver10,2022.2.5,MacIntel,60.0024001,,,,,,,,,,,,35,testing_3,zh2sh,au,zh2sh_au,zh2sh_1_auzhau.wav,zh2sh_8_aushau.wav,,FALSE,FALSE,,,,,,,,,,,,,,j,0.5156,space,6.0163,,,,,,,,0,131,131,34,1,,
63f6262642c9fc5e3c002287,2023-06-16_10h27.52.310,phx_ver10,2022.2.5,MacIntel,60.0024001,,,,,,,,,,,,117,testing_3,sh2x,i,sh2x_i,sh2x_1_ishi.wav,sh2x_1_ishi.wav,,TRUE,FALSE,,,,,,,,,,,,,,f,0.079,space,0.4506,,,,,,,,0,132,132,116,1,,
63f6262642c9fc5e3c002287,2023-06-16_10h27.52.310,phx_ver10,2022.2.5,MacIntel,60.0024001,,,,,,,,,,,,104,testing_3,sh2x,ai,sh2x_ai,sh2x_8_aixai.wav,sh2x_1_aishai.wav,,FALSE,FALSE,,,,,,,,,,,,,,j,0.2738,space,0.5081,,,,,,,,0,133,133,103,1,,
63f6262642c9fc5e3c002287,2023-06-16_10h27.52.310,phx_ver10,2022.2.5,MacIntel,60.0024001,,,,,,,,,,,,33,testing_3,zh2sh,au,zh2sh_au,zh2sh_1_auzhau.wav,zh2sh_1_auzhau.wav,,TRUE,FALSE,,,,,,,,,,,,,,j,0.058,space,0.2413,,,,,,,,0,134,134,32,1,,
63f6262642c9fc5e3c002287,2023-06-16_10h27.52.310,phx_ver10,2022.2.5,MacIntel,60.0024001,,,,,,,,,,,,5,testing_1,zh2x,e,zh2x_e,zh2x_1_ezhe.wav,zh2x_1_ezhe_copy.wav,,TRUE,TRUE,,,,,,,,,,,,,,f,0.066,space,0.2341,,,,,,,,0,135,135,4,1,,
63f6262642c9fc5e3c002287,2023-06-16_10h27.52.310,phx_ver10,2022.2.5,MacIntel,60.0024001,,,,,,,,,,,,1,testing_1,zh2x,a,zh2x_a,zh2x_1_azha.wav,zh2x_1_azha_copy.wav,,TRUE,TRUE,,,,,,,,,,,,,,j,0.0491,space,0.3439,,,,,,,,0,136,136,0,1,,
63f6262642c9fc5e3c002287,2023-06-16_10h27.52.310,phx_ver10,2022.2.5,MacIntel,60.0024001,,,,,,,,,,,,15,testing_2,zh2x,ai,zh2x_ai,zh2x_1_aizhai.wav,zh2x_8_aixai.wav,,FALSE,FALSE,,,,,,,,,,,,,,j,0.2194,space,0.3596,,,,,,,,0,137,137,14,1,,
63f6262642c9fc5e3c002287,2023-06-16_10h27.52.310,phx_ver10,2022.2.5,MacIntel,60.0024001,,,,,,,,,,,,101,testing_3,sh2x,ai,sh2x_ai,sh2x_1_aishai.wav,sh2x_1_aishai.wav,,TRUE,FALSE,,,,,,,,,,,,,,f,0.8822,space,1.2654,,,,,,,,0,138,138,100,1,,
63f6262642c9fc5e3c002287,2023-06-16_10h27.52.310,phx_ver10,2022.2.5,MacIntel,60.0024001,,,,,,,,,,,,94,testing_3,j2x,i,j2x_i,j2x_8_ixi.wav,j2x_8_ixi.wav,,TRUE,FALSE,,,,,,,,,,,,,,f,0.0877,space,0.2738,,,,,,,,0,139,139,93,1,,
63f6262642c9fc5e3c002287,2023-06-16_10h27.52.310,phx_ver10,2022.2.5,MacIntel,60.0024001,,,,,,,,,,,,67,testing_3,zh2j,ei,zh2j_ei,zh2j_1_eizhei.wav,zh2j_8_eijei.wav,,FALSE,FALSE,,,,,,,,,,,,,,f,0.435,space,0.6185,,,,,,,,0,140,140,66,1,,
63f6262642c9fc5e3c002287,2023-06-16_10h27.52.310,phx_ver10,2022.2.5,MacIntel,60.0024001,,,,,,,,,,,,42,testing_3,zh2sh,ei,zh2sh_ei,zh2sh_8_eishei.wav,zh2sh_8_eishei.wav,,TRUE,FALSE,,,,,,,,,,,,,,f,0.1911,space,0.499,,,,,,,,0,141,141,41,1,,
63f6262642c9fc5e3c002287,2023-06-16_10h27.52.310,phx_ver10,2022.2.5,MacIntel,60.0024001,,,,,,,,,,,,61,testing_3,zh2j,e,zh2j_e,zh2j_1_ezhe.wav,zh2j_1_ezhe.wav,,TRUE,FALSE,,,,,,,,,,,,,,f,0.0005,space,0.2639,,,,,,,,0,142,142,60,1,,
63f6262642c9fc5e3c002287,2023-06-16_10h27.52.310,phx_ver10,2022.2.5,MacIntel,60.0024001,,,,,,,,,,,,71,testing_3,zh2j,i,zh2j_i,zh2j_1_izhi.wav,zh2j_8_iji.wav,,FALSE,FALSE,,,,,,,,,,,,,,f,0.1081,space,0.5223,,,,,,,,0,143,143,70,1,,
63f6262642c9fc5e3c002287,2023-06-16_10h27.52.310,phx_ver10,2022.2.5,MacIntel,60.0024001,,,,,,,,,,,,,,,,,,,,,,,,,,,,,,,,,,,,,,,,,,,,,,,,,,,space,1.5467
