participant,date,expName,psychopyVersion,OS,frameRate,space_1.keys,space_1.rt,space_2.keys,space_2.rt,space_train.keys,space_train.rt,training.thisRepN,training.thisTrialN,training.thisN,training.thisIndex,training.ran,token_id,task,continuum,vowel,series,sound_1,sound_2,img,same,trained,FJ_attn.keys,FJ_attn.rt,space_attn.keys,space_attn.rt,if_attn_test.thisRepN,if_attn_test.thisTrialN,if_attn_test.thisN,if_attn_test.thisIndex,if_attn_test.ran,space_trans_1.keys,space_trans_1.rt,space_trans_11.keys,space_trans_11.rt,FJ_test.keys,FJ_test.rt,space_test.keys,space_test.rt,testing_pre.thisRepN,testing_pre.thisTrialN,testing_pre.thisN,testing_pre.thisIndex,testing_pre.ran,space_trans_2.keys,space_trans_2.rt,testing_all.thisRepN,testing_all.thisTrialN,testing_all.thisN,testing_all.thisIndex,testing_all.ran,space_ending.keys,space_ending.rt
644033d42bdd7e1f439f4d64,2023-06-16_18h56.10.420,phx_ver10,2022.2.5,Win32,60.06006006,,,,,,,,,,,,,,,,,,,,,,,,,,,,,,,,,,,,,,,,,,,,,,,,,,,,
644033d42bdd7e1f439f4d64,2023-06-16_18h56.10.420,phx_ver10,2022.2.5,Win32,60.06006006,space,1.3259,,,,,,,,,,,,,,,,,,,,,,,,,,,,,,,,,,,,,,,,,,,,,,,,,,
644033d42bdd7e1f439f4d64,2023-06-16_18h56.10.420,phx_ver10,2022.2.5,Win32,60.06006006,,,space,0.7495,,,,,,,,,,,,,,,,,,,,,,,,,,,,,,,,,,,,,,,,,,,,,,,,
644033d42bdd7e1f439f4d64,2023-06-16_18h56.10.420,phx_ver10,2022.2.5,Win32,60.06006006,,,,,space,0.9672,0,0,0,19,1,20,training,zh2x,e,zh2x_e,zh2x_2_ezhe.wav,,ezhe.jpg,,,,,,,,,,,,,,,,,,,,,,,,,,,,,,,,,
644033d42bdd7e1f439f4d64,2023-06-16_18h56.10.420,phx_ver10,2022.2.5,Win32,60.06006006,,,,,space,0.6083,0,1,1,25,1,26,training,zh2x,e,zh2x_e,zh2x_6_exe.wav,,exe.jpg,,,,,,,,,,,,,,,,,,,,,,,,,,,,,,,,,
644033d42bdd7e1f439f4d64,2023-06-16_18h56.10.420,phx_ver10,2022.2.5,Win32,60.06006006,,,,,space,0.7417,0,2,2,13,1,14,training,zh2x,a,zh2x_a,zh2x_7_axa.wav,,axa.jpg,,,,,,,,,,,,,,,,,,,,,,,,,,,,,,,,,
644033d42bdd7e1f439f4d64,2023-06-16_18h56.10.420,phx_ver10,2022.2.5,Win32,60.06006006,,,,,space,0.734,0,3,3,47,1,48,training,zh2x,i,zh2x_i,zh2x_8_ixi.wav,,ixi.jpg,,,,,,,,,,,,,,,,,,,,,,,,,,,,,,,,,
644033d42bdd7e1f439f4d64,2023-06-16_18h56.10.420,phx_ver10,2022.2.5,Win32,60.06006006,,,,,space,0.5175,0,4,4,40,1,41,training,zh2x,i,zh2x_i,zh2x_5_ixi.wav,,ixi.jpg,,,,,,,,,,,,,,,,,,,,,,,,,,,,,,,,,
644033d42bdd7e1f439f4d64,2023-06-16_18h56.10.420,phx_ver10,2022.2.5,Win32,60.06006006,,,,,space,1.3495,0,5,5,15,1,16,training,zh2x,a,zh2x_a,zh2x_8_axa.wav,,axa.jpg,,,,,,,,,,,,,,,,,,,,,,,,,,,,,,,,,
644033d42bdd7e1f439f4d64,2023-06-16_18h56.10.420,phx_ver10,2022.2.5,Win32,60.06006006,,,,,,,,,,,,,attn_test,,,,zh2x_8_exe.wav,zh2x_8_axa.wav,exe.jpg,LEFT,,j,0.3206,space,1.799,0,0,0,0,1,,,,,,,,,,,,,,,,,,,,,,
644033d42bdd7e1f439f4d64,2023-06-16_18h56.10.420,phx_ver10,2022.2.5,Win32,60.06006006,,,,,space,0.6673,0,6,6,10,1,11,training,zh2x,a,zh2x_a,zh2x_6_axa.wav,,axa.jpg,,,,,,,,,,,,,,,,,,,,,,,,,,,,,,,,,
644033d42bdd7e1f439f4d64,2023-06-16_18h56.10.420,phx_ver10,2022.2.5,Win32,60.06006006,,,,,space,0.5182,0,7,7,6,1,7,training,zh2x,a,zh2x_a,zh2x_3_azha.wav,,azha.jpg,,,,,,,,,,,,,,,,,,,,,,,,,,,,,,,,,
644033d42bdd7e1f439f4d64,2023-06-16_18h56.10.420,phx_ver10,2022.2.5,Win32,60.06006006,,,,,space,0.3218,0,8,8,3,1,4,training,zh2x,a,zh2x_a,zh2x_2_azha.wav,,azha.jpg,,,,,,,,,,,,,,,,,,,,,,,,,,,,,,,,,
644033d42bdd7e1f439f4d64,2023-06-16_18h56.10.420,phx_ver10,2022.2.5,Win32,60.06006006,,,,,space,0.3864,0,9,9,20,1,21,training,zh2x,e,zh2x_e,zh2x_2_ezhe.wav,,ezhe.jpg,,,,,,,,,,,,,,,,,,,,,,,,,,,,,,,,,
644033d42bdd7e1f439f4d64,2023-06-16_18h56.10.420,phx_ver10,2022.2.5,Win32,60.06006006,,,,,space,0.3888,0,10,10,39,1,40,training,zh2x,i,zh2x_i,zh2x_4_izhi.wav,,izhi.jpg,,,,,,,,,,,,,,,,,,,,,,,,,,,,,,,,,
644033d42bdd7e1f439f4d64,2023-06-16_18h56.10.420,phx_ver10,2022.2.5,Win32,60.06006006,,,,,space,0.1173,0,11,11,26,1,27,training,zh2x,e,zh2x_e,zh2x_6_exe.wav,,exe.jpg,,,,,,,,,,,,,,,,,,,,,,,,,,,,,,,,,
644033d42bdd7e1f439f4d64,2023-06-16_18h56.10.420,phx_ver10,2022.2.5,Win32,60.06006006,,,,,,,,,,,,,attn_test,,,,zh2x_1_azha.wav,zh2x_1_izhi.wav,izhi.jpg,RIGHT,,j,6.97,space,7.4297,0,0,0,0,1,,,,,,,,,,,,,,,,,,,,,,
644033d42bdd7e1f439f4d64,2023-06-16_18h56.10.420,phx_ver10,2022.2.5,Win32,60.06006006,,,,,space,0.6672,0,12,12,24,1,25,training,zh2x,e,zh2x_e,zh2x_5_exe.wav,,exe.jpg,,,,,,,,,,,,,,,,,,,,,,,,,,,,,,,,,
644033d42bdd7e1f439f4d64,2023-06-16_18h56.10.420,phx_ver10,2022.2.5,Win32,60.06006006,,,,,space,0.427,0,13,13,37,1,38,training,zh2x,i,zh2x_i,zh2x_3_izhi.wav,,izhi.jpg,,,,,,,,,,,,,,,,,,,,,,,,,,,,,,,,,
644033d42bdd7e1f439f4d64,2023-06-16_18h56.10.420,phx_ver10,2022.2.5,Win32,60.06006006,,,,,space,0.4002,0,14,14,7,1,8,training,zh2x,a,zh2x_a,zh2x_4_azha.wav,,azha.jpg,,,,,,,,,,,,,,,,,,,,,,,,,,,,,,,,,
644033d42bdd7e1f439f4d64,2023-06-16_18h56.10.420,phx_ver10,2022.2.5,Win32,60.06006006,,,,,space,0.1338,0,15,15,43,1,44,training,zh2x,i,zh2x_i,zh2x_7_ixi.wav,,ixi.jpg,,,,,,,,,,,,,,,,,,,,,,,,,,,,,,,,,
644033d42bdd7e1f439f4d64,2023-06-16_18h56.10.420,phx_ver10,2022.2.5,Win32,60.06006006,,,,,space,0.1013,0,16,16,30,1,31,training,zh2x,e,zh2x_e,zh2x_7_exe.wav,,exe.jpg,,,,,,,,,,,,,,,,,,,,,,,,,,,,,,,,,
644033d42bdd7e1f439f4d64,2023-06-16_18h56.10.420,phx_ver10,2022.2.5,Win32,60.06006006,,,,,space,0.4335,0,17,17,29,1,30,training,zh2x,e,zh2x_e,zh2x_7_exe.wav,,exe.jpg,,,,,,,,,,,,,,,,,,,,,,,,,,,,,,,,,
644033d42bdd7e1f439f4d64,2023-06-16_18h56.10.420,phx_ver10,2022.2.5,Win32,60.06006006,,,,,,,,,,,,,attn_test,,,,zh2x_1_azha.wav,zh2x_1_izhi.wav,izhi.jpg,RIGHT,,j,0.3369,space,0.8836,0,0,0,0,1,,,,,,,,,,,,,,,,,,,,,,
644033d42bdd7e1f439f4d64,2023-06-16_18h56.10.420,phx_ver10,2022.2.5,Win32,60.06006006,,,,,space,0.4007,0,18,18,1,1,2,training,zh2x,a,zh2x_a,zh2x_2_azha.wav,,azha.jpg,,,,,,,,,,,,,,,,,,,,,,,,,,,,,,,,,
644033d42bdd7e1f439f4d64,2023-06-16_18h56.10.420,phx_ver10,2022.2.5,Win32,60.06006006,,,,,space,0.3165,0,19,19,46,1,47,training,zh2x,i,zh2x_i,zh2x_7_ixi.wav,,ixi.jpg,,,,,,,,,,,,,,,,,,,,,,,,,,,,,,,,,
644033d42bdd7e1f439f4d64,2023-06-16_18h56.10.420,phx_ver10,2022.2.5,Win32,60.06006006,,,,,space,0.3326,0,20,20,45,1,46,training,zh2x,i,zh2x_i,zh2x_7_ixi.wav,,ixi.jpg,,,,,,,,,,,,,,,,,,,,,,,,,,,,,,,,,
644033d42bdd7e1f439f4d64,2023-06-16_18h56.10.420,phx_ver10,2022.2.5,Win32,60.06006006,,,,,space,0.4005,0,21,21,42,1,43,training,zh2x,i,zh2x_i,zh2x_6_ixi.wav,,ixi.jpg,,,,,,,,,,,,,,,,,,,,,,,,,,,,,,,,,
644033d42bdd7e1f439f4d64,2023-06-16_18h56.10.420,phx_ver10,2022.2.5,Win32,60.06006006,,,,,space,0.4338,0,22,22,22,1,23,training,zh2x,e,zh2x_e,zh2x_3_ezhe.wav,,ezhe.jpg,,,,,,,,,,,,,,,,,,,,,,,,,,,,,,,,,
644033d42bdd7e1f439f4d64,2023-06-16_18h56.10.420,phx_ver10,2022.2.5,Win32,60.06006006,,,,,space,0.3437,0,23,23,9,1,10,training,zh2x,a,zh2x_a,zh2x_6_axa.wav,,axa.jpg,,,,,,,,,,,,,,,,,,,,,,,,,,,,,,,,,
644033d42bdd7e1f439f4d64,2023-06-16_18h56.10.420,phx_ver10,2022.2.5,Win32,60.06006006,,,,,,,,,,,,,attn_test,,,,zh2x_1_ezhe.wav,zh2x_8_axa.wav,ezhe.jpg,LEFT,,f,0.0507,space,0.6337,0,0,0,0,1,,,,,,,,,,,,,,,,,,,,,,
644033d42bdd7e1f439f4d64,2023-06-16_18h56.10.420,phx_ver10,2022.2.5,Win32,60.06006006,,,,,space,0.5669,0,24,24,14,1,15,training,zh2x,a,zh2x_a,zh2x_7_axa.wav,,axa.jpg,,,,,,,,,,,,,,,,,,,,,,,,,,,,,,,,,
644033d42bdd7e1f439f4d64,2023-06-16_18h56.10.420,phx_ver10,2022.2.5,Win32,60.06006006,,,,,space,0.1509,0,25,25,8,1,9,training,zh2x,a,zh2x_a,zh2x_5_axa.wav,,axa.jpg,,,,,,,,,,,,,,,,,,,,,,,,,,,,,,,,,
644033d42bdd7e1f439f4d64,2023-06-16_18h56.10.420,phx_ver10,2022.2.5,Win32,60.06006006,,,,,space,0.2004,0,26,26,17,1,18,training,zh2x,e,zh2x_e,zh2x_2_ezhe.wav,,ezhe.jpg,,,,,,,,,,,,,,,,,,,,,,,,,,,,,,,,,
644033d42bdd7e1f439f4d64,2023-06-16_18h56.10.420,phx_ver10,2022.2.5,Win32,60.06006006,,,,,space,0.2364,0,27,27,36,1,37,training,zh2x,i,zh2x_i,zh2x_2_izhi.wav,,izhi.jpg,,,,,,,,,,,,,,,,,,,,,,,,,,,,,,,,,
644033d42bdd7e1f439f4d64,2023-06-16_18h56.10.420,phx_ver10,2022.2.5,Win32,60.06006006,,,,,space,0.1344,0,28,28,27,1,28,training,zh2x,e,zh2x_e,zh2x_7_exe.wav,,exe.jpg,,,,,,,,,,,,,,,,,,,,,,,,,,,,,,,,,
644033d42bdd7e1f439f4d64,2023-06-16_18h56.10.420,phx_ver10,2022.2.5,Win32,60.06006006,,,,,space,0.0013,0,29,29,18,1,19,training,zh2x,e,zh2x_e,zh2x_2_ezhe.wav,,ezhe.jpg,,,,,,,,,,,,,,,,,,,,,,,,,,,,,,,,,
644033d42bdd7e1f439f4d64,2023-06-16_18h56.10.420,phx_ver10,2022.2.5,Win32,60.06006006,,,,,,,,,,,,,attn_test,,,,zh2x_8_exe.wav,zh2x_8_axa.wav,axa.jpg,RIGHT,,j,0.8238,space,1.2,0,0,0,0,1,,,,,,,,,,,,,,,,,,,,,,
644033d42bdd7e1f439f4d64,2023-06-16_18h56.10.420,phx_ver10,2022.2.5,Win32,60.06006006,,,,,space,0.4223,0,30,30,35,1,36,training,zh2x,i,zh2x_i,zh2x_2_izhi.wav,,izhi.jpg,,,,,,,,,,,,,,,,,,,,,,,,,,,,,,,,,
644033d42bdd7e1f439f4d64,2023-06-16_18h56.10.420,phx_ver10,2022.2.5,Win32,60.06006006,,,,,space,0.1341,0,31,31,11,1,12,training,zh2x,a,zh2x_a,zh2x_7_axa.wav,,axa.jpg,,,,,,,,,,,,,,,,,,,,,,,,,,,,,,,,,
644033d42bdd7e1f439f4d64,2023-06-16_18h56.10.420,phx_ver10,2022.2.5,Win32,60.06006006,,,,,space,0.3822,0,32,32,5,1,6,training,zh2x,a,zh2x_a,zh2x_3_azha.wav,,azha.jpg,,,,,,,,,,,,,,,,,,,,,,,,,,,,,,,,,
644033d42bdd7e1f439f4d64,2023-06-16_18h56.10.420,phx_ver10,2022.2.5,Win32,60.06006006,,,,,space,0.1696,0,33,33,38,1,39,training,zh2x,i,zh2x_i,zh2x_3_izhi.wav,,izhi.jpg,,,,,,,,,,,,,,,,,,,,,,,,,,,,,,,,,
644033d42bdd7e1f439f4d64,2023-06-16_18h56.10.420,phx_ver10,2022.2.5,Win32,60.06006006,,,,,space,0.2558,0,34,34,33,1,34,training,zh2x,i,zh2x_i,zh2x_2_izhi.wav,,izhi.jpg,,,,,,,,,,,,,,,,,,,,,,,,,,,,,,,,,
644033d42bdd7e1f439f4d64,2023-06-16_18h56.10.420,phx_ver10,2022.2.5,Win32,60.06006006,,,,,space,0.3838,0,35,35,41,1,42,training,zh2x,i,zh2x_i,zh2x_6_ixi.wav,,ixi.jpg,,,,,,,,,,,,,,,,,,,,,,,,,,,,,,,,,
644033d42bdd7e1f439f4d64,2023-06-16_18h56.10.420,phx_ver10,2022.2.5,Win32,60.06006006,,,,,,,,,,,,,attn_test,,,,zh2x_1_izhi.wav,zh2x_1_azha.wav,azha.jpg,RIGHT,,j,0.8505,space,1.1742,0,0,0,0,1,,,,,,,,,,,,,,,,,,,,,,
644033d42bdd7e1f439f4d64,2023-06-16_18h56.10.420,phx_ver10,2022.2.5,Win32,60.06006006,,,,,space,0.3096,0,36,36,32,1,33,training,zh2x,i,zh2x_i,zh2x_1_izhi.wav,,izhi.jpg,,,,,,,,,,,,,,,,,,,,,,,,,,,,,,,,,
644033d42bdd7e1f439f4d64,2023-06-16_18h56.10.420,phx_ver10,2022.2.5,Win32,60.06006006,,,,,space,0.9024,0,37,37,44,1,45,training,zh2x,i,zh2x_i,zh2x_7_ixi.wav,,ixi.jpg,,,,,,,,,,,,,,,,,,,,,,,,,,,,,,,,,
644033d42bdd7e1f439f4d64,2023-06-16_18h56.10.420,phx_ver10,2022.2.5,Win32,60.06006006,,,,,space,0.3244,0,38,38,2,1,3,training,zh2x,a,zh2x_a,zh2x_2_azha.wav,,azha.jpg,,,,,,,,,,,,,,,,,,,,,,,,,,,,,,,,,
644033d42bdd7e1f439f4d64,2023-06-16_18h56.10.420,phx_ver10,2022.2.5,Win32,60.06006006,,,,,space,0.1516,0,39,39,28,1,29,training,zh2x,e,zh2x_e,zh2x_7_exe.wav,,exe.jpg,,,,,,,,,,,,,,,,,,,,,,,,,,,,,,,,,
644033d42bdd7e1f439f4d64,2023-06-16_18h56.10.420,phx_ver10,2022.2.5,Win32,60.06006006,,,,,space,0.3501,0,40,40,34,1,35,training,zh2x,i,zh2x_i,zh2x_2_izhi.wav,,izhi.jpg,,,,,,,,,,,,,,,,,,,,,,,,,,,,,,,,,
644033d42bdd7e1f439f4d64,2023-06-16_18h56.10.420,phx_ver10,2022.2.5,Win32,60.06006006,,,,,space,0.1343,0,41,41,0,1,1,training,zh2x,a,zh2x_a,zh2x_1_azha.wav,,azha.jpg,,,,,,,,,,,,,,,,,,,,,,,,,,,,,,,,,
644033d42bdd7e1f439f4d64,2023-06-16_18h56.10.420,phx_ver10,2022.2.5,Win32,60.06006006,,,,,,,,,,,,,attn_test,,,,zh2x_1_azha.wav,zh2x_8_ixi.wav,ixi.jpg,RIGHT,,j,0.251,space,0.6169,0,0,0,0,1,,,,,,,,,,,,,,,,,,,,,,
644033d42bdd7e1f439f4d64,2023-06-16_18h56.10.420,phx_ver10,2022.2.5,Win32,60.06006006,,,,,space,0.5989,0,42,42,12,1,13,training,zh2x,a,zh2x_a,zh2x_7_axa.wav,,axa.jpg,,,,,,,,,,,,,,,,,,,,,,,,,,,,,,,,,
644033d42bdd7e1f439f4d64,2023-06-16_18h56.10.420,phx_ver10,2022.2.5,Win32,60.06006006,,,,,space,0.3238,0,43,43,31,1,32,training,zh2x,e,zh2x_e,zh2x_8_exe.wav,,exe.jpg,,,,,,,,,,,,,,,,,,,,,,,,,,,,,,,,,
644033d42bdd7e1f439f4d64,2023-06-16_18h56.10.420,phx_ver10,2022.2.5,Win32,60.06006006,,,,,space,0.1079,0,44,44,4,1,5,training,zh2x,a,zh2x_a,zh2x_2_azha.wav,,azha.jpg,,,,,,,,,,,,,,,,,,,,,,,,,,,,,,,,,
644033d42bdd7e1f439f4d64,2023-06-16_18h56.10.420,phx_ver10,2022.2.5,Win32,60.06006006,,,,,space,0.1344,0,45,45,16,1,17,training,zh2x,e,zh2x_e,zh2x_1_ezhe.wav,,ezhe.jpg,,,,,,,,,,,,,,,,,,,,,,,,,,,,,,,,,
644033d42bdd7e1f439f4d64,2023-06-16_18h56.10.420,phx_ver10,2022.2.5,Win32,60.06006006,,,,,space,0.1507,0,46,46,21,1,22,training,zh2x,e,zh2x_e,zh2x_3_ezhe.wav,,ezhe.jpg,,,,,,,,,,,,,,,,,,,,,,,,,,,,,,,,,
644033d42bdd7e1f439f4d64,2023-06-16_18h56.10.420,phx_ver10,2022.2.5,Win32,60.06006006,,,,,space,0.1675,0,47,47,23,1,24,training,zh2x,e,zh2x_e,zh2x_4_ezhe.wav,,ezhe.jpg,,,,,,,,,,,,,,,,,,,,,,,,,,,,,,,,,
644033d42bdd7e1f439f4d64,2023-06-16_18h56.10.420,phx_ver10,2022.2.5,Win32,60.06006006,,,,,,,,,,,,,attn_test,,,,zh2x_8_exe.wav,zh2x_8_ixi.wav,exe.jpg,LEFT,,j,0.0504,space,0.6166,,,,,,,,,,,,,,,,,,,,,,,,,,,
644033d42bdd7e1f439f4d64,2023-06-16_18h56.10.420,phx_ver10,2022.2.5,Win32,60.06006006,,,,,,,,,,,,,,,,,,,,,,,,,,,,,,,space,4.1941,,,,,,,,,,,,,,,,,,,,
644033d42bdd7e1f439f4d64,2023-06-16_18h56.10.420,phx_ver10,2022.2.5,Win32,60.06006006,,,,,,,,,,,,,,,,,,,,,,,,,,,,,,,,,space,4.3134,,,,,,,,,,,,,,,,,,
644033d42bdd7e1f439f4d64,2023-06-16_18h56.10.420,phx_ver10,2022.2.5,Win32,60.06006006,,,,,,,,,,,,4,testing_pre,,,,eihei.wav,eihei.wav,,TRUE,,,,,,,,,,,,,,,f,2.3443,space,2.6985,0,0,0,3,1,,,,,,,,,
644033d42bdd7e1f439f4d64,2023-06-16_18h56.10.420,phx_ver10,2022.2.5,Win32,60.06006006,,,,,,,,,,,,1,testing_pre,,,,ifi.wav,ifi.wav,,TRUE,,,,,,,,,,,,,,,f,0.2672,space,0.6092,0,1,1,0,1,,,,,,,,,
644033d42bdd7e1f439f4d64,2023-06-16_18h56.10.420,phx_ver10,2022.2.5,Win32,60.06006006,,,,,,,,,,,,5,testing_pre,,,,ihi.wav,ifi.wav,,FALSE,,,,,,,,,,,,,,,f,0.3242,space,0.6405,0,2,2,4,1,,,,,,,,,
644033d42bdd7e1f439f4d64,2023-06-16_18h56.10.420,phx_ver10,2022.2.5,Win32,60.06006006,,,,,,,,,,,,2,testing_pre,,,,auhau.wav,aufau.wav,,FALSE,,,,,,,,,,,,,,,f,0.1448,space,0.4552,0,3,3,1,1,,,,,,,,,
644033d42bdd7e1f439f4d64,2023-06-16_18h56.10.420,phx_ver10,2022.2.5,Win32,60.06006006,,,,,,,,,,,,3,testing_pre,,,,afa.wav,aha.wav,,FALSE,,,,,,,,,,,,,,,f,1.0501,space,1.2668,0,4,4,2,1,,,,,,,,,
644033d42bdd7e1f439f4d64,2023-06-16_18h56.10.420,phx_ver10,2022.2.5,Win32,60.06006006,,,,,,,,,,,,,,,,,,,,,,,,,,,,,,,,,,,,,,,,,,,,space,0.4894,,,,,,,
644033d42bdd7e1f439f4d64,2023-06-16_18h56.10.420,phx_ver10,2022.2.5,Win32,60.06006006,,,,,,,,,,,,35,testing_3,zh2sh,au,zh2sh_au,zh2sh_1_auzhau.wav,zh2sh_8_aushau.wav,,FALSE,FALSE,,,,,,,,,,,,,,f,0.2008,space,0.5433,,,,,,,,0,0,0,34,1,,
644033d42bdd7e1f439f4d64,2023-06-16_18h56.10.420,phx_ver10,2022.2.5,Win32,60.06006006,,,,,,,,,,,,113,testing_3,sh2x,ei,sh2x_ei,sh2x_1_eishei.wav,sh2x_1_eishei.wav,,TRUE,FALSE,,,,,,,,,,,,,,f,0.151,space,0.4731,,,,,,,,0,1,1,112,1,,
644033d42bdd7e1f439f4d64,2023-06-16_18h56.10.420,phx_ver10,2022.2.5,Win32,60.06006006,,,,,,,,,,,,12,testing_1,zh2x,i,zh2x_i,zh2x_8_ixi.wav,zh2x_1_izhi.wav,,FALSE,TRUE,,,,,,,,,,,,,,f,0.7599,space,1.0188,,,,,,,,0,2,2,11,1,,
644033d42bdd7e1f439f4d64,2023-06-16_18h56.10.420,phx_ver10,2022.2.5,Win32,60.06006006,,,,,,,,,,,,41,testing_3,zh2sh,ei,zh2sh_ei,zh2sh_1_eizhei.wav,zh2sh_1_eizhei.wav,,TRUE,FALSE,,,,,,,,,,,,,,f,0.0758,space,0.3593,,,,,,,,0,3,3,40,1,,
644033d42bdd7e1f439f4d64,2023-06-16_18h56.10.420,phx_ver10,2022.2.5,Win32,60.06006006,,,,,,,,,,,,19,testing_2,zh2x,au,zh2x_au,zh2x_1_auzhau.wav,zh2x_8_auxau.wav,,FALSE,FALSE,,,,,,,,,,,,,,j,1.891,space,2.2329,,,,,,,,0,4,4,18,1,,
644033d42bdd7e1f439f4d64,2023-06-16_18h56.10.420,phx_ver10,2022.2.5,Win32,60.06006006,,,,,,,,,,,,111,testing_3,sh2x,e,sh2x_e,sh2x_1_eshe.wav,sh2x_8_exe.wav,,FALSE,FALSE,,,,,,,,,,,,,,f,0.1583,space,0.4838,,,,,,,,0,5,5,110,1,,
644033d42bdd7e1f439f4d64,2023-06-16_18h56.10.420,phx_ver10,2022.2.5,Win32,60.06006006,,,,,,,,,,,,58,testing_3,zh2j,au,zh2j_au,zh2j_8_aujau.wav,zh2j_8_aujau.wav,,TRUE,FALSE,,,,,,,,,,,,,,f,0.0336,space,0.3678,,,,,,,,0,6,6,57,1,,
644033d42bdd7e1f439f4d64,2023-06-16_18h56.10.420,phx_ver10,2022.2.5,Win32,60.06006006,,,,,,,,,,,,33,testing_3,zh2sh,au,zh2sh_au,zh2sh_1_auzhau.wav,zh2sh_1_auzhau.wav,,TRUE,FALSE,,,,,,,,,,,,,,f,0.0559,space,0.3511,,,,,,,,0,7,7,32,1,,
644033d42bdd7e1f439f4d64,2023-06-16_18h56.10.420,phx_ver10,2022.2.5,Win32,60.06006006,,,,,,,,,,,,126,testing_3,sh2j,ai,sh2j_ai,sh2j_8_aijai.wav,sh2j_8_aijai.wav,,TRUE,FALSE,,,,,,,,,,,,,,f,0.0508,space,0.3883,,,,,,,,0,8,8,125,1,,
644033d42bdd7e1f439f4d64,2023-06-16_18h56.10.420,phx_ver10,2022.2.5,Win32,60.06006006,,,,,,,,,,,,48,testing_3,zh2sh,i,zh2sh_i,zh2sh_8_ishi.wav,zh2sh_1_izhi.wav,,FALSE,FALSE,,,,,,,,,,,,,,f,1.3166,space,1.552,,,,,,,,0,9,9,47,1,,
644033d42bdd7e1f439f4d64,2023-06-16_18h56.10.420,phx_ver10,2022.2.5,Win32,60.06006006,,,,,,,,,,,,104,testing_3,sh2x,ai,sh2x_ai,sh2x_8_aixai.wav,sh2x_1_aishai.wav,,FALSE,FALSE,,,,,,,,,,,,,,f,0.1172,space,0.4167,,,,,,,,0,10,10,103,1,,
644033d42bdd7e1f439f4d64,2023-06-16_18h56.10.420,phx_ver10,2022.2.5,Win32,60.06006006,,,,,,,,,,,,135,testing_3,sh2j,e,sh2j_e,sh2j_1_eshe.wav,sh2j_8_eje.wav,,FALSE,FALSE,,,,,,,,,,,,,,f,0.555,space,0.8327,,,,,,,,0,11,11,134,1,,
644033d42bdd7e1f439f4d64,2023-06-16_18h56.10.420,phx_ver10,2022.2.5,Win32,60.06006006,,,,,,,,,,,,15,testing_2,zh2x,ai,zh2x_ai,zh2x_1_aizhai.wav,zh2x_8_aixai.wav,,FALSE,FALSE,,,,,,,,,,,,,,j,0.5502,space,0.9564,,,,,,,,0,12,12,14,1,,
644033d42bdd7e1f439f4d64,2023-06-16_18h56.10.420,phx_ver10,2022.2.5,Win32,60.06006006,,,,,,,,,,,,144,testing_3,sh2j,i,sh2j_i,sh2j_8_iji.wav,sh2j_1_ishi.wav,,FALSE,FALSE,,,,,,,,,,,,,,f,0.2046,space,0.6055,,,,,,,,0,13,13,143,1,,
644033d42bdd7e1f439f4d64,2023-06-16_18h56.10.420,phx_ver10,2022.2.5,Win32,60.06006006,,,,,,,,,,,,78,testing_3,j2x,ai,j2x_ai,j2x_8_aixai.wav,j2x_8_aixai.wav,,TRUE,FALSE,,,,,,,,,,,,,,f,0.3051,space,0.6398,,,,,,,,0,14,14,77,1,,
644033d42bdd7e1f439f4d64,2023-06-16_18h56.10.420,phx_ver10,2022.2.5,Win32,60.06006006,,,,,,,,,,,,97,testing_3,sh2x,a,sh2x_a,sh2x_1_asha.wav,sh2x_1_asha.wav,,TRUE,FALSE,,,,,,,,,,,,,,f,0.0434,space,0.409,,,,,,,,0,15,15,96,1,,
644033d42bdd7e1f439f4d64,2023-06-16_18h56.10.420,phx_ver10,2022.2.5,Win32,60.06006006,,,,,,,,,,,,107,testing_3,sh2x,au,sh2x_au,sh2x_1_aushau.wav,sh2x_8_auxau.wav,,FALSE,FALSE,,,,,,,,,,,,,,j,0.0681,space,0.4671,,,,,,,,0,16,16,106,1,,
644033d42bdd7e1f439f4d64,2023-06-16_18h56.10.420,phx_ver10,2022.2.5,Win32,60.06006006,,,,,,,,,,,,92,testing_3,j2x,ei,j2x_ei,j2x_8_eixei.wav,j2x_1_eijei.wav,,FALSE,FALSE,,,,,,,,,,,,,,j,0.5033,space,0.7422,,,,,,,,0,17,17,91,1,,
644033d42bdd7e1f439f4d64,2023-06-16_18h56.10.420,phx_ver10,2022.2.5,Win32,60.06006006,,,,,,,,,,,,86,testing_3,j2x,e,j2x_e,j2x_8_exe.wav,j2x_8_exe.wav,,TRUE,FALSE,,,,,,,,,,,,,,f,0.4421,space,0.6512,,,,,,,,0,18,18,85,1,,
644033d42bdd7e1f439f4d64,2023-06-16_18h56.10.420,phx_ver10,2022.2.5,Win32,60.06006006,,,,,,,,,,,,79,testing_3,j2x,ai,j2x_ai,j2x_1_aijai.wav,j2x_8_aixai.wav,,FALSE,FALSE,,,,,,,,,,,,,,j,0.2903,space,0.6173,,,,,,,,0,19,19,78,1,,
644033d42bdd7e1f439f4d64,2023-06-16_18h56.10.420,phx_ver10,2022.2.5,Win32,60.06006006,,,,,,,,,,,,91,testing_3,j2x,ei,j2x_ei,j2x_1_eijei.wav,j2x_8_eixei.wav,,FALSE,FALSE,,,,,,,,,,,,,,f,0.301,space,0.5535,,,,,,,,0,20,20,90,1,,
644033d42bdd7e1f439f4d64,2023-06-16_18h56.10.420,phx_ver10,2022.2.5,Win32,60.06006006,,,,,,,,,,,,141,testing_3,sh2j,i,sh2j_i,sh2j_1_ishi.wav,sh2j_1_ishi.wav,,TRUE,FALSE,,,,,,,,,,,,,,f,0.0086,space,0.367,,,,,,,,0,21,21,140,1,,
644033d42bdd7e1f439f4d64,2023-06-16_18h56.10.420,phx_ver10,2022.2.5,Win32,60.06006006,,,,,,,,,,,,38,testing_3,zh2sh,e,zh2sh_e,zh2sh_8_eshe.wav,zh2sh_8_eshe.wav,,TRUE,FALSE,,,,,,,,,,,,,,f,0.1841,space,0.4205,,,,,,,,0,22,22,37,1,,
644033d42bdd7e1f439f4d64,2023-06-16_18h56.10.420,phx_ver10,2022.2.5,Win32,60.06006006,,,,,,,,,,,,122,testing_3,sh2j,a,sh2j_a,sh2j_8_aja.wav,sh2j_8_aja.wav,,TRUE,FALSE,,,,,,,,,,,,,,f,0.2058,space,0.4337,,,,,,,,0,23,23,121,1,,
644033d42bdd7e1f439f4d64,2023-06-16_18h56.10.420,phx_ver10,2022.2.5,Win32,60.06006006,,,,,,,,,,,,21,testing_2,zh2x,ei,zh2x_ei,zh2x_1_eizhei.wav,zh2x_1_eizhei.wav,,TRUE,FALSE,,,,,,,,,,,,,,j,0.6869,space,0.9757,,,,,,,,0,24,24,20,1,,
644033d42bdd7e1f439f4d64,2023-06-16_18h56.10.420,phx_ver10,2022.2.5,Win32,60.06006006,,,,,,,,,,,,121,testing_3,sh2j,a,sh2j_a,sh2j_1_asha.wav,sh2j_1_asha.wav,,TRUE,FALSE,,,,,,,,,,,,,,f,0.2026,space,0.5068,,,,,,,,0,25,25,120,1,,
644033d42bdd7e1f439f4d64,2023-06-16_18h56.10.420,phx_ver10,2022.2.5,Win32,60.06006006,,,,,,,,,,,,17,testing_2,zh2x,au,zh2x_au,zh2x_1_auzhau.wav,zh2x_1_auzhau.wav,,TRUE,FALSE,,,,,,,,,,,,,,j,0.4502,space,0.7378,,,,,,,,0,26,26,16,1,,
644033d42bdd7e1f439f4d64,2023-06-16_18h56.10.420,phx_ver10,2022.2.5,Win32,60.06006006,,,,,,,,,,,,93,testing_3,j2x,i,j2x_i,j2x_1_iji.wav,j2x_1_iji.wav,,TRUE,FALSE,,,,,,,,,,,,,,f,0.0893,space,0.4061,,,,,,,,0,27,27,92,1,,
644033d42bdd7e1f439f4d64,2023-06-16_18h56.10.420,phx_ver10,2022.2.5,Win32,60.06006006,,,,,,,,,,,,80,testing_3,j2x,ai,j2x_ai,j2x_8_aixai.wav,j2x_1_aijai.wav,,FALSE,FALSE,,,,,,,,,,,,,,j,0.3151,space,0.6042,,,,,,,,0,28,28,79,1,,
644033d42bdd7e1f439f4d64,2023-06-16_18h56.10.420,phx_ver10,2022.2.5,Win32,60.06006006,,,,,,,,,,,,66,testing_3,zh2j,ei,zh2j_ei,zh2j_8_eijei.wav,zh2j_8_eijei.wav,,TRUE,FALSE,,,,,,,,,,,,,,j,1.2507,space,1.5227,,,,,,,,0,29,29,65,1,,
644033d42bdd7e1f439f4d64,2023-06-16_18h56.10.420,phx_ver10,2022.2.5,Win32,60.06006006,,,,,,,,,,,,106,testing_3,sh2x,au,sh2x_au,sh2x_8_auxau.wav,sh2x_8_auxau.wav,,TRUE,FALSE,,,,,,,,,,,,,,f,0.2721,space,0.4912,,,,,,,,0,30,30,105,1,,
644033d42bdd7e1f439f4d64,2023-06-16_18h56.10.420,phx_ver10,2022.2.5,Win32,60.06006006,,,,,,,,,,,,103,testing_3,sh2x,ai,sh2x_ai,sh2x_1_aishai.wav,sh2x_8_aixai.wav,,FALSE,FALSE,,,,,,,,,,,,,,f,0.3544,space,0.6332,,,,,,,,0,31,31,102,1,,
644033d42bdd7e1f439f4d64,2023-06-16_18h56.10.420,phx_ver10,2022.2.5,Win32,60.06006006,,,,,,,,,,,,56,testing_3,zh2j,ai,zh2j_ai,zh2j_8_aijai.wav,zh2j_1_aizhai.wav,,FALSE,FALSE,,,,,,,,,,,,,,j,0.9253,space,1.1861,,,,,,,,0,32,32,55,1,,
644033d42bdd7e1f439f4d64,2023-06-16_18h56.10.420,phx_ver10,2022.2.5,Win32,60.06006006,,,,,,,,,,,,64,testing_3,zh2j,e,zh2j_e,zh2j_8_eje.wav,zh2j_1_ezhe.wav,,FALSE,FALSE,,,,,,,,,,,,,,f,0.3736,space,0.622,,,,,,,,0,33,33,63,1,,
644033d42bdd7e1f439f4d64,2023-06-16_18h56.10.420,phx_ver10,2022.2.5,Win32,60.06006006,,,,,,,,,,,,7,testing_1,zh2x,e,zh2x_e,zh2x_1_ezhe.wav,zh2x_8_exe.wav,,FALSE,TRUE,,,,,,,,,,,,,,f,0.1551,space,0.5336,,,,,,,,0,34,34,6,1,,
644033d42bdd7e1f439f4d64,2023-06-16_18h56.10.420,phx_ver10,2022.2.5,Win32,60.06006006,,,,,,,,,,,,89,testing_3,j2x,ei,j2x_ei,j2x_1_eijei.wav,j2x_1_eijei.wav,,TRUE,FALSE,,,,,,,,,,,,,,f,0.1007,space,0.4063,,,,,,,,0,35,35,88,1,,
644033d42bdd7e1f439f4d64,2023-06-16_18h56.10.420,phx_ver10,2022.2.5,Win32,60.06006006,,,,,,,,,,,,18,testing_2,zh2x,au,zh2x_au,zh2x_8_auxau.wav,zh2x_8_auxau.wav,,TRUE,FALSE,,,,,,,,,,,,,,f,0.8578,space,1.0673,,,,,,,,0,36,36,17,1,,
644033d42bdd7e1f439f4d64,2023-06-16_18h56.10.420,phx_ver10,2022.2.5,Win32,60.06006006,,,,,,,,,,,,2,testing_1,zh2x,a,zh2x_a,zh2x_8_axa.wav,zh2x_8_axa_copy.wav,,TRUE,TRUE,,,,,,,,,,,,,,f,0.3994,space,0.5989,,,,,,,,0,37,37,1,1,,
644033d42bdd7e1f439f4d64,2023-06-16_18h56.10.420,phx_ver10,2022.2.5,Win32,60.06006006,,,,,,,,,,,,47,testing_3,zh2sh,i,zh2sh_i,zh2sh_1_izhi.wav,zh2sh_8_ishi.wav,,FALSE,FALSE,,,,,,,,,,,,,,j,0.153,space,0.4904,,,,,,,,0,38,38,46,1,,
644033d42bdd7e1f439f4d64,2023-06-16_18h56.10.420,phx_ver10,2022.2.5,Win32,60.06006006,,,,,,,,,,,,85,testing_3,j2x,e,j2x_e,j2x_1_eje.wav,j2x_1_eje.wav,,TRUE,FALSE,,,,,,,,,,,,,,f,0.1671,space,0.5177,,,,,,,,0,39,39,84,1,,
644033d42bdd7e1f439f4d64,2023-06-16_18h56.10.420,phx_ver10,2022.2.5,Win32,60.06006006,,,,,,,,,,,,134,testing_3,sh2j,e,sh2j_e,sh2j_8_eje.wav,sh2j_8_eje.wav,,TRUE,FALSE,,,,,,,,,,,,,,f,0.0709,space,0.305,,,,,,,,0,40,40,133,1,,
644033d42bdd7e1f439f4d64,2023-06-16_18h56.10.420,phx_ver10,2022.2.5,Win32,60.06006006,,,,,,,,,,,,53,testing_3,zh2j,ai,zh2j_ai,zh2j_1_aizhai.wav,zh2j_1_aizhai.wav,,TRUE,FALSE,,,,,,,,,,,,,,j,0.2507,space,0.5264,,,,,,,,0,41,41,52,1,,
644033d42bdd7e1f439f4d64,2023-06-16_18h56.10.420,phx_ver10,2022.2.5,Win32,60.06006006,,,,,,,,,,,,118,testing_3,sh2x,i,sh2x_i,sh2x_8_ixi.wav,sh2x_8_ixi.wav,,TRUE,FALSE,,,,,,,,,,,,,,j,0.0729,space,0.432,,,,,,,,0,42,42,117,1,,
644033d42bdd7e1f439f4d64,2023-06-16_18h56.10.420,phx_ver10,2022.2.5,Win32,60.06006006,,,,,,,,,,,,142,testing_3,sh2j,i,sh2j_i,sh2j_8_iji.wav,sh2j_8_iji.wav,,TRUE,FALSE,,,,,,,,,,,,,,j,0.4672,space,0.7919,,,,,,,,0,43,43,141,1,,
644033d42bdd7e1f439f4d64,2023-06-16_18h56.10.420,phx_ver10,2022.2.5,Win32,60.06006006,,,,,,,,,,,,137,testing_3,sh2j,ei,sh2j_ei,sh2j_1_eishei.wav,sh2j_1_eishei.wav,,TRUE,FALSE,,,,,,,,,,,,,,f,0.0844,space,0.3677,,,,,,,,0,44,44,136,1,,
644033d42bdd7e1f439f4d64,2023-06-16_18h56.10.420,phx_ver10,2022.2.5,Win32,60.06006006,,,,,,,,,,,,95,testing_3,j2x,i,j2x_i,j2x_1_iji.wav,j2x_8_ixi.wav,,FALSE,FALSE,,,,,,,,,,,,,,f,0.417,space,0.6334,,,,,,,,0,45,45,94,1,,
644033d42bdd7e1f439f4d64,2023-06-16_18h56.10.420,phx_ver10,2022.2.5,Win32,60.06006006,,,,,,,,,,,,112,testing_3,sh2x,e,sh2x_e,sh2x_8_exe.wav,sh2x_1_eshe.wav,,FALSE,FALSE,,,,,,,,,,,,,,j,0.2674,space,0.5675,,,,,,,,0,46,46,111,1,,
644033d42bdd7e1f439f4d64,2023-06-16_18h56.10.420,phx_ver10,2022.2.5,Win32,60.06006006,,,,,,,,,,,,77,testing_3,j2x,ai,j2x_ai,j2x_1_aijai.wav,j2x_1_aijai.wav,,TRUE,FALSE,,,,,,,,,,,,,,f,0.0913,space,0.4398,,,,,,,,0,47,47,76,1,,
644033d42bdd7e1f439f4d64,2023-06-16_18h56.10.420,phx_ver10,2022.2.5,Win32,60.06006006,,,,,,,,,,,,68,testing_3,zh2j,ei,zh2j_ei,zh2j_8_eijei.wav,zh2j_1_eizhei.wav,,FALSE,FALSE,,,,,,,,,,,,,,j,0.2353,space,0.4838,,,,,,,,0,48,48,67,1,,
644033d42bdd7e1f439f4d64,2023-06-16_18h56.10.420,phx_ver10,2022.2.5,Win32,60.06006006,,,,,,,,,,,,60,testing_3,zh2j,au,zh2j_au,zh2j_8_aujau.wav,zh2j_1_auzhau.wav,,FALSE,FALSE,,,,,,,,,,,,,,f,0.3395,space,0.5884,,,,,,,,0,49,49,59,1,,
644033d42bdd7e1f439f4d64,2023-06-16_18h56.10.420,phx_ver10,2022.2.5,Win32,60.06006006,,,,,,,,,,,,45,testing_3,zh2sh,i,zh2sh_i,zh2sh_1_izhi.wav,zh2sh_1_izhi.wav,,TRUE,FALSE,,,,,,,,,,,,,,j,0.1678,space,0.4876,,,,,,,,0,50,50,44,1,,
644033d42bdd7e1f439f4d64,2023-06-16_18h56.10.420,phx_ver10,2022.2.5,Win32,60.06006006,,,,,,,,,,,,59,testing_3,zh2j,au,zh2j_au,zh2j_1_auzhau.wav,zh2j_8_aujau.wav,,FALSE,FALSE,,,,,,,,,,,,,,j,0.3847,space,0.6509,,,,,,,,0,51,51,58,1,,
644033d42bdd7e1f439f4d64,2023-06-16_18h56.10.420,phx_ver10,2022.2.5,Win32,60.06006006,,,,,,,,,,,,139,testing_3,sh2j,ei,sh2j_ei,sh2j_1_eishei.wav,sh2j_8_eijei.wav,,FALSE,FALSE,,,,,,,,,,,,,,f,1.0361,space,1.2679,,,,,,,,0,52,52,138,1,,
644033d42bdd7e1f439f4d64,2023-06-16_18h56.10.420,phx_ver10,2022.2.5,Win32,60.06006006,,,,,,,,,,,,65,testing_3,zh2j,ei,zh2j_ei,zh2j_1_eizhei.wav,zh2j_1_eizhei.wav,,TRUE,FALSE,,,,,,,,,,,,,,j,0.0246,space,0.3737,,,,,,,,0,53,53,64,1,,
644033d42bdd7e1f439f4d64,2023-06-16_18h56.10.420,phx_ver10,2022.2.5,Win32,60.06006006,,,,,,,,,,,,20,testing_2,zh2x,au,zh2x_au,zh2x_8_auxau.wav,zh2x_1_auzhau.wav,,FALSE,FALSE,,,,,,,,,,,,,,j,0.5934,space,0.626,,,,,,,,0,54,54,19,1,,
644033d42bdd7e1f439f4d64,2023-06-16_18h56.10.420,phx_ver10,2022.2.5,Win32,60.06006006,,,,,,,,,,,,100,testing_3,sh2x,a,sh2x_a,sh2x_8_axa.wav,sh2x_1_asha.wav,,FALSE,FALSE,,,,,,,,,,,,,,f,0.6167,space,0.8168,,,,,,,,0,55,55,99,1,,
644033d42bdd7e1f439f4d64,2023-06-16_18h56.10.420,phx_ver10,2022.2.5,Win32,60.06006006,,,,,,,,,,,,71,testing_3,zh2j,i,zh2j_i,zh2j_1_izhi.wav,zh2j_8_iji.wav,,FALSE,FALSE,,,,,,,,,,,,,,j,0.2009,space,0.7675,,,,,,,,0,56,56,70,1,,
644033d42bdd7e1f439f4d64,2023-06-16_18h56.10.420,phx_ver10,2022.2.5,Win32,60.06006006,,,,,,,,,,,,46,testing_3,zh2sh,i,zh2sh_i,zh2sh_8_ishi.wav,zh2sh_8_ishi.wav,,TRUE,FALSE,,,,,,,,,,,,,,j,0.334,space,0.7004,,,,,,,,0,57,57,45,1,,
644033d42bdd7e1f439f4d64,2023-06-16_18h56.10.420,phx_ver10,2022.2.5,Win32,60.06006006,,,,,,,,,,,,70,testing_3,zh2j,i,zh2j_i,zh2j_8_iji.wav,zh2j_8_iji.wav,,TRUE,FALSE,,,,,,,,,,,,,,j,0.0846,space,0.5839,,,,,,,,0,58,58,69,1,,
644033d42bdd7e1f439f4d64,2023-06-16_18h56.10.420,phx_ver10,2022.2.5,Win32,60.06006006,,,,,,,,,,,,128,testing_3,sh2j,ai,sh2j_ai,sh2j_8_aijai.wav,sh2j_1_aishai.wav,,FALSE,FALSE,,,,,,,,,,,,,,j,0.8334,space,0.8671,,,,,,,,0,59,59,127,1,,
644033d42bdd7e1f439f4d64,2023-06-16_18h56.10.420,phx_ver10,2022.2.5,Win32,60.06006006,,,,,,,,,,,,51,testing_3,zh2j,a,zh2j_a,zh2j_1_azha.wav,zh2j_8_aja.wav,,FALSE,FALSE,,,,,,,,,,,,,,f,0.0677,space,0.4347,,,,,,,,0,60,60,50,1,,
644033d42bdd7e1f439f4d64,2023-06-16_18h56.10.420,phx_ver10,2022.2.5,Win32,60.06006006,,,,,,,,,,,,101,testing_3,sh2x,ai,sh2x_ai,sh2x_1_aishai.wav,sh2x_1_aishai.wav,,TRUE,FALSE,,,,,,,,,,,,,,j,0.1345,space,0.5173,,,,,,,,0,61,61,100,1,,
644033d42bdd7e1f439f4d64,2023-06-16_18h56.10.420,phx_ver10,2022.2.5,Win32,60.06006006,,,,,,,,,,,,55,testing_3,zh2j,ai,zh2j_ai,zh2j_1_aizhai.wav,zh2j_8_aijai.wav,,FALSE,FALSE,,,,,,,,,,,,,,j,0.0544,space,0.4011,,,,,,,,0,62,62,54,1,,
644033d42bdd7e1f439f4d64,2023-06-16_18h56.10.420,phx_ver10,2022.2.5,Win32,60.06006006,,,,,,,,,,,,32,testing_3,zh2sh,ai,zh2sh_ai,zh2sh_8_aishai.wav,zh2sh_1_aizhai.wav,,FALSE,FALSE,,,,,,,,,,,,,,j,0.1439,space,0.4073,,,,,,,,0,63,63,31,1,,
644033d42bdd7e1f439f4d64,2023-06-16_18h56.10.420,phx_ver10,2022.2.5,Win32,60.06006006,,,,,,,,,,,,42,testing_3,zh2sh,ei,zh2sh_ei,zh2sh_8_eishei.wav,zh2sh_8_eishei.wav,,TRUE,FALSE,,,,,,,,,,,,,,j,0.2535,space,0.5358,,,,,,,,0,64,64,41,1,,
644033d42bdd7e1f439f4d64,2023-06-16_18h56.10.420,phx_ver10,2022.2.5,Win32,60.06006006,,,,,,,,,,,,14,testing_2,zh2x,ai,zh2x_ai,zh2x_8_aixai.wav,zh2x_8_aixai.wav,,TRUE,FALSE,,,,,,,,,,,,,,j,0.0714,space,0.3553,,,,,,,,0,65,65,13,1,,
644033d42bdd7e1f439f4d64,2023-06-16_18h56.10.420,phx_ver10,2022.2.5,Win32,60.06006006,,,,,,,,,,,,102,testing_3,sh2x,ai,sh2x_ai,sh2x_8_aixai.wav,sh2x_8_aixai.wav,,TRUE,FALSE,,,,,,,,,,,,,,j,0.128,space,0.4347,,,,,,,,0,66,66,101,1,,
644033d42bdd7e1f439f4d64,2023-06-16_18h56.10.420,phx_ver10,2022.2.5,Win32,60.06006006,,,,,,,,,,,,30,testing_3,zh2sh,ai,zh2sh_ai,zh2sh_8_aishai.wav,zh2sh_8_aishai.wav,,TRUE,FALSE,,,,,,,,,,,,,,j,0.3028,space,0.6338,,,,,,,,0,67,67,29,1,,
644033d42bdd7e1f439f4d64,2023-06-16_18h56.10.420,phx_ver10,2022.2.5,Win32,60.06006006,,,,,,,,,,,,36,testing_3,zh2sh,au,zh2sh_au,zh2sh_8_aushau.wav,zh2sh_1_auzhau.wav,,FALSE,FALSE,,,,,,,,,,,,,,j,0.2579,space,0.5895,,,,,,,,0,68,68,35,1,,
644033d42bdd7e1f439f4d64,2023-06-16_18h56.10.420,phx_ver10,2022.2.5,Win32,60.06006006,,,,,,,,,,,,8,testing_1,zh2x,e,zh2x_e,zh2x_8_exe.wav,zh2x_1_ezhe.wav,,FALSE,TRUE,,,,,,,,,,,,,,j,0.7046,space,1.383,,,,,,,,0,69,69,7,1,,
644033d42bdd7e1f439f4d64,2023-06-16_18h56.10.420,phx_ver10,2022.2.5,Win32,60.06006006,,,,,,,,,,,,23,testing_2,zh2x,ei,zh2x_ei,zh2x_1_eizhei.wav,zh2x_8_eixei.wav,,FALSE,FALSE,,,,,,,,,,,,,,j,0.3174,space,0.728,,,,,,,,0,70,70,22,1,,
644033d42bdd7e1f439f4d64,2023-06-16_18h56.10.420,phx_ver10,2022.2.5,Win32,60.06006006,,,,,,,,,,,,94,testing_3,j2x,i,j2x_i,j2x_8_ixi.wav,j2x_8_ixi.wav,,TRUE,FALSE,,,,,,,,,,,,,,j,0.4171,space,0.7394,,,,,,,,0,71,71,93,1,,
644033d42bdd7e1f439f4d64,2023-06-16_18h56.10.420,phx_ver10,2022.2.5,Win32,60.06006006,,,,,,,,,,,,34,testing_3,zh2sh,au,zh2sh_au,zh2sh_8_aushau.wav,zh2sh_8_aushau.wav,,TRUE,FALSE,,,,,,,,,,,,,,j,0.1676,space,0.5065,,,,,,,,0,72,72,33,1,,
644033d42bdd7e1f439f4d64,2023-06-16_18h56.10.420,phx_ver10,2022.2.5,Win32,60.06006006,,,,,,,,,,,,105,testing_3,sh2x,au,sh2x_au,sh2x_1_aushau.wav,sh2x_1_aushau.wav,,TRUE,FALSE,,,,,,,,,,,,,,j,0.0843,space,0.3506,,,,,,,,0,73,73,104,1,,
644033d42bdd7e1f439f4d64,2023-06-16_18h56.10.420,phx_ver10,2022.2.5,Win32,60.06006006,,,,,,,,,,,,24,testing_2,zh2x,ei,zh2x_ei,zh2x_8_eixei.wav,zh2x_1_eizhei.wav,,FALSE,FALSE,,,,,,,,,,,,,,j,0.0844,space,0.3911,,,,,,,,0,74,74,23,1,,
644033d42bdd7e1f439f4d64,2023-06-16_18h56.10.420,phx_ver10,2022.2.5,Win32,60.06006006,,,,,,,,,,,,75,testing_3,j2x,a,j2x_a,j2x_1_aja.wav,j2x_8_axa.wav,,FALSE,FALSE,,,,,,,,,,,,,,f,0.0725,space,0.3671,,,,,,,,0,75,75,74,1,,
644033d42bdd7e1f439f4d64,2023-06-16_18h56.10.420,phx_ver10,2022.2.5,Win32,60.06006006,,,,,,,,,,,,26,testing_3,zh2sh,a,zh2sh_a,zh2sh_8_asha.wav,zh2sh_8_asha.wav,,TRUE,FALSE,,,,,,,,,,,,,,f,0.0454,space,0.3785,,,,,,,,0,76,76,25,1,,
644033d42bdd7e1f439f4d64,2023-06-16_18h56.10.420,phx_ver10,2022.2.5,Win32,60.06006006,,,,,,,,,,,,10,testing_1,zh2x,i,zh2x_i,zh2x_8_ixi.wav,zh2x_8_ixi_copy.wav,,TRUE,TRUE,,,,,,,,,,,,,,f,0.1534,space,0.6509,,,,,,,,0,77,77,9,1,,
644033d42bdd7e1f439f4d64,2023-06-16_18h56.10.420,phx_ver10,2022.2.5,Win32,60.06006006,,,,,,,,,,,,52,testing_3,zh2j,a,zh2j_a,zh2j_8_aja.wav,zh2j_1_azha.wav,,FALSE,FALSE,,,,,,,,,,,,,,f,0.1413,space,0.4,,,,,,,,0,78,78,51,1,,
644033d42bdd7e1f439f4d64,2023-06-16_18h56.10.420,phx_ver10,2022.2.5,Win32,60.06006006,,,,,,,,,,,,57,testing_3,zh2j,au,zh2j_au,zh2j_1_auzhau.wav,zh2j_1_auzhau.wav,,TRUE,FALSE,,,,,,,,,,,,,,j,0.1839,space,0.4228,,,,,,,,0,79,79,56,1,,
644033d42bdd7e1f439f4d64,2023-06-16_18h56.10.420,phx_ver10,2022.2.5,Win32,60.06006006,,,,,,,,,,,,28,testing_3,zh2sh,a,zh2sh_a,zh2sh_8_asha.wav,zh2sh_1_azha.wav,,FALSE,FALSE,,,,,,,,,,,,,,f,0.2218,space,0.4985,,,,,,,,0,80,80,27,1,,
644033d42bdd7e1f439f4d64,2023-06-16_18h56.10.420,phx_ver10,2022.2.5,Win32,60.06006006,,,,,,,,,,,,69,testing_3,zh2j,i,zh2j_i,zh2j_1_izhi.wav,zh2j_1_izhi.wav,,TRUE,FALSE,,,,,,,,,,,,,,j,0.0767,space,0.367,,,,,,,,0,81,81,68,1,,
644033d42bdd7e1f439f4d64,2023-06-16_18h56.10.420,phx_ver10,2022.2.5,Win32,60.06006006,,,,,,,,,,,,129,testing_3,sh2j,au,sh2j_au,sh2j_1_aushau.wav,sh2j_1_aushau.wav,,TRUE,FALSE,,,,,,,,,,,,,,f,0.1512,space,0.4339,,,,,,,,0,82,82,128,1,,
644033d42bdd7e1f439f4d64,2023-06-16_18h56.10.420,phx_ver10,2022.2.5,Win32,60.06006006,,,,,,,,,,,,61,testing_3,zh2j,e,zh2j_e,zh2j_1_ezhe.wav,zh2j_1_ezhe.wav,,TRUE,FALSE,,,,,,,,,,,,,,j,0.0342,space,0.2843,,,,,,,,0,83,83,60,1,,
644033d42bdd7e1f439f4d64,2023-06-16_18h56.10.420,phx_ver10,2022.2.5,Win32,60.06006006,,,,,,,,,,,,63,testing_3,zh2j,e,zh2j_e,zh2j_1_ezhe.wav,zh2j_8_eje.wav,,FALSE,FALSE,,,,,,,,,,,,,,j,0.051,space,0.2669,,,,,,,,0,84,84,62,1,,
644033d42bdd7e1f439f4d64,2023-06-16_18h56.10.420,phx_ver10,2022.2.5,Win32,60.06006006,,,,,,,,,,,,5,testing_1,zh2x,e,zh2x_e,zh2x_1_ezhe.wav,zh2x_1_ezhe_copy.wav,,TRUE,TRUE,,,,,,,,,,,,,,j,0.1504,space,0.4338,,,,,,,,0,85,85,4,1,,
644033d42bdd7e1f439f4d64,2023-06-16_18h56.10.420,phx_ver10,2022.2.5,Win32,60.06006006,,,,,,,,,,,,67,testing_3,zh2j,ei,zh2j_ei,zh2j_1_eizhei.wav,zh2j_8_eijei.wav,,FALSE,FALSE,,,,,,,,,,,,,,j,0.1342,space,0.401,,,,,,,,0,86,86,66,1,,
644033d42bdd7e1f439f4d64,2023-06-16_18h56.10.420,phx_ver10,2022.2.5,Win32,60.06006006,,,,,,,,,,,,108,testing_3,sh2x,au,sh2x_au,sh2x_8_auxau.wav,sh2x_1_aushau.wav,,FALSE,FALSE,,,,,,,,,,,,,,f,1.0668,space,1.3994,,,,,,,,0,87,87,107,1,,
644033d42bdd7e1f439f4d64,2023-06-16_18h56.10.420,phx_ver10,2022.2.5,Win32,60.06006006,,,,,,,,,,,,109,testing_3,sh2x,e,sh2x_e,sh2x_1_eshe.wav,sh2x_1_eshe.wav,,TRUE,FALSE,,,,,,,,,,,,,,j,0.1523,space,0.4169,,,,,,,,0,88,88,108,1,,
644033d42bdd7e1f439f4d64,2023-06-16_18h56.10.420,phx_ver10,2022.2.5,Win32,60.06006006,,,,,,,,,,,,130,testing_3,sh2j,au,sh2j_au,sh2j_8_aujau.wav,sh2j_8_aujau.wav,,TRUE,FALSE,,,,,,,,,,,,,,j,0.2344,space,0.4675,,,,,,,,0,89,89,129,1,,
644033d42bdd7e1f439f4d64,2023-06-16_18h56.10.420,phx_ver10,2022.2.5,Win32,60.06006006,,,,,,,,,,,,117,testing_3,sh2x,i,sh2x_i,sh2x_1_ishi.wav,sh2x_1_ishi.wav,,TRUE,FALSE,,,,,,,,,,,,,,j,0.5348,space,0.7177,,,,,,,,0,90,90,116,1,,
644033d42bdd7e1f439f4d64,2023-06-16_18h56.10.420,phx_ver10,2022.2.5,Win32,60.06006006,,,,,,,,,,,,76,testing_3,j2x,a,j2x_a,j2x_8_axa.wav,j2x_1_aja.wav,,FALSE,FALSE,,,,,,,,,,,,,,f,0.1341,space,0.4176,,,,,,,,0,91,91,75,1,,
644033d42bdd7e1f439f4d64,2023-06-16_18h56.10.420,phx_ver10,2022.2.5,Win32,60.06006006,,,,,,,,,,,,96,testing_3,j2x,i,j2x_i,j2x_8_ixi.wav,j2x_1_iji.wav,,FALSE,FALSE,,,,,,,,,,,,,,f,0.3509,space,0.5676,,,,,,,,0,92,92,95,1,,
644033d42bdd7e1f439f4d64,2023-06-16_18h56.10.420,phx_ver10,2022.2.5,Win32,60.06006006,,,,,,,,,,,,11,testing_1,zh2x,i,zh2x_i,zh2x_1_izhi.wav,zh2x_8_ixi.wav,,FALSE,TRUE,,,,,,,,,,,,,,f,0.4508,space,0.6504,,,,,,,,0,93,93,10,1,,
644033d42bdd7e1f439f4d64,2023-06-16_18h56.10.420,phx_ver10,2022.2.5,Win32,60.06006006,,,,,,,,,,,,49,testing_3,zh2j,a,zh2j_a,zh2j_1_azha.wav,zh2j_1_azha.wav,,TRUE,FALSE,,,,,,,,,,,,,,f,0.0508,space,0.4503,,,,,,,,0,94,94,48,1,,
644033d42bdd7e1f439f4d64,2023-06-16_18h56.10.420,phx_ver10,2022.2.5,Win32,60.06006006,,,,,,,,,,,,127,testing_3,sh2j,ai,sh2j_ai,sh2j_1_aishai.wav,sh2j_8_aijai.wav,,FALSE,FALSE,,,,,,,,,,,,,,j,0.5504,space,0.8667,,,,,,,,0,95,95,126,1,,
644033d42bdd7e1f439f4d64,2023-06-16_18h56.10.420,phx_ver10,2022.2.5,Win32,60.06006006,,,,,,,,,,,,27,testing_3,zh2sh,a,zh2sh_a,zh2sh_1_azha.wav,zh2sh_8_asha.wav,,FALSE,FALSE,,,,,,,,,,,,,,f,0.084,space,0.3007,,,,,,,,0,96,96,26,1,,
644033d42bdd7e1f439f4d64,2023-06-16_18h56.10.420,phx_ver10,2022.2.5,Win32,60.06006006,,,,,,,,,,,,16,testing_2,zh2x,ai,zh2x_ai,zh2x_8_aixai.wav,zh2x_1_aizhai.wav,,FALSE,FALSE,,,,,,,,,,,,,,j,0.0841,space,0.334,,,,,,,,0,97,97,15,1,,
644033d42bdd7e1f439f4d64,2023-06-16_18h56.10.420,phx_ver10,2022.2.5,Win32,60.06006006,,,,,,,,,,,,6,testing_1,zh2x,e,zh2x_e,zh2x_8_exe.wav,zh2x_8_exe_copy.wav,,TRUE,TRUE,,,,,,,,,,,,,,j,0.1173,space,0.352,,,,,,,,0,98,98,5,1,,
644033d42bdd7e1f439f4d64,2023-06-16_18h56.10.420,phx_ver10,2022.2.5,Win32,60.06006006,,,,,,,,,,,,136,testing_3,sh2j,e,sh2j_e,sh2j_8_eje.wav,sh2j_1_eshe.wav,,FALSE,FALSE,,,,,,,,,,,,,,j,0.1844,space,0.434,,,,,,,,0,99,99,135,1,,
644033d42bdd7e1f439f4d64,2023-06-16_18h56.10.420,phx_ver10,2022.2.5,Win32,60.06006006,,,,,,,,,,,,40,testing_3,zh2sh,e,zh2sh_e,zh2sh_8_eshe.wav,zh2sh_1_ezhe.wav,,FALSE,FALSE,,,,,,,,,,,,,,j,0.4846,space,0.8171,,,,,,,,0,100,100,39,1,,
644033d42bdd7e1f439f4d64,2023-06-16_18h56.10.420,phx_ver10,2022.2.5,Win32,60.06006006,,,,,,,,,,,,90,testing_3,j2x,ei,j2x_ei,j2x_8_eixei.wav,j2x_8_eixei.wav,,TRUE,FALSE,,,,,,,,,,,,,,j,1.0175,space,1.2,,,,,,,,0,101,101,89,1,,
644033d42bdd7e1f439f4d64,2023-06-16_18h56.10.420,phx_ver10,2022.2.5,Win32,60.06006006,,,,,,,,,,,,120,testing_3,sh2x,i,sh2x_i,sh2x_8_ixi.wav,sh2x_1_ishi.wav,,FALSE,FALSE,,,,,,,,,,,,,,j,0.0176,space,0.4341,,,,,,,,0,102,102,119,1,,
644033d42bdd7e1f439f4d64,2023-06-16_18h56.10.420,phx_ver10,2022.2.5,Win32,60.06006006,,,,,,,,,,,,99,testing_3,sh2x,a,sh2x_a,sh2x_1_asha.wav,sh2x_8_axa.wav,,FALSE,FALSE,,,,,,,,,,,,,,f,0.2679,space,0.4172,,,,,,,,0,103,103,98,1,,
644033d42bdd7e1f439f4d64,2023-06-16_18h56.10.420,phx_ver10,2022.2.5,Win32,60.06006006,,,,,,,,,,,,115,testing_3,sh2x,ei,sh2x_ei,sh2x_1_eishei.wav,sh2x_8_eixei.wav,,FALSE,FALSE,,,,,,,,,,,,,,j,0.0011,space,0.3841,,,,,,,,0,104,104,114,1,,
644033d42bdd7e1f439f4d64,2023-06-16_18h56.10.420,phx_ver10,2022.2.5,Win32,60.06006006,,,,,,,,,,,,50,testing_3,zh2j,a,zh2j_a,zh2j_8_aja.wav,zh2j_8_aja.wav,,TRUE,FALSE,,,,,,,,,,,,,,f,0.2173,space,0.3007,,,,,,,,0,105,105,49,1,,
644033d42bdd7e1f439f4d64,2023-06-16_18h56.10.420,phx_ver10,2022.2.5,Win32,60.06006006,,,,,,,,,,,,133,testing_3,sh2j,e,sh2j_e,sh2j_1_eshe.wav,sh2j_1_eshe.wav,,TRUE,FALSE,,,,,,,,,,,,,,j,0.1175,space,0.4343,,,,,,,,0,106,106,132,1,,
644033d42bdd7e1f439f4d64,2023-06-16_18h56.10.420,phx_ver10,2022.2.5,Win32,60.06006006,,,,,,,,,,,,88,testing_3,j2x,e,j2x_e,j2x_8_exe.wav,j2x_1_eje.wav,,FALSE,FALSE,,,,,,,,,,,,,,j,0.1009,space,0.4175,,,,,,,,0,107,107,87,1,,
644033d42bdd7e1f439f4d64,2023-06-16_18h56.10.420,phx_ver10,2022.2.5,Win32,60.06006006,,,,,,,,,,,,119,testing_3,sh2x,i,sh2x_i,sh2x_1_ishi.wav,sh2x_8_ixi.wav,,FALSE,FALSE,,,,,,,,,,,,,,f,0.2172,space,0.5004,,,,,,,,0,108,108,118,1,,
644033d42bdd7e1f439f4d64,2023-06-16_18h56.10.420,phx_ver10,2022.2.5,Win32,60.06006006,,,,,,,,,,,,84,testing_3,j2x,au,j2x_au,j2x_8_auxau.wav,j2x_1_aujau.wav,,FALSE,FALSE,,,,,,,,,,,,,,j,0.3505,space,0.5503,,,,,,,,0,109,109,83,1,,
644033d42bdd7e1f439f4d64,2023-06-16_18h56.10.420,phx_ver10,2022.2.5,Win32,60.06006006,,,,,,,,,,,,143,testing_3,sh2j,i,sh2j_i,sh2j_1_ishi.wav,sh2j_8_iji.wav,,FALSE,FALSE,,,,,,,,,,,,,,f,0.068,space,0.384,,,,,,,,0,110,110,142,1,,
644033d42bdd7e1f439f4d64,2023-06-16_18h56.10.420,phx_ver10,2022.2.5,Win32,60.06006006,,,,,,,,,,,,72,testing_3,zh2j,i,zh2j_i,zh2j_8_iji.wav,zh2j_1_izhi.wav,,FALSE,FALSE,,,,,,,,,,,,,,f,0.1007,space,0.3838,,,,,,,,0,111,111,71,1,,
644033d42bdd7e1f439f4d64,2023-06-16_18h56.10.420,phx_ver10,2022.2.5,Win32,60.06006006,,,,,,,,,,,,131,testing_3,sh2j,au,sh2j_au,sh2j_1_aushau.wav,sh2j_8_aujau.wav,,FALSE,FALSE,,,,,,,,,,,,,,j,0.2514,space,0.4509,,,,,,,,0,112,112,130,1,,
644033d42bdd7e1f439f4d64,2023-06-16_18h56.10.420,phx_ver10,2022.2.5,Win32,60.06006006,,,,,,,,,,,,62,testing_3,zh2j,e,zh2j_e,zh2j_8_eje.wav,zh2j_8_eje.wav,,TRUE,FALSE,,,,,,,,,,,,,,j,0.0347,space,0.3344,,,,,,,,0,113,113,61,1,,
644033d42bdd7e1f439f4d64,2023-06-16_18h56.10.420,phx_ver10,2022.2.5,Win32,60.06006006,,,,,,,,,,,,29,testing_3,zh2sh,ai,zh2sh_ai,zh2sh_1_aizhai.wav,zh2sh_1_aizhai.wav,,TRUE,FALSE,,,,,,,,,,,,,,j,0.1676,space,0.401,,,,,,,,0,114,114,28,1,,
644033d42bdd7e1f439f4d64,2023-06-16_18h56.10.420,phx_ver10,2022.2.5,Win32,60.06006006,,,,,,,,,,,,44,testing_3,zh2sh,ei,zh2sh_ei,zh2sh_8_eishei.wav,zh2sh_1_eizhei.wav,,FALSE,FALSE,,,,,,,,,,,,,,j,0.2829,space,0.5325,,,,,,,,0,115,115,43,1,,
644033d42bdd7e1f439f4d64,2023-06-16_18h56.10.420,phx_ver10,2022.2.5,Win32,60.06006006,,,,,,,,,,,,54,testing_3,zh2j,ai,zh2j_ai,zh2j_8_aijai.wav,zh2j_8_aijai.wav,,TRUE,FALSE,,,,,,,,,,,,,,j,0.1353,space,0.6353,,,,,,,,0,116,116,53,1,,
644033d42bdd7e1f439f4d64,2023-06-16_18h56.10.420,phx_ver10,2022.2.5,Win32,60.06006006,,,,,,,,,,,,43,testing_3,zh2sh,ei,zh2sh_ei,zh2sh_1_eizhei.wav,zh2sh_8_eishei.wav,,FALSE,FALSE,,,,,,,,,,,,,,j,0.0852,space,0.4186,,,,,,,,0,117,117,42,1,,
644033d42bdd7e1f439f4d64,2023-06-16_18h56.10.420,phx_ver10,2022.2.5,Win32,60.06006006,,,,,,,,,,,,132,testing_3,sh2j,au,sh2j_au,sh2j_8_aujau.wav,sh2j_1_aushau.wav,,FALSE,FALSE,,,,,,,,,,,,,,j,0.7503,space,0.951,,,,,,,,0,118,118,131,1,,
644033d42bdd7e1f439f4d64,2023-06-16_18h56.10.420,phx_ver10,2022.2.5,Win32,60.06006006,,,,,,,,,,,,25,testing_3,zh2sh,a,zh2sh_a,zh2sh_1_azha.wav,zh2sh_1_azha.wav,,TRUE,FALSE,,,,,,,,,,,,,,f,0.1256,space,0.3589,,,,,,,,0,119,119,24,1,,
644033d42bdd7e1f439f4d64,2023-06-16_18h56.10.420,phx_ver10,2022.2.5,Win32,60.06006006,,,,,,,,,,,,116,testing_3,sh2x,ei,sh2x_ei,sh2x_8_eixei.wav,sh2x_1_eishei.wav,,FALSE,FALSE,,,,,,,,,,,,,,j,0.3454,space,0.5729,,,,,,,,0,120,120,115,1,,
644033d42bdd7e1f439f4d64,2023-06-16_18h56.10.420,phx_ver10,2022.2.5,Win32,60.06006006,,,,,,,,,,,,124,testing_3,sh2j,a,sh2j_a,sh2j_8_aja.wav,sh2j_1_asha.wav,,FALSE,FALSE,,,,,,,,,,,,,,f,0.2728,space,0.5241,,,,,,,,0,121,121,123,1,,
644033d42bdd7e1f439f4d64,2023-06-16_18h56.10.420,phx_ver10,2022.2.5,Win32,60.06006006,,,,,,,,,,,,31,testing_3,zh2sh,ai,zh2sh_ai,zh2sh_1_aizhai.wav,zh2sh_8_aishai.wav,,FALSE,FALSE,,,,,,,,,,,,,,j,0.0339,space,0.3789,,,,,,,,0,122,122,30,1,,
644033d42bdd7e1f439f4d64,2023-06-16_18h56.10.420,phx_ver10,2022.2.5,Win32,60.06006006,,,,,,,,,,,,114,testing_3,sh2x,ei,sh2x_ei,sh2x_8_eixei.wav,sh2x_8_eixei.wav,,TRUE,FALSE,,,,,,,,,,,,,,j,0.3259,space,0.5418,,,,,,,,0,123,123,113,1,,
644033d42bdd7e1f439f4d64,2023-06-16_18h56.10.420,phx_ver10,2022.2.5,Win32,60.06006006,,,,,,,,,,,,74,testing_3,j2x,a,j2x_a,j2x_8_axa.wav,j2x_8_axa.wav,,TRUE,FALSE,,,,,,,,,,,,,,j,0.1749,space,0.4666,,,,,,,,0,124,124,73,1,,
644033d42bdd7e1f439f4d64,2023-06-16_18h56.10.420,phx_ver10,2022.2.5,Win32,60.06006006,,,,,,,,,,,,4,testing_1,zh2x,a,zh2x_a,zh2x_8_axa.wav,zh2x_1_azha.wav,,FALSE,TRUE,,,,,,,,,,,,,,f,0.0708,space,0.2904,,,,,,,,0,125,125,3,1,,
644033d42bdd7e1f439f4d64,2023-06-16_18h56.10.420,phx_ver10,2022.2.5,Win32,60.06006006,,,,,,,,,,,,3,testing_1,zh2x,a,zh2x_a,zh2x_1_azha.wav,zh2x_8_axa.wav,,FALSE,TRUE,,,,,,,,,,,,,,j,0.2196,space,0.5263,,,,,,,,0,126,126,2,1,,
644033d42bdd7e1f439f4d64,2023-06-16_18h56.10.420,phx_ver10,2022.2.5,Win32,60.06006006,,,,,,,,,,,,83,testing_3,j2x,au,j2x_au,j2x_1_aujau.wav,j2x_8_auxau.wav,,FALSE,FALSE,,,,,,,,,,,,,,j,0.2179,space,0.4527,,,,,,,,0,127,127,82,1,,
644033d42bdd7e1f439f4d64,2023-06-16_18h56.10.420,phx_ver10,2022.2.5,Win32,60.06006006,,,,,,,,,,,,82,testing_3,j2x,au,j2x_au,j2x_8_auxau.wav,j2x_8_auxau.wav,,TRUE,FALSE,,,,,,,,,,,,,,j,0.2165,space,0.5239,,,,,,,,0,128,128,81,1,,
644033d42bdd7e1f439f4d64,2023-06-16_18h56.10.420,phx_ver10,2022.2.5,Win32,60.06006006,,,,,,,,,,,,22,testing_2,zh2x,ei,zh2x_ei,zh2x_8_eixei.wav,zh2x_8_eixei.wav,,TRUE,FALSE,,,,,,,,,,,,,,j,0.0604,space,0.3899,,,,,,,,0,129,129,21,1,,
644033d42bdd7e1f439f4d64,2023-06-16_18h56.10.420,phx_ver10,2022.2.5,Win32,60.06006006,,,,,,,,,,,,37,testing_3,zh2sh,e,zh2sh_e,zh2sh_1_ezhe.wav,zh2sh_1_ezhe.wav,,TRUE,FALSE,,,,,,,,,,,,,,j,0.0383,space,0.3394,,,,,,,,0,130,130,36,1,,
644033d42bdd7e1f439f4d64,2023-06-16_18h56.10.420,phx_ver10,2022.2.5,Win32,60.06006006,,,,,,,,,,,,123,testing_3,sh2j,a,sh2j_a,sh2j_1_asha.wav,sh2j_8_aja.wav,,FALSE,FALSE,,,,,,,,,,,,,,f,0.0384,space,0.4177,,,,,,,,0,131,131,122,1,,
644033d42bdd7e1f439f4d64,2023-06-16_18h56.10.420,phx_ver10,2022.2.5,Win32,60.06006006,,,,,,,,,,,,13,testing_2,zh2x,ai,zh2x_ai,zh2x_1_aizhai.wav,zh2x_1_aizhai.wav,,TRUE,FALSE,,,,,,,,,,,,,,j,0.1007,space,0.4671,,,,,,,,0,132,132,12,1,,
644033d42bdd7e1f439f4d64,2023-06-16_18h56.10.420,phx_ver10,2022.2.5,Win32,60.06006006,,,,,,,,,,,,39,testing_3,zh2sh,e,zh2sh_e,zh2sh_1_ezhe.wav,zh2sh_8_eshe.wav,,FALSE,FALSE,,,,,,,,,,,,,,f,0.3202,space,0.5605,,,,,,,,0,133,133,38,1,,
644033d42bdd7e1f439f4d64,2023-06-16_18h56.10.420,phx_ver10,2022.2.5,Win32,60.06006006,,,,,,,,,,,,140,testing_3,sh2j,ei,sh2j_ei,sh2j_8_eijei.wav,sh2j_1_eishei.wav,,FALSE,FALSE,,,,,,,,,,,,,,j,0.1511,space,0.4079,,,,,,,,0,134,134,139,1,,
644033d42bdd7e1f439f4d64,2023-06-16_18h56.10.420,phx_ver10,2022.2.5,Win32,60.06006006,,,,,,,,,,,,87,testing_3,j2x,e,j2x_e,j2x_1_eje.wav,j2x_8_exe.wav,,FALSE,FALSE,,,,,,,,,,,,,,j,0.1338,space,0.3776,,,,,,,,0,135,135,86,1,,
644033d42bdd7e1f439f4d64,2023-06-16_18h56.10.420,phx_ver10,2022.2.5,Win32,60.06006006,,,,,,,,,,,,81,testing_3,j2x,au,j2x_au,j2x_1_aujau.wav,j2x_1_aujau.wav,,TRUE,FALSE,,,,,,,,,,,,,,j,0.351,space,0.6505,,,,,,,,0,136,136,80,1,,
644033d42bdd7e1f439f4d64,2023-06-16_18h56.10.420,phx_ver10,2022.2.5,Win32,60.06006006,,,,,,,,,,,,1,testing_1,zh2x,a,zh2x_a,zh2x_1_azha.wav,zh2x_1_azha_copy.wav,,TRUE,TRUE,,,,,,,,,,,,,,f,0.0744,space,0.3508,,,,,,,,0,137,137,0,1,,
644033d42bdd7e1f439f4d64,2023-06-16_18h56.10.420,phx_ver10,2022.2.5,Win32,60.06006006,,,,,,,,,,,,138,testing_3,sh2j,ei,sh2j_ei,sh2j_8_eijei.wav,sh2j_8_eijei.wav,,TRUE,FALSE,,,,,,,,,,,,,,j,0.1849,space,0.4719,,,,,,,,0,138,138,137,1,,
644033d42bdd7e1f439f4d64,2023-06-16_18h56.10.420,phx_ver10,2022.2.5,Win32,60.06006006,,,,,,,,,,,,125,testing_3,sh2j,ai,sh2j_ai,sh2j_1_aishai.wav,sh2j_1_aishai.wav,,TRUE,FALSE,,,,,,,,,,,,,,j,0.0761,space,0.3676,,,,,,,,0,139,139,124,1,,
644033d42bdd7e1f439f4d64,2023-06-16_18h56.10.420,phx_ver10,2022.2.5,Win32,60.06006006,,,,,,,,,,,,9,testing_1,zh2x,i,zh2x_i,zh2x_1_izhi.wav,zh2x_1_izhi_copy.wav,,TRUE,TRUE,,,,,,,,,,,,,,j,0.3339,space,0.6192,,,,,,,,0,140,140,8,1,,
644033d42bdd7e1f439f4d64,2023-06-16_18h56.10.420,phx_ver10,2022.2.5,Win32,60.06006006,,,,,,,,,,,,98,testing_3,sh2x,a,sh2x_a,sh2x_8_axa.wav,sh2x_8_axa.wav,,TRUE,FALSE,,,,,,,,,,,,,,j,0.2591,space,0.5007,,,,,,,,0,141,141,97,1,,
644033d42bdd7e1f439f4d64,2023-06-16_18h56.10.420,phx_ver10,2022.2.5,Win32,60.06006006,,,,,,,,,,,,110,testing_3,sh2x,e,sh2x_e,sh2x_8_exe.wav,sh2x_8_exe.wav,,TRUE,FALSE,,,,,,,,,,,,,,j,0.6002,space,0.8236,,,,,,,,0,142,142,109,1,,
644033d42bdd7e1f439f4d64,2023-06-16_18h56.10.420,phx_ver10,2022.2.5,Win32,60.06006006,,,,,,,,,,,,73,testing_3,j2x,a,j2x_a,j2x_1_aja.wav,j2x_1_aja.wav,,TRUE,FALSE,,,,,,,,,,,,,,j,0.8672,space,1.1271,,,,,,,,0,143,143,72,1,,
644033d42bdd7e1f439f4d64,2023-06-16_18h56.10.420,phx_ver10,2022.2.5,Win32,60.06006006,,,,,,,,,,,,,,,,,,,,,,,,,,,,,,,,,,,,,,,,,,,,,,,,,,,space,1.6056
