participant,date,expName,psychopyVersion,OS,frameRate,space_1.keys,space_1.rt,space_2.keys,space_2.rt,space_train.keys,space_train.rt,training.thisRepN,training.thisTrialN,training.thisN,training.thisIndex,training.ran,token_id,task,continuum,vowel,series,sound_1,sound_2,img,same,trained,FJ_attn.keys,FJ_attn.rt,space_attn.keys,space_attn.rt,if_attn_test.thisRepN,if_attn_test.thisTrialN,if_attn_test.thisN,if_attn_test.thisIndex,if_attn_test.ran,space_trans_1.keys,space_trans_1.rt,space_trans_11.keys,space_trans_11.rt,FJ_test.keys,FJ_test.rt,space_test.keys,space_test.rt,testing_pre.thisRepN,testing_pre.thisTrialN,testing_pre.thisN,testing_pre.thisIndex,testing_pre.ran,space_trans_2.keys,space_trans_2.rt,testing_all.thisRepN,testing_all.thisTrialN,testing_all.thisN,testing_all.thisIndex,testing_all.ran,space_ending.keys,space_ending.rt
64747a8c5534905fb3f93e39,2023-06-16_19h28.45.507,phx_ver10,2022.2.5,Win32,60.27364234,,,,,,,,,,,,,,,,,,,,,,,,,,,,,,,,,,,,,,,,,,,,,,,,,,,,
64747a8c5534905fb3f93e39,2023-06-16_19h28.45.507,phx_ver10,2022.2.5,Win32,60.27364234,space,1.821,,,,,,,,,,,,,,,,,,,,,,,,,,,,,,,,,,,,,,,,,,,,,,,,,,
64747a8c5534905fb3f93e39,2023-06-16_19h28.45.507,phx_ver10,2022.2.5,Win32,60.27364234,,,space,1.9142,,,,,,,,,,,,,,,,,,,,,,,,,,,,,,,,,,,,,,,,,,,,,,,,
64747a8c5534905fb3f93e39,2023-06-16_19h28.45.507,phx_ver10,2022.2.5,Win32,60.27364234,,,,,space,4.0781,0,0,0,39,1,40,training,zh2x,i,zh2x_i,zh2x_4_izhi.wav,,izhi.jpg,,,,,,,,,,,,,,,,,,,,,,,,,,,,,,,,,
64747a8c5534905fb3f93e39,2023-06-16_19h28.45.507,phx_ver10,2022.2.5,Win32,60.27364234,,,,,space,0.9121,0,1,1,23,1,24,training,zh2x,e,zh2x_e,zh2x_4_ezhe.wav,,ezhe.jpg,,,,,,,,,,,,,,,,,,,,,,,,,,,,,,,,,
64747a8c5534905fb3f93e39,2023-06-16_19h28.45.507,phx_ver10,2022.2.5,Win32,60.27364234,,,,,space,1.8826,0,2,2,30,1,31,training,zh2x,e,zh2x_e,zh2x_7_exe.wav,,exe.jpg,,,,,,,,,,,,,,,,,,,,,,,,,,,,,,,,,
64747a8c5534905fb3f93e39,2023-06-16_19h28.45.507,phx_ver10,2022.2.5,Win32,60.27364234,,,,,space,1.417,0,3,3,17,1,18,training,zh2x,e,zh2x_e,zh2x_2_ezhe.wav,,ezhe.jpg,,,,,,,,,,,,,,,,,,,,,,,,,,,,,,,,,
64747a8c5534905fb3f93e39,2023-06-16_19h28.45.507,phx_ver10,2022.2.5,Win32,60.27364234,,,,,space,0.4295,0,4,4,12,1,13,training,zh2x,a,zh2x_a,zh2x_7_axa.wav,,axa.jpg,,,,,,,,,,,,,,,,,,,,,,,,,,,,,,,,,
64747a8c5534905fb3f93e39,2023-06-16_19h28.45.507,phx_ver10,2022.2.5,Win32,60.27364234,,,,,space,0.8555,0,5,5,11,1,12,training,zh2x,a,zh2x_a,zh2x_7_axa.wav,,axa.jpg,,,,,,,,,,,,,,,,,,,,,,,,,,,,,,,,,
64747a8c5534905fb3f93e39,2023-06-16_19h28.45.507,phx_ver10,2022.2.5,Win32,60.27364234,,,,,,,,,,,,,attn_test,,,,zh2x_1_azha.wav,zh2x_1_ezhe.wav,ezhe.jpg,RIGHT,,j,0.7486,space,2.3921,0,0,0,0,1,,,,,,,,,,,,,,,,,,,,,,
64747a8c5534905fb3f93e39,2023-06-16_19h28.45.507,phx_ver10,2022.2.5,Win32,60.27364234,,,,,space,0.4508,0,6,6,28,1,29,training,zh2x,e,zh2x_e,zh2x_7_exe.wav,,exe.jpg,,,,,,,,,,,,,,,,,,,,,,,,,,,,,,,,,
64747a8c5534905fb3f93e39,2023-06-16_19h28.45.507,phx_ver10,2022.2.5,Win32,60.27364234,,,,,space,0.201,0,7,7,40,1,41,training,zh2x,i,zh2x_i,zh2x_5_ixi.wav,,ixi.jpg,,,,,,,,,,,,,,,,,,,,,,,,,,,,,,,,,
64747a8c5534905fb3f93e39,2023-06-16_19h28.45.507,phx_ver10,2022.2.5,Win32,60.27364234,,,,,space,0.1527,0,8,8,9,1,10,training,zh2x,a,zh2x_a,zh2x_6_axa.wav,,axa.jpg,,,,,,,,,,,,,,,,,,,,,,,,,,,,,,,,,
64747a8c5534905fb3f93e39,2023-06-16_19h28.45.507,phx_ver10,2022.2.5,Win32,60.27364234,,,,,space,0.1773,0,9,9,0,1,1,training,zh2x,a,zh2x_a,zh2x_1_azha.wav,,azha.jpg,,,,,,,,,,,,,,,,,,,,,,,,,,,,,,,,,
64747a8c5534905fb3f93e39,2023-06-16_19h28.45.507,phx_ver10,2022.2.5,Win32,60.27364234,,,,,space,0.0175,0,10,10,43,1,44,training,zh2x,i,zh2x_i,zh2x_7_ixi.wav,,ixi.jpg,,,,,,,,,,,,,,,,,,,,,,,,,,,,,,,,,
64747a8c5534905fb3f93e39,2023-06-16_19h28.45.507,phx_ver10,2022.2.5,Win32,60.27364234,,,,,space,0.0508,0,11,11,18,1,19,training,zh2x,e,zh2x_e,zh2x_2_ezhe.wav,,ezhe.jpg,,,,,,,,,,,,,,,,,,,,,,,,,,,,,,,,,
64747a8c5534905fb3f93e39,2023-06-16_19h28.45.507,phx_ver10,2022.2.5,Win32,60.27364234,,,,,,,,,,,,,attn_test,,,,zh2x_8_axa.wav,zh2x_8_exe.wav,exe.jpg,RIGHT,,f,0.867,space,2.4324,0,0,0,0,1,,,,,,,,,,,,,,,,,,,,,,
64747a8c5534905fb3f93e39,2023-06-16_19h28.45.507,phx_ver10,2022.2.5,Win32,60.27364234,,,,,space,0.6339,0,12,12,10,1,11,training,zh2x,a,zh2x_a,zh2x_6_axa.wav,,axa.jpg,,,,,,,,,,,,,,,,,,,,,,,,,,,,,,,,,
64747a8c5534905fb3f93e39,2023-06-16_19h28.45.507,phx_ver10,2022.2.5,Win32,60.27364234,,,,,space,0.2517,0,13,13,37,1,38,training,zh2x,i,zh2x_i,zh2x_3_izhi.wav,,izhi.jpg,,,,,,,,,,,,,,,,,,,,,,,,,,,,,,,,,
64747a8c5534905fb3f93e39,2023-06-16_19h28.45.507,phx_ver10,2022.2.5,Win32,60.27364234,,,,,space,0.5335,0,14,14,42,1,43,training,zh2x,i,zh2x_i,zh2x_6_ixi.wav,,ixi.jpg,,,,,,,,,,,,,,,,,,,,,,,,,,,,,,,,,
64747a8c5534905fb3f93e39,2023-06-16_19h28.45.507,phx_ver10,2022.2.5,Win32,60.27364234,,,,,space,0.0519,0,15,15,6,1,7,training,zh2x,a,zh2x_a,zh2x_3_azha.wav,,azha.jpg,,,,,,,,,,,,,,,,,,,,,,,,,,,,,,,,,
64747a8c5534905fb3f93e39,2023-06-16_19h28.45.507,phx_ver10,2022.2.5,Win32,60.27364234,,,,,space,0.0347,0,16,16,24,1,25,training,zh2x,e,zh2x_e,zh2x_5_exe.wav,,exe.jpg,,,,,,,,,,,,,,,,,,,,,,,,,,,,,,,,,
64747a8c5534905fb3f93e39,2023-06-16_19h28.45.507,phx_ver10,2022.2.5,Win32,60.27364234,,,,,space,0.4217,0,17,17,20,1,21,training,zh2x,e,zh2x_e,zh2x_2_ezhe.wav,,ezhe.jpg,,,,,,,,,,,,,,,,,,,,,,,,,,,,,,,,,
64747a8c5534905fb3f93e39,2023-06-16_19h28.45.507,phx_ver10,2022.2.5,Win32,60.27364234,,,,,,,,,,,,,attn_test,,,,zh2x_8_exe.wav,zh2x_1_azha.wav,exe.jpg,LEFT,,f,0.3335,space,1.9838,0,0,0,0,1,,,,,,,,,,,,,,,,,,,,,,
64747a8c5534905fb3f93e39,2023-06-16_19h28.45.507,phx_ver10,2022.2.5,Win32,60.27364234,,,,,space,0.4004,0,18,18,2,1,3,training,zh2x,a,zh2x_a,zh2x_2_azha.wav,,azha.jpg,,,,,,,,,,,,,,,,,,,,,,,,,,,,,,,,,
64747a8c5534905fb3f93e39,2023-06-16_19h28.45.507,phx_ver10,2022.2.5,Win32,60.27364234,,,,,space,0.3672,0,19,19,25,1,26,training,zh2x,e,zh2x_e,zh2x_6_exe.wav,,exe.jpg,,,,,,,,,,,,,,,,,,,,,,,,,,,,,,,,,
64747a8c5534905fb3f93e39,2023-06-16_19h28.45.507,phx_ver10,2022.2.5,Win32,60.27364234,,,,,space,0.5342,0,20,20,7,1,8,training,zh2x,a,zh2x_a,zh2x_4_azha.wav,,azha.jpg,,,,,,,,,,,,,,,,,,,,,,,,,,,,,,,,,
64747a8c5534905fb3f93e39,2023-06-16_19h28.45.507,phx_ver10,2022.2.5,Win32,60.27364234,,,,,space,0.5503,0,21,21,21,1,22,training,zh2x,e,zh2x_e,zh2x_3_ezhe.wav,,ezhe.jpg,,,,,,,,,,,,,,,,,,,,,,,,,,,,,,,,,
64747a8c5534905fb3f93e39,2023-06-16_19h28.45.507,phx_ver10,2022.2.5,Win32,60.27364234,,,,,space,0.4536,0,22,22,41,1,42,training,zh2x,i,zh2x_i,zh2x_6_ixi.wav,,ixi.jpg,,,,,,,,,,,,,,,,,,,,,,,,,,,,,,,,,
64747a8c5534905fb3f93e39,2023-06-16_19h28.45.507,phx_ver10,2022.2.5,Win32,60.27364234,,,,,space,0.1849,0,23,23,19,1,20,training,zh2x,e,zh2x_e,zh2x_2_ezhe.wav,,ezhe.jpg,,,,,,,,,,,,,,,,,,,,,,,,,,,,,,,,,
64747a8c5534905fb3f93e39,2023-06-16_19h28.45.507,phx_ver10,2022.2.5,Win32,60.27364234,,,,,,,,,,,,,attn_test,,,,zh2x_1_ezhe.wav,zh2x_8_ixi.wav,ixi.jpg,RIGHT,,j,0.7292,space,1.0822,0,0,0,0,1,,,,,,,,,,,,,,,,,,,,,,
64747a8c5534905fb3f93e39,2023-06-16_19h28.45.507,phx_ver10,2022.2.5,Win32,60.27364234,,,,,space,0.3196,0,24,24,1,1,2,training,zh2x,a,zh2x_a,zh2x_2_azha.wav,,azha.jpg,,,,,,,,,,,,,,,,,,,,,,,,,,,,,,,,,
64747a8c5534905fb3f93e39,2023-06-16_19h28.45.507,phx_ver10,2022.2.5,Win32,60.27364234,,,,,space,0.1043,0,25,25,45,1,46,training,zh2x,i,zh2x_i,zh2x_7_ixi.wav,,ixi.jpg,,,,,,,,,,,,,,,,,,,,,,,,,,,,,,,,,
64747a8c5534905fb3f93e39,2023-06-16_19h28.45.507,phx_ver10,2022.2.5,Win32,60.27364234,,,,,space,0.2166,0,26,26,38,1,39,training,zh2x,i,zh2x_i,zh2x_3_izhi.wav,,izhi.jpg,,,,,,,,,,,,,,,,,,,,,,,,,,,,,,,,,
64747a8c5534905fb3f93e39,2023-06-16_19h28.45.507,phx_ver10,2022.2.5,Win32,60.27364234,,,,,space,0.4008,0,27,27,44,1,45,training,zh2x,i,zh2x_i,zh2x_7_ixi.wav,,ixi.jpg,,,,,,,,,,,,,,,,,,,,,,,,,,,,,,,,,
64747a8c5534905fb3f93e39,2023-06-16_19h28.45.507,phx_ver10,2022.2.5,Win32,60.27364234,,,,,space,0.3676,0,28,28,5,1,6,training,zh2x,a,zh2x_a,zh2x_3_azha.wav,,azha.jpg,,,,,,,,,,,,,,,,,,,,,,,,,,,,,,,,,
64747a8c5534905fb3f93e39,2023-06-16_19h28.45.507,phx_ver10,2022.2.5,Win32,60.27364234,,,,,space,0.4167,0,29,29,22,1,23,training,zh2x,e,zh2x_e,zh2x_3_ezhe.wav,,ezhe.jpg,,,,,,,,,,,,,,,,,,,,,,,,,,,,,,,,,
64747a8c5534905fb3f93e39,2023-06-16_19h28.45.507,phx_ver10,2022.2.5,Win32,60.27364234,,,,,,,,,,,,,attn_test,,,,zh2x_1_azha.wav,zh2x_1_ezhe.wav,azha.jpg,LEFT,,f,1.731,space,2.1473,0,0,0,0,1,,,,,,,,,,,,,,,,,,,,,,
64747a8c5534905fb3f93e39,2023-06-16_19h28.45.507,phx_ver10,2022.2.5,Win32,60.27364234,,,,,space,0.4334,0,30,30,8,1,9,training,zh2x,a,zh2x_a,zh2x_5_axa.wav,,axa.jpg,,,,,,,,,,,,,,,,,,,,,,,,,,,,,,,,,
64747a8c5534905fb3f93e39,2023-06-16_19h28.45.507,phx_ver10,2022.2.5,Win32,60.27364234,,,,,space,0.4999,0,31,31,13,1,14,training,zh2x,a,zh2x_a,zh2x_7_axa.wav,,axa.jpg,,,,,,,,,,,,,,,,,,,,,,,,,,,,,,,,,
64747a8c5534905fb3f93e39,2023-06-16_19h28.45.507,phx_ver10,2022.2.5,Win32,60.27364234,,,,,space,0.2606,0,32,32,14,1,15,training,zh2x,a,zh2x_a,zh2x_7_axa.wav,,axa.jpg,,,,,,,,,,,,,,,,,,,,,,,,,,,,,,,,,
64747a8c5534905fb3f93e39,2023-06-16_19h28.45.507,phx_ver10,2022.2.5,Win32,60.27364234,,,,,space,0.234,0,33,33,46,1,47,training,zh2x,i,zh2x_i,zh2x_7_ixi.wav,,ixi.jpg,,,,,,,,,,,,,,,,,,,,,,,,,,,,,,,,,
64747a8c5534905fb3f93e39,2023-06-16_19h28.45.507,phx_ver10,2022.2.5,Win32,60.27364234,,,,,space,0.0019,0,34,34,29,1,30,training,zh2x,e,zh2x_e,zh2x_7_exe.wav,,exe.jpg,,,,,,,,,,,,,,,,,,,,,,,,,,,,,,,,,
64747a8c5534905fb3f93e39,2023-06-16_19h28.45.507,phx_ver10,2022.2.5,Win32,60.27364234,,,,,space,0.3839,0,35,35,3,1,4,training,zh2x,a,zh2x_a,zh2x_2_azha.wav,,azha.jpg,,,,,,,,,,,,,,,,,,,,,,,,,,,,,,,,,
64747a8c5534905fb3f93e39,2023-06-16_19h28.45.507,phx_ver10,2022.2.5,Win32,60.27364234,,,,,,,,,,,,,attn_test,,,,zh2x_1_azha.wav,zh2x_8_axa.wav,axa.jpg,RIGHT,,f,1.7155,space,2.5645,0,0,0,0,1,,,,,,,,,,,,,,,,,,,,,,
64747a8c5534905fb3f93e39,2023-06-16_19h28.45.507,phx_ver10,2022.2.5,Win32,60.27364234,,,,,space,0.3275,0,36,36,47,1,48,training,zh2x,i,zh2x_i,zh2x_8_ixi.wav,,ixi.jpg,,,,,,,,,,,,,,,,,,,,,,,,,,,,,,,,,
64747a8c5534905fb3f93e39,2023-06-16_19h28.45.507,phx_ver10,2022.2.5,Win32,60.27364234,,,,,space,0.1177,0,37,37,35,1,36,training,zh2x,i,zh2x_i,zh2x_2_izhi.wav,,izhi.jpg,,,,,,,,,,,,,,,,,,,,,,,,,,,,,,,,,
64747a8c5534905fb3f93e39,2023-06-16_19h28.45.507,phx_ver10,2022.2.5,Win32,60.27364234,,,,,space,0.3023,0,38,38,16,1,17,training,zh2x,e,zh2x_e,zh2x_1_ezhe.wav,,ezhe.jpg,,,,,,,,,,,,,,,,,,,,,,,,,,,,,,,,,
64747a8c5534905fb3f93e39,2023-06-16_19h28.45.507,phx_ver10,2022.2.5,Win32,60.27364234,,,,,space,0.3759,0,39,39,36,1,37,training,zh2x,i,zh2x_i,zh2x_2_izhi.wav,,izhi.jpg,,,,,,,,,,,,,,,,,,,,,,,,,,,,,,,,,
64747a8c5534905fb3f93e39,2023-06-16_19h28.45.507,phx_ver10,2022.2.5,Win32,60.27364234,,,,,space,0.298,0,40,40,32,1,33,training,zh2x,i,zh2x_i,zh2x_1_izhi.wav,,izhi.jpg,,,,,,,,,,,,,,,,,,,,,,,,,,,,,,,,,
64747a8c5534905fb3f93e39,2023-06-16_19h28.45.507,phx_ver10,2022.2.5,Win32,60.27364234,,,,,space,0.1537,0,41,41,26,1,27,training,zh2x,e,zh2x_e,zh2x_6_exe.wav,,exe.jpg,,,,,,,,,,,,,,,,,,,,,,,,,,,,,,,,,
64747a8c5534905fb3f93e39,2023-06-16_19h28.45.507,phx_ver10,2022.2.5,Win32,60.27364234,,,,,,,,,,,,,attn_test,,,,zh2x_1_ezhe.wav,zh2x_8_axa.wav,ezhe.jpg,LEFT,,f,0.391,space,1.0002,0,0,0,0,1,,,,,,,,,,,,,,,,,,,,,,
64747a8c5534905fb3f93e39,2023-06-16_19h28.45.507,phx_ver10,2022.2.5,Win32,60.27364234,,,,,space,0.2011,0,42,42,34,1,35,training,zh2x,i,zh2x_i,zh2x_2_izhi.wav,,izhi.jpg,,,,,,,,,,,,,,,,,,,,,,,,,,,,,,,,,
64747a8c5534905fb3f93e39,2023-06-16_19h28.45.507,phx_ver10,2022.2.5,Win32,60.27364234,,,,,space,0.2838,0,43,43,4,1,5,training,zh2x,a,zh2x_a,zh2x_2_azha.wav,,azha.jpg,,,,,,,,,,,,,,,,,,,,,,,,,,,,,,,,,
64747a8c5534905fb3f93e39,2023-06-16_19h28.45.507,phx_ver10,2022.2.5,Win32,60.27364234,,,,,space,0.2724,0,44,44,27,1,28,training,zh2x,e,zh2x_e,zh2x_7_exe.wav,,exe.jpg,,,,,,,,,,,,,,,,,,,,,,,,,,,,,,,,,
64747a8c5534905fb3f93e39,2023-06-16_19h28.45.507,phx_ver10,2022.2.5,Win32,60.27364234,,,,,space,0.0474,0,45,45,15,1,16,training,zh2x,a,zh2x_a,zh2x_8_axa.wav,,axa.jpg,,,,,,,,,,,,,,,,,,,,,,,,,,,,,,,,,
64747a8c5534905fb3f93e39,2023-06-16_19h28.45.507,phx_ver10,2022.2.5,Win32,60.27364234,,,,,space,0.3213,0,46,46,31,1,32,training,zh2x,e,zh2x_e,zh2x_8_exe.wav,,exe.jpg,,,,,,,,,,,,,,,,,,,,,,,,,,,,,,,,,
64747a8c5534905fb3f93e39,2023-06-16_19h28.45.507,phx_ver10,2022.2.5,Win32,60.27364234,,,,,space,0.4315,0,47,47,33,1,34,training,zh2x,i,zh2x_i,zh2x_2_izhi.wav,,izhi.jpg,,,,,,,,,,,,,,,,,,,,,,,,,,,,,,,,,
64747a8c5534905fb3f93e39,2023-06-16_19h28.45.507,phx_ver10,2022.2.5,Win32,60.27364234,,,,,,,,,,,,,attn_test,,,,zh2x_1_azha.wav,zh2x_1_ezhe.wav,azha.jpg,LEFT,,f,1.9326,space,2.6316,,,,,,,,,,,,,,,,,,,,,,,,,,,
64747a8c5534905fb3f93e39,2023-06-16_19h28.45.507,phx_ver10,2022.2.5,Win32,60.27364234,,,,,,,,,,,,,,,,,,,,,,,,,,,,,,,space,0.5501,,,,,,,,,,,,,,,,,,,,
64747a8c5534905fb3f93e39,2023-06-16_19h28.45.507,phx_ver10,2022.2.5,Win32,60.27364234,,,,,,,,,,,,,,,,,,,,,,,,,,,,,,,,,space,3.2141,,,,,,,,,,,,,,,,,,
64747a8c5534905fb3f93e39,2023-06-16_19h28.45.507,phx_ver10,2022.2.5,Win32,60.27364234,,,,,,,,,,,,4,testing_pre,,,,eihei.wav,eihei.wav,,TRUE,,,,,,,,,,,,,,,f,0.7853,space,1.9434,0,0,0,3,1,,,,,,,,,
64747a8c5534905fb3f93e39,2023-06-16_19h28.45.507,phx_ver10,2022.2.5,Win32,60.27364234,,,,,,,,,,,,3,testing_pre,,,,afa.wav,aha.wav,,FALSE,,,,,,,,,,,,,,,f,0.5496,space,1.0163,0,1,1,2,1,,,,,,,,,
64747a8c5534905fb3f93e39,2023-06-16_19h28.45.507,phx_ver10,2022.2.5,Win32,60.27364234,,,,,,,,,,,,1,testing_pre,,,,ifi.wav,ifi.wav,,TRUE,,,,,,,,,,,,,,,f,0.4174,space,0.8,0,2,2,0,1,,,,,,,,,
64747a8c5534905fb3f93e39,2023-06-16_19h28.45.507,phx_ver10,2022.2.5,Win32,60.27364234,,,,,,,,,,,,5,testing_pre,,,,ihi.wav,ifi.wav,,FALSE,,,,,,,,,,,,,,,j,0.4343,space,1.1495,0,3,3,4,1,,,,,,,,,
64747a8c5534905fb3f93e39,2023-06-16_19h28.45.507,phx_ver10,2022.2.5,Win32,60.27364234,,,,,,,,,,,,2,testing_pre,,,,auhau.wav,aufau.wav,,FALSE,,,,,,,,,,,,,,,j,2.4149,space,2.8145,0,4,4,1,1,,,,,,,,,
64747a8c5534905fb3f93e39,2023-06-16_19h28.45.507,phx_ver10,2022.2.5,Win32,60.27364234,,,,,,,,,,,,,,,,,,,,,,,,,,,,,,,,,,,,,,,,,,,,space,0.6338,,,,,,,
64747a8c5534905fb3f93e39,2023-06-16_19h28.45.507,phx_ver10,2022.2.5,Win32,60.27364234,,,,,,,,,,,,4,testing_1,zh2x,a,zh2x_a,zh2x_8_axa.wav,zh2x_1_azha.wav,,FALSE,TRUE,,,,,,,,,,,,,,f,0.5163,space,0.933,,,,,,,,0,0,0,3,1,,
64747a8c5534905fb3f93e39,2023-06-16_19h28.45.507,phx_ver10,2022.2.5,Win32,60.27364234,,,,,,,,,,,,80,testing_3,j2x,ai,j2x_ai,j2x_8_aixai.wav,j2x_1_aijai.wav,,FALSE,FALSE,,,,,,,,,,,,,,j,0.5168,space,0.9839,,,,,,,,0,1,1,79,1,,
64747a8c5534905fb3f93e39,2023-06-16_19h28.45.507,phx_ver10,2022.2.5,Win32,60.27364234,,,,,,,,,,,,32,testing_3,zh2sh,ai,zh2sh_ai,zh2sh_8_aishai.wav,zh2sh_1_aizhai.wav,,FALSE,FALSE,,,,,,,,,,,,,,j,0.4833,space,0.7826,,,,,,,,0,2,2,31,1,,
64747a8c5534905fb3f93e39,2023-06-16_19h28.45.507,phx_ver10,2022.2.5,Win32,60.27364234,,,,,,,,,,,,144,testing_3,sh2j,i,sh2j_i,sh2j_8_iji.wav,sh2j_1_ishi.wav,,FALSE,FALSE,,,,,,,,,,,,,,f,0.1347,space,0.4502,,,,,,,,0,3,3,143,1,,
64747a8c5534905fb3f93e39,2023-06-16_19h28.45.507,phx_ver10,2022.2.5,Win32,60.27364234,,,,,,,,,,,,59,testing_3,zh2j,au,zh2j_au,zh2j_1_auzhau.wav,zh2j_8_aujau.wav,,FALSE,FALSE,,,,,,,,,,,,,,f,0.1858,space,0.4683,,,,,,,,0,4,4,58,1,,
64747a8c5534905fb3f93e39,2023-06-16_19h28.45.507,phx_ver10,2022.2.5,Win32,60.27364234,,,,,,,,,,,,57,testing_3,zh2j,au,zh2j_au,zh2j_1_auzhau.wav,zh2j_1_auzhau.wav,,TRUE,FALSE,,,,,,,,,,,,,,f,0.4189,space,0.6359,,,,,,,,0,5,5,56,1,,
64747a8c5534905fb3f93e39,2023-06-16_19h28.45.507,phx_ver10,2022.2.5,Win32,60.27364234,,,,,,,,,,,,22,testing_2,zh2x,ei,zh2x_ei,zh2x_8_eixei.wav,zh2x_8_eixei.wav,,TRUE,FALSE,,,,,,,,,,,,,,f,0.2516,space,0.4845,,,,,,,,0,6,6,21,1,,
64747a8c5534905fb3f93e39,2023-06-16_19h28.45.507,phx_ver10,2022.2.5,Win32,60.27364234,,,,,,,,,,,,39,testing_3,zh2sh,e,zh2sh_e,zh2sh_1_ezhe.wav,zh2sh_8_eshe.wav,,FALSE,FALSE,,,,,,,,,,,,,,f,0.3341,space,0.5993,,,,,,,,0,7,7,38,1,,
64747a8c5534905fb3f93e39,2023-06-16_19h28.45.507,phx_ver10,2022.2.5,Win32,60.27364234,,,,,,,,,,,,132,testing_3,sh2j,au,sh2j_au,sh2j_8_aujau.wav,sh2j_1_aushau.wav,,FALSE,FALSE,,,,,,,,,,,,,,j,0.8179,space,1.0469,,,,,,,,0,8,8,131,1,,
64747a8c5534905fb3f93e39,2023-06-16_19h28.45.507,phx_ver10,2022.2.5,Win32,60.27364234,,,,,,,,,,,,74,testing_3,j2x,a,j2x_a,j2x_8_axa.wav,j2x_8_axa.wav,,TRUE,FALSE,,,,,,,,,,,,,,f,0.6511,space,0.8665,,,,,,,,0,9,9,73,1,,
64747a8c5534905fb3f93e39,2023-06-16_19h28.45.507,phx_ver10,2022.2.5,Win32,60.27364234,,,,,,,,,,,,136,testing_3,sh2j,e,sh2j_e,sh2j_8_eje.wav,sh2j_1_eshe.wav,,FALSE,FALSE,,,,,,,,,,,,,,f,0.1714,space,0.4516,,,,,,,,0,10,10,135,1,,
64747a8c5534905fb3f93e39,2023-06-16_19h28.45.507,phx_ver10,2022.2.5,Win32,60.27364234,,,,,,,,,,,,28,testing_3,zh2sh,a,zh2sh_a,zh2sh_8_asha.wav,zh2sh_1_azha.wav,,FALSE,FALSE,,,,,,,,,,,,,,f,0.2169,space,0.423,,,,,,,,0,11,11,27,1,,
64747a8c5534905fb3f93e39,2023-06-16_19h28.45.507,phx_ver10,2022.2.5,Win32,60.27364234,,,,,,,,,,,,18,testing_2,zh2x,au,zh2x_au,zh2x_8_auxau.wav,zh2x_8_auxau.wav,,TRUE,FALSE,,,,,,,,,,,,,,j,0.6839,space,0.884,,,,,,,,0,12,12,17,1,,
64747a8c5534905fb3f93e39,2023-06-16_19h28.45.507,phx_ver10,2022.2.5,Win32,60.27364234,,,,,,,,,,,,90,testing_3,j2x,ei,j2x_ei,j2x_8_eixei.wav,j2x_8_eixei.wav,,TRUE,FALSE,,,,,,,,,,,,,,f,0.2341,space,0.4168,,,,,,,,0,13,13,89,1,,
64747a8c5534905fb3f93e39,2023-06-16_19h28.45.507,phx_ver10,2022.2.5,Win32,60.27364234,,,,,,,,,,,,139,testing_3,sh2j,ei,sh2j_ei,sh2j_1_eishei.wav,sh2j_8_eijei.wav,,FALSE,FALSE,,,,,,,,,,,,,,f,0.3838,space,0.6056,,,,,,,,0,14,14,138,1,,
64747a8c5534905fb3f93e39,2023-06-16_19h28.45.507,phx_ver10,2022.2.5,Win32,60.27364234,,,,,,,,,,,,49,testing_3,zh2j,a,zh2j_a,zh2j_1_azha.wav,zh2j_1_azha.wav,,TRUE,FALSE,,,,,,,,,,,,,,f,0.3993,space,0.6008,,,,,,,,0,15,15,48,1,,
64747a8c5534905fb3f93e39,2023-06-16_19h28.45.507,phx_ver10,2022.2.5,Win32,60.27364234,,,,,,,,,,,,81,testing_3,j2x,au,j2x_au,j2x_1_aujau.wav,j2x_1_aujau.wav,,TRUE,FALSE,,,,,,,,,,,,,,f,0.8164,space,0.9662,,,,,,,,0,16,16,80,1,,
64747a8c5534905fb3f93e39,2023-06-16_19h28.45.507,phx_ver10,2022.2.5,Win32,60.27364234,,,,,,,,,,,,24,testing_2,zh2x,ei,zh2x_ei,zh2x_8_eixei.wav,zh2x_1_eizhei.wav,,FALSE,FALSE,,,,,,,,,,,,,,f,0.05,space,0.5309,,,,,,,,0,17,17,23,1,,
64747a8c5534905fb3f93e39,2023-06-16_19h28.45.507,phx_ver10,2022.2.5,Win32,60.27364234,,,,,,,,,,,,11,testing_1,zh2x,i,zh2x_i,zh2x_1_izhi.wav,zh2x_8_ixi.wav,,FALSE,TRUE,,,,,,,,,,,,,,f,0.2516,space,0.7509,,,,,,,,0,18,18,10,1,,
64747a8c5534905fb3f93e39,2023-06-16_19h28.45.507,phx_ver10,2022.2.5,Win32,60.27364234,,,,,,,,,,,,43,testing_3,zh2sh,ei,zh2sh_ei,zh2sh_1_eizhei.wav,zh2sh_8_eishei.wav,,FALSE,FALSE,,,,,,,,,,,,,,j,0.7335,space,0.9346,,,,,,,,0,19,19,42,1,,
64747a8c5534905fb3f93e39,2023-06-16_19h28.45.507,phx_ver10,2022.2.5,Win32,60.27364234,,,,,,,,,,,,60,testing_3,zh2j,au,zh2j_au,zh2j_8_aujau.wav,zh2j_1_auzhau.wav,,FALSE,FALSE,,,,,,,,,,,,,,f,0.018,space,0.1999,,,,,,,,0,20,20,59,1,,
64747a8c5534905fb3f93e39,2023-06-16_19h28.45.507,phx_ver10,2022.2.5,Win32,60.27364234,,,,,,,,,,,,133,testing_3,sh2j,e,sh2j_e,sh2j_1_eshe.wav,sh2j_1_eshe.wav,,TRUE,FALSE,,,,,,,,,,,,,,f,0.0549,space,0.2171,,,,,,,,0,21,21,132,1,,
64747a8c5534905fb3f93e39,2023-06-16_19h28.45.507,phx_ver10,2022.2.5,Win32,60.27364234,,,,,,,,,,,,20,testing_2,zh2x,au,zh2x_au,zh2x_8_auxau.wav,zh2x_1_auzhau.wav,,FALSE,FALSE,,,,,,,,,,,,,,j,0.7835,space,0.9908,,,,,,,,0,22,22,19,1,,
64747a8c5534905fb3f93e39,2023-06-16_19h28.45.507,phx_ver10,2022.2.5,Win32,60.27364234,,,,,,,,,,,,140,testing_3,sh2j,ei,sh2j_ei,sh2j_8_eijei.wav,sh2j_1_eishei.wav,,FALSE,FALSE,,,,,,,,,,,,,,f,0.3008,space,0.4671,,,,,,,,0,23,23,139,1,,
64747a8c5534905fb3f93e39,2023-06-16_19h28.45.507,phx_ver10,2022.2.5,Win32,60.27364234,,,,,,,,,,,,127,testing_3,sh2j,ai,sh2j_ai,sh2j_1_aishai.wav,sh2j_8_aijai.wav,,FALSE,FALSE,,,,,,,,,,,,,,j,0.4671,space,0.65,,,,,,,,0,24,24,126,1,,
64747a8c5534905fb3f93e39,2023-06-16_19h28.45.507,phx_ver10,2022.2.5,Win32,60.27364234,,,,,,,,,,,,84,testing_3,j2x,au,j2x_au,j2x_8_auxau.wav,j2x_1_aujau.wav,,FALSE,FALSE,,,,,,,,,,,,,,j,0.4479,space,0.6162,,,,,,,,0,25,25,83,1,,
64747a8c5534905fb3f93e39,2023-06-16_19h28.45.507,phx_ver10,2022.2.5,Win32,60.27364234,,,,,,,,,,,,54,testing_3,zh2j,ai,zh2j_ai,zh2j_8_aijai.wav,zh2j_8_aijai.wav,,TRUE,FALSE,,,,,,,,,,,,,,f,0.2342,space,0.5004,,,,,,,,0,26,26,53,1,,
64747a8c5534905fb3f93e39,2023-06-16_19h28.45.507,phx_ver10,2022.2.5,Win32,60.27364234,,,,,,,,,,,,121,testing_3,sh2j,a,sh2j_a,sh2j_1_asha.wav,sh2j_1_asha.wav,,TRUE,FALSE,,,,,,,,,,,,,,f,0.1484,space,0.2337,,,,,,,,0,27,27,120,1,,
64747a8c5534905fb3f93e39,2023-06-16_19h28.45.507,phx_ver10,2022.2.5,Win32,60.27364234,,,,,,,,,,,,131,testing_3,sh2j,au,sh2j_au,sh2j_1_aushau.wav,sh2j_8_aujau.wav,,FALSE,FALSE,,,,,,,,,,,,,,j,0.9996,space,1.166,,,,,,,,0,28,28,130,1,,
64747a8c5534905fb3f93e39,2023-06-16_19h28.45.507,phx_ver10,2022.2.5,Win32,60.27364234,,,,,,,,,,,,31,testing_3,zh2sh,ai,zh2sh_ai,zh2sh_1_aizhai.wav,zh2sh_8_aishai.wav,,FALSE,FALSE,,,,,,,,,,,,,,j,0.4339,space,0.6168,,,,,,,,0,29,29,30,1,,
64747a8c5534905fb3f93e39,2023-06-16_19h28.45.507,phx_ver10,2022.2.5,Win32,60.27364234,,,,,,,,,,,,7,testing_1,zh2x,e,zh2x_e,zh2x_1_ezhe.wav,zh2x_8_exe.wav,,FALSE,TRUE,,,,,,,,,,,,,,j,0.3848,space,0.5675,,,,,,,,0,30,30,6,1,,
64747a8c5534905fb3f93e39,2023-06-16_19h28.45.507,phx_ver10,2022.2.5,Win32,60.27364234,,,,,,,,,,,,73,testing_3,j2x,a,j2x_a,j2x_1_aja.wav,j2x_1_aja.wav,,TRUE,FALSE,,,,,,,,,,,,,,f,0.4842,space,0.6344,,,,,,,,0,31,31,72,1,,
64747a8c5534905fb3f93e39,2023-06-16_19h28.45.507,phx_ver10,2022.2.5,Win32,60.27364234,,,,,,,,,,,,69,testing_3,zh2j,i,zh2j_i,zh2j_1_izhi.wav,zh2j_1_izhi.wav,,TRUE,FALSE,,,,,,,,,,,,,,f,0.8541,space,1.0329,,,,,,,,0,32,32,68,1,,
64747a8c5534905fb3f93e39,2023-06-16_19h28.45.507,phx_ver10,2022.2.5,Win32,60.27364234,,,,,,,,,,,,21,testing_2,zh2x,ei,zh2x_ei,zh2x_1_eizhei.wav,zh2x_1_eizhei.wav,,TRUE,FALSE,,,,,,,,,,,,,,j,1.0999,space,1.3342,,,,,,,,0,33,33,20,1,,
64747a8c5534905fb3f93e39,2023-06-16_19h28.45.507,phx_ver10,2022.2.5,Win32,60.27364234,,,,,,,,,,,,8,testing_1,zh2x,e,zh2x_e,zh2x_8_exe.wav,zh2x_1_ezhe.wav,,FALSE,TRUE,,,,,,,,,,,,,,f,0.2011,space,0.4007,,,,,,,,0,34,34,7,1,,
64747a8c5534905fb3f93e39,2023-06-16_19h28.45.507,phx_ver10,2022.2.5,Win32,60.27364234,,,,,,,,,,,,76,testing_3,j2x,a,j2x_a,j2x_8_axa.wav,j2x_1_aja.wav,,FALSE,FALSE,,,,,,,,,,,,,,j,0.3707,space,0.5503,,,,,,,,0,35,35,75,1,,
64747a8c5534905fb3f93e39,2023-06-16_19h28.45.507,phx_ver10,2022.2.5,Win32,60.27364234,,,,,,,,,,,,35,testing_3,zh2sh,au,zh2sh_au,zh2sh_1_auzhau.wav,zh2sh_8_aushau.wav,,FALSE,FALSE,,,,,,,,,,,,,,j,0.3376,space,0.5174,,,,,,,,0,36,36,34,1,,
64747a8c5534905fb3f93e39,2023-06-16_19h28.45.507,phx_ver10,2022.2.5,Win32,60.27364234,,,,,,,,,,,,25,testing_3,zh2sh,a,zh2sh_a,zh2sh_1_azha.wav,zh2sh_1_azha.wav,,TRUE,FALSE,,,,,,,,,,,,,,f,0.3667,space,0.6503,,,,,,,,0,37,37,24,1,,
64747a8c5534905fb3f93e39,2023-06-16_19h28.45.507,phx_ver10,2022.2.5,Win32,60.27364234,,,,,,,,,,,,56,testing_3,zh2j,ai,zh2j_ai,zh2j_8_aijai.wav,zh2j_1_aizhai.wav,,FALSE,FALSE,,,,,,,,,,,,,,f,0.2671,space,0.4564,,,,,,,,0,38,38,55,1,,
64747a8c5534905fb3f93e39,2023-06-16_19h28.45.507,phx_ver10,2022.2.5,Win32,60.27364234,,,,,,,,,,,,98,testing_3,sh2x,a,sh2x_a,sh2x_8_axa.wav,sh2x_8_axa.wav,,TRUE,FALSE,,,,,,,,,,,,,,f,0.1832,space,0.3844,,,,,,,,0,39,39,97,1,,
64747a8c5534905fb3f93e39,2023-06-16_19h28.45.507,phx_ver10,2022.2.5,Win32,60.27364234,,,,,,,,,,,,116,testing_3,sh2x,ei,sh2x_ei,sh2x_8_eixei.wav,sh2x_1_eishei.wav,,FALSE,FALSE,,,,,,,,,,,,,,f,0.2689,space,0.4166,,,,,,,,0,40,40,115,1,,
64747a8c5534905fb3f93e39,2023-06-16_19h28.45.507,phx_ver10,2022.2.5,Win32,60.27364234,,,,,,,,,,,,45,testing_3,zh2sh,i,zh2sh_i,zh2sh_1_izhi.wav,zh2sh_1_izhi.wav,,TRUE,FALSE,,,,,,,,,,,,,,f,0.2502,space,0.4337,,,,,,,,0,41,41,44,1,,
64747a8c5534905fb3f93e39,2023-06-16_19h28.45.507,phx_ver10,2022.2.5,Win32,60.27364234,,,,,,,,,,,,19,testing_2,zh2x,au,zh2x_au,zh2x_1_auzhau.wav,zh2x_8_auxau.wav,,FALSE,FALSE,,,,,,,,,,,,,,j,0.3837,space,0.5509,,,,,,,,0,42,42,18,1,,
64747a8c5534905fb3f93e39,2023-06-16_19h28.45.507,phx_ver10,2022.2.5,Win32,60.27364234,,,,,,,,,,,,113,testing_3,sh2x,ei,sh2x_ei,sh2x_1_eishei.wav,sh2x_1_eishei.wav,,TRUE,FALSE,,,,,,,,,,,,,,j,0.251,space,0.4522,,,,,,,,0,43,43,112,1,,
64747a8c5534905fb3f93e39,2023-06-16_19h28.45.507,phx_ver10,2022.2.5,Win32,60.27364234,,,,,,,,,,,,26,testing_3,zh2sh,a,zh2sh_a,zh2sh_8_asha.wav,zh2sh_8_asha.wav,,TRUE,FALSE,,,,,,,,,,,,,,j,0.3172,space,0.5001,,,,,,,,0,44,44,25,1,,
64747a8c5534905fb3f93e39,2023-06-16_19h28.45.507,phx_ver10,2022.2.5,Win32,60.27364234,,,,,,,,,,,,130,testing_3,sh2j,au,sh2j_au,sh2j_8_aujau.wav,sh2j_8_aujau.wav,,TRUE,FALSE,,,,,,,,,,,,,,f,0.3051,space,0.4685,,,,,,,,0,45,45,129,1,,
64747a8c5534905fb3f93e39,2023-06-16_19h28.45.507,phx_ver10,2022.2.5,Win32,60.27364234,,,,,,,,,,,,41,testing_3,zh2sh,ei,zh2sh_ei,zh2sh_1_eizhei.wav,zh2sh_1_eizhei.wav,,TRUE,FALSE,,,,,,,,,,,,,,f,0.1166,space,0.2866,,,,,,,,0,46,46,40,1,,
64747a8c5534905fb3f93e39,2023-06-16_19h28.45.507,phx_ver10,2022.2.5,Win32,60.27364234,,,,,,,,,,,,138,testing_3,sh2j,ei,sh2j_ei,sh2j_8_eijei.wav,sh2j_8_eijei.wav,,TRUE,FALSE,,,,,,,,,,,,,,j,0.334,space,0.5191,,,,,,,,0,47,47,137,1,,
64747a8c5534905fb3f93e39,2023-06-16_19h28.45.507,phx_ver10,2022.2.5,Win32,60.27364234,,,,,,,,,,,,134,testing_3,sh2j,e,sh2j_e,sh2j_8_eje.wav,sh2j_8_eje.wav,,TRUE,FALSE,,,,,,,,,,,,,,f,0.202,space,0.4335,,,,,,,,0,48,48,133,1,,
64747a8c5534905fb3f93e39,2023-06-16_19h28.45.507,phx_ver10,2022.2.5,Win32,60.27364234,,,,,,,,,,,,75,testing_3,j2x,a,j2x_a,j2x_1_aja.wav,j2x_8_axa.wav,,FALSE,FALSE,,,,,,,,,,,,,,j,0.2997,space,0.4666,,,,,,,,0,49,49,74,1,,
64747a8c5534905fb3f93e39,2023-06-16_19h28.45.507,phx_ver10,2022.2.5,Win32,60.27364234,,,,,,,,,,,,13,testing_2,zh2x,ai,zh2x_ai,zh2x_1_aizhai.wav,zh2x_1_aizhai.wav,,TRUE,FALSE,,,,,,,,,,,,,,f,0.2678,space,0.4234,,,,,,,,0,50,50,12,1,,
64747a8c5534905fb3f93e39,2023-06-16_19h28.45.507,phx_ver10,2022.2.5,Win32,60.27364234,,,,,,,,,,,,120,testing_3,sh2x,i,sh2x_i,sh2x_8_ixi.wav,sh2x_1_ishi.wav,,FALSE,FALSE,,,,,,,,,,,,,,j,0.9336,space,1.0995,,,,,,,,0,51,51,119,1,,
64747a8c5534905fb3f93e39,2023-06-16_19h28.45.507,phx_ver10,2022.2.5,Win32,60.27364234,,,,,,,,,,,,99,testing_3,sh2x,a,sh2x_a,sh2x_1_asha.wav,sh2x_8_axa.wav,,FALSE,FALSE,,,,,,,,,,,,,,j,0.3843,space,0.5406,,,,,,,,0,52,52,98,1,,
64747a8c5534905fb3f93e39,2023-06-16_19h28.45.507,phx_ver10,2022.2.5,Win32,60.27364234,,,,,,,,,,,,10,testing_1,zh2x,i,zh2x_i,zh2x_8_ixi.wav,zh2x_8_ixi_copy.wav,,TRUE,TRUE,,,,,,,,,,,,,,f,0.1567,space,0.3342,,,,,,,,0,53,53,9,1,,
64747a8c5534905fb3f93e39,2023-06-16_19h28.45.507,phx_ver10,2022.2.5,Win32,60.27364234,,,,,,,,,,,,112,testing_3,sh2x,e,sh2x_e,sh2x_8_exe.wav,sh2x_1_eshe.wav,,FALSE,FALSE,,,,,,,,,,,,,,f,0.1507,space,0.2551,,,,,,,,0,54,54,111,1,,
64747a8c5534905fb3f93e39,2023-06-16_19h28.45.507,phx_ver10,2022.2.5,Win32,60.27364234,,,,,,,,,,,,44,testing_3,zh2sh,ei,zh2sh_ei,zh2sh_8_eishei.wav,zh2sh_1_eizhei.wav,,FALSE,FALSE,,,,,,,,,,,,,,j,0.899,space,1.0663,,,,,,,,0,55,55,43,1,,
64747a8c5534905fb3f93e39,2023-06-16_19h28.45.507,phx_ver10,2022.2.5,Win32,60.27364234,,,,,,,,,,,,117,testing_3,sh2x,i,sh2x_i,sh2x_1_ishi.wav,sh2x_1_ishi.wav,,TRUE,FALSE,,,,,,,,,,,,,,f,0.1672,space,0.335,,,,,,,,0,56,56,116,1,,
64747a8c5534905fb3f93e39,2023-06-16_19h28.45.507,phx_ver10,2022.2.5,Win32,60.27364234,,,,,,,,,,,,107,testing_3,sh2x,au,sh2x_au,sh2x_1_aushau.wav,sh2x_8_auxau.wav,,FALSE,FALSE,,,,,,,,,,,,,,j,0.2835,space,0.4679,,,,,,,,0,57,57,106,1,,
64747a8c5534905fb3f93e39,2023-06-16_19h28.45.507,phx_ver10,2022.2.5,Win32,60.27364234,,,,,,,,,,,,47,testing_3,zh2sh,i,zh2sh_i,zh2sh_1_izhi.wav,zh2sh_8_ishi.wav,,FALSE,FALSE,,,,,,,,,,,,,,j,0.5339,space,0.6999,,,,,,,,0,58,58,46,1,,
64747a8c5534905fb3f93e39,2023-06-16_19h28.45.507,phx_ver10,2022.2.5,Win32,60.27364234,,,,,,,,,,,,123,testing_3,sh2j,a,sh2j_a,sh2j_1_asha.wav,sh2j_8_aja.wav,,FALSE,FALSE,,,,,,,,,,,,,,j,0.2673,space,0.4341,,,,,,,,0,59,59,122,1,,
64747a8c5534905fb3f93e39,2023-06-16_19h28.45.507,phx_ver10,2022.2.5,Win32,60.27364234,,,,,,,,,,,,137,testing_3,sh2j,ei,sh2j_ei,sh2j_1_eishei.wav,sh2j_1_eishei.wav,,TRUE,FALSE,,,,,,,,,,,,,,f,0.2337,space,0.3534,,,,,,,,0,60,60,136,1,,
64747a8c5534905fb3f93e39,2023-06-16_19h28.45.507,phx_ver10,2022.2.5,Win32,60.27364234,,,,,,,,,,,,51,testing_3,zh2j,a,zh2j_a,zh2j_1_azha.wav,zh2j_8_aja.wav,,FALSE,FALSE,,,,,,,,,,,,,,f,0.2835,space,0.5884,,,,,,,,0,61,61,50,1,,
64747a8c5534905fb3f93e39,2023-06-16_19h28.45.507,phx_ver10,2022.2.5,Win32,60.27364234,,,,,,,,,,,,95,testing_3,j2x,i,j2x_i,j2x_1_iji.wav,j2x_8_ixi.wav,,FALSE,FALSE,,,,,,,,,,,,,,f,1.1581,space,1.3842,,,,,,,,0,62,62,94,1,,
64747a8c5534905fb3f93e39,2023-06-16_19h28.45.507,phx_ver10,2022.2.5,Win32,60.27364234,,,,,,,,,,,,103,testing_3,sh2x,ai,sh2x_ai,sh2x_1_aishai.wav,sh2x_8_aixai.wav,,FALSE,FALSE,,,,,,,,,,,,,,j,0.2739,space,0.4722,,,,,,,,0,63,63,102,1,,
64747a8c5534905fb3f93e39,2023-06-16_19h28.45.507,phx_ver10,2022.2.5,Win32,60.27364234,,,,,,,,,,,,110,testing_3,sh2x,e,sh2x_e,sh2x_8_exe.wav,sh2x_8_exe.wav,,TRUE,FALSE,,,,,,,,,,,,,,f,0.2382,space,0.3832,,,,,,,,0,64,64,109,1,,
64747a8c5534905fb3f93e39,2023-06-16_19h28.45.507,phx_ver10,2022.2.5,Win32,60.27364234,,,,,,,,,,,,52,testing_3,zh2j,a,zh2j_a,zh2j_8_aja.wav,zh2j_1_azha.wav,,FALSE,FALSE,,,,,,,,,,,,,,f,0.3331,space,0.4002,,,,,,,,0,65,65,51,1,,
64747a8c5534905fb3f93e39,2023-06-16_19h28.45.507,phx_ver10,2022.2.5,Win32,60.27364234,,,,,,,,,,,,82,testing_3,j2x,au,j2x_au,j2x_8_auxau.wav,j2x_8_auxau.wav,,TRUE,FALSE,,,,,,,,,,,,,,f,0.3333,space,0.4838,,,,,,,,0,66,66,81,1,,
64747a8c5534905fb3f93e39,2023-06-16_19h28.45.507,phx_ver10,2022.2.5,Win32,60.27364234,,,,,,,,,,,,93,testing_3,j2x,i,j2x_i,j2x_1_iji.wav,j2x_1_iji.wav,,TRUE,FALSE,,,,,,,,,,,,,,f,0.2669,space,0.4171,,,,,,,,0,67,67,92,1,,
64747a8c5534905fb3f93e39,2023-06-16_19h28.45.507,phx_ver10,2022.2.5,Win32,60.27364234,,,,,,,,,,,,16,testing_2,zh2x,ai,zh2x_ai,zh2x_8_aixai.wav,zh2x_1_aizhai.wav,,FALSE,FALSE,,,,,,,,,,,,,,j,0.384,space,0.5689,,,,,,,,0,68,68,15,1,,
64747a8c5534905fb3f93e39,2023-06-16_19h28.45.507,phx_ver10,2022.2.5,Win32,60.27364234,,,,,,,,,,,,3,testing_1,zh2x,a,zh2x_a,zh2x_1_azha.wav,zh2x_8_axa.wav,,FALSE,TRUE,,,,,,,,,,,,,,f,0.1715,space,0.2338,,,,,,,,0,69,69,2,1,,
64747a8c5534905fb3f93e39,2023-06-16_19h28.45.507,phx_ver10,2022.2.5,Win32,60.27364234,,,,,,,,,,,,106,testing_3,sh2x,au,sh2x_au,sh2x_8_auxau.wav,sh2x_8_auxau.wav,,TRUE,FALSE,,,,,,,,,,,,,,f,0.6399,space,0.6889,,,,,,,,0,70,70,105,1,,
64747a8c5534905fb3f93e39,2023-06-16_19h28.45.507,phx_ver10,2022.2.5,Win32,60.27364234,,,,,,,,,,,,9,testing_1,zh2x,i,zh2x_i,zh2x_1_izhi.wav,zh2x_1_izhi_copy.wav,,TRUE,TRUE,,,,,,,,,,,,,,f,0.1522,space,0.2168,,,,,,,,0,71,71,8,1,,
64747a8c5534905fb3f93e39,2023-06-16_19h28.45.507,phx_ver10,2022.2.5,Win32,60.27364234,,,,,,,,,,,,14,testing_2,zh2x,ai,zh2x_ai,zh2x_8_aixai.wav,zh2x_8_aixai.wav,,TRUE,FALSE,,,,,,,,,,,,,,j,0.2356,space,0.4168,,,,,,,,0,72,72,13,1,,
64747a8c5534905fb3f93e39,2023-06-16_19h28.45.507,phx_ver10,2022.2.5,Win32,60.27364234,,,,,,,,,,,,141,testing_3,sh2j,i,sh2j_i,sh2j_1_ishi.wav,sh2j_1_ishi.wav,,TRUE,FALSE,,,,,,,,,,,,,,f,0.3381,space,0.4092,,,,,,,,0,73,73,140,1,,
64747a8c5534905fb3f93e39,2023-06-16_19h28.45.507,phx_ver10,2022.2.5,Win32,60.27364234,,,,,,,,,,,,135,testing_3,sh2j,e,sh2j_e,sh2j_1_eshe.wav,sh2j_8_eje.wav,,FALSE,FALSE,,,,,,,,,,,,,,j,0.2171,space,0.4003,,,,,,,,0,74,74,134,1,,
64747a8c5534905fb3f93e39,2023-06-16_19h28.45.507,phx_ver10,2022.2.5,Win32,60.27364234,,,,,,,,,,,,126,testing_3,sh2j,ai,sh2j_ai,sh2j_8_aijai.wav,sh2j_8_aijai.wav,,TRUE,FALSE,,,,,,,,,,,,,,f,0.2866,space,0.3676,,,,,,,,0,75,75,125,1,,
64747a8c5534905fb3f93e39,2023-06-16_19h28.45.507,phx_ver10,2022.2.5,Win32,60.27364234,,,,,,,,,,,,104,testing_3,sh2x,ai,sh2x_ai,sh2x_8_aixai.wav,sh2x_1_aishai.wav,,FALSE,FALSE,,,,,,,,,,,,,,f,0.2844,space,0.3505,,,,,,,,0,76,76,103,1,,
64747a8c5534905fb3f93e39,2023-06-16_19h28.45.507,phx_ver10,2022.2.5,Win32,60.27364234,,,,,,,,,,,,66,testing_3,zh2j,ei,zh2j_ei,zh2j_8_eijei.wav,zh2j_8_eijei.wav,,TRUE,FALSE,,,,,,,,,,,,,,f,0.1677,space,0.2183,,,,,,,,0,77,77,65,1,,
64747a8c5534905fb3f93e39,2023-06-16_19h28.45.507,phx_ver10,2022.2.5,Win32,60.27364234,,,,,,,,,,,,42,testing_3,zh2sh,ei,zh2sh_ei,zh2sh_8_eishei.wav,zh2sh_8_eishei.wav,,TRUE,FALSE,,,,,,,,,,,,,,j,1.1541,space,1.3248,,,,,,,,0,78,78,41,1,,
64747a8c5534905fb3f93e39,2023-06-16_19h28.45.507,phx_ver10,2022.2.5,Win32,60.27364234,,,,,,,,,,,,118,testing_3,sh2x,i,sh2x_i,sh2x_8_ixi.wav,sh2x_8_ixi.wav,,TRUE,FALSE,,,,,,,,,,,,,,f,0.3579,space,0.4396,,,,,,,,0,79,79,117,1,,
64747a8c5534905fb3f93e39,2023-06-16_19h28.45.507,phx_ver10,2022.2.5,Win32,60.27364234,,,,,,,,,,,,50,testing_3,zh2j,a,zh2j_a,zh2j_8_aja.wav,zh2j_8_aja.wav,,TRUE,FALSE,,,,,,,,,,,,,,f,0.2524,space,0.3006,,,,,,,,0,80,80,49,1,,
64747a8c5534905fb3f93e39,2023-06-16_19h28.45.507,phx_ver10,2022.2.5,Win32,60.27364234,,,,,,,,,,,,124,testing_3,sh2j,a,sh2j_a,sh2j_8_aja.wav,sh2j_1_asha.wav,,FALSE,FALSE,,,,,,,,,,,,,,j,1.2821,space,1.4856,,,,,,,,0,81,81,123,1,,
64747a8c5534905fb3f93e39,2023-06-16_19h28.45.507,phx_ver10,2022.2.5,Win32,60.27364234,,,,,,,,,,,,108,testing_3,sh2x,au,sh2x_au,sh2x_8_auxau.wav,sh2x_1_aushau.wav,,FALSE,FALSE,,,,,,,,,,,,,,f,0.1671,space,0.2335,,,,,,,,0,82,82,107,1,,
64747a8c5534905fb3f93e39,2023-06-16_19h28.45.507,phx_ver10,2022.2.5,Win32,60.27364234,,,,,,,,,,,,77,testing_3,j2x,ai,j2x_ai,j2x_1_aijai.wav,j2x_1_aijai.wav,,TRUE,FALSE,,,,,,,,,,,,,,j,0.6668,space,0.9008,,,,,,,,0,83,83,76,1,,
64747a8c5534905fb3f93e39,2023-06-16_19h28.45.507,phx_ver10,2022.2.5,Win32,60.27364234,,,,,,,,,,,,88,testing_3,j2x,e,j2x_e,j2x_8_exe.wav,j2x_1_eje.wav,,FALSE,FALSE,,,,,,,,,,,,,,j,0.6495,space,0.849,,,,,,,,0,84,84,87,1,,
64747a8c5534905fb3f93e39,2023-06-16_19h28.45.507,phx_ver10,2022.2.5,Win32,60.27364234,,,,,,,,,,,,68,testing_3,zh2j,ei,zh2j_ei,zh2j_8_eijei.wav,zh2j_1_eizhei.wav,,FALSE,FALSE,,,,,,,,,,,,,,f,0.2841,space,0.3672,,,,,,,,0,85,85,67,1,,
64747a8c5534905fb3f93e39,2023-06-16_19h28.45.507,phx_ver10,2022.2.5,Win32,60.27364234,,,,,,,,,,,,1,testing_1,zh2x,a,zh2x_a,zh2x_1_azha.wav,zh2x_1_azha_copy.wav,,TRUE,TRUE,,,,,,,,,,,,,,f,0.2336,space,0.3168,,,,,,,,0,86,86,0,1,,
64747a8c5534905fb3f93e39,2023-06-16_19h28.45.507,phx_ver10,2022.2.5,Win32,60.27364234,,,,,,,,,,,,38,testing_3,zh2sh,e,zh2sh_e,zh2sh_8_eshe.wav,zh2sh_8_eshe.wav,,TRUE,FALSE,,,,,,,,,,,,,,j,0.6033,space,0.8331,,,,,,,,0,87,87,37,1,,
64747a8c5534905fb3f93e39,2023-06-16_19h28.45.507,phx_ver10,2022.2.5,Win32,60.27364234,,,,,,,,,,,,83,testing_3,j2x,au,j2x_au,j2x_1_aujau.wav,j2x_8_auxau.wav,,FALSE,FALSE,,,,,,,,,,,,,,j,0.9677,space,1.2335,,,,,,,,0,88,88,82,1,,
64747a8c5534905fb3f93e39,2023-06-16_19h28.45.507,phx_ver10,2022.2.5,Win32,60.27364234,,,,,,,,,,,,40,testing_3,zh2sh,e,zh2sh_e,zh2sh_8_eshe.wav,zh2sh_1_ezhe.wav,,FALSE,FALSE,,,,,,,,,,,,,,f,0.739,space,0.9195,,,,,,,,0,89,89,39,1,,
64747a8c5534905fb3f93e39,2023-06-16_19h28.45.507,phx_ver10,2022.2.5,Win32,60.27364234,,,,,,,,,,,,97,testing_3,sh2x,a,sh2x_a,sh2x_1_asha.wav,sh2x_1_asha.wav,,TRUE,FALSE,,,,,,,,,,,,,,j,0.5009,space,0.7171,,,,,,,,0,90,90,96,1,,
64747a8c5534905fb3f93e39,2023-06-16_19h28.45.507,phx_ver10,2022.2.5,Win32,60.27364234,,,,,,,,,,,,125,testing_3,sh2j,ai,sh2j_ai,sh2j_1_aishai.wav,sh2j_1_aishai.wav,,TRUE,FALSE,,,,,,,,,,,,,,f,0.3505,space,0.5003,,,,,,,,0,91,91,124,1,,
64747a8c5534905fb3f93e39,2023-06-16_19h28.45.507,phx_ver10,2022.2.5,Win32,60.27364234,,,,,,,,,,,,46,testing_3,zh2sh,i,zh2sh_i,zh2sh_8_ishi.wav,zh2sh_8_ishi.wav,,TRUE,FALSE,,,,,,,,,,,,,,f,0.1706,space,0.2494,,,,,,,,0,92,92,45,1,,
64747a8c5534905fb3f93e39,2023-06-16_19h28.45.507,phx_ver10,2022.2.5,Win32,60.27364234,,,,,,,,,,,,2,testing_1,zh2x,a,zh2x_a,zh2x_8_axa.wav,zh2x_8_axa_copy.wav,,TRUE,TRUE,,,,,,,,,,,,,,f,0.2506,space,0.3374,,,,,,,,0,93,93,1,1,,
64747a8c5534905fb3f93e39,2023-06-16_19h28.45.507,phx_ver10,2022.2.5,Win32,60.27364234,,,,,,,,,,,,87,testing_3,j2x,e,j2x_e,j2x_1_eje.wav,j2x_8_exe.wav,,FALSE,FALSE,,,,,,,,,,,,,,j,0.3665,space,0.6175,,,,,,,,0,94,94,86,1,,
64747a8c5534905fb3f93e39,2023-06-16_19h28.45.507,phx_ver10,2022.2.5,Win32,60.27364234,,,,,,,,,,,,64,testing_3,zh2j,e,zh2j_e,zh2j_8_eje.wav,zh2j_1_ezhe.wav,,FALSE,FALSE,,,,,,,,,,,,,,f,0.2518,space,0.3208,,,,,,,,0,95,95,63,1,,
64747a8c5534905fb3f93e39,2023-06-16_19h28.45.507,phx_ver10,2022.2.5,Win32,60.27364234,,,,,,,,,,,,62,testing_3,zh2j,e,zh2j_e,zh2j_8_eje.wav,zh2j_8_eje.wav,,TRUE,FALSE,,,,,,,,,,,,,,f,0.2342,space,0.3,,,,,,,,0,96,96,61,1,,
64747a8c5534905fb3f93e39,2023-06-16_19h28.45.507,phx_ver10,2022.2.5,Win32,60.27364234,,,,,,,,,,,,109,testing_3,sh2x,e,sh2x_e,sh2x_1_eshe.wav,sh2x_1_eshe.wav,,TRUE,FALSE,,,,,,,,,,,,,,f,1.0825,space,1.1391,,,,,,,,0,97,97,108,1,,
64747a8c5534905fb3f93e39,2023-06-16_19h28.45.507,phx_ver10,2022.2.5,Win32,60.27364234,,,,,,,,,,,,37,testing_3,zh2sh,e,zh2sh_e,zh2sh_1_ezhe.wav,zh2sh_1_ezhe.wav,,TRUE,FALSE,,,,,,,,,,,,,,f,0.8357,space,0.8845,,,,,,,,0,98,98,36,1,,
64747a8c5534905fb3f93e39,2023-06-16_19h28.45.507,phx_ver10,2022.2.5,Win32,60.27364234,,,,,,,,,,,,94,testing_3,j2x,i,j2x_i,j2x_8_ixi.wav,j2x_8_ixi.wav,,TRUE,FALSE,,,,,,,,,,,,,,f,0.5187,space,0.583,,,,,,,,0,99,99,93,1,,
64747a8c5534905fb3f93e39,2023-06-16_19h28.45.507,phx_ver10,2022.2.5,Win32,60.27364234,,,,,,,,,,,,119,testing_3,sh2x,i,sh2x_i,sh2x_1_ishi.wav,sh2x_8_ixi.wav,,FALSE,FALSE,,,,,,,,,,,,,,j,0.0689,space,0.2666,,,,,,,,0,100,100,118,1,,
64747a8c5534905fb3f93e39,2023-06-16_19h28.45.507,phx_ver10,2022.2.5,Win32,60.27364234,,,,,,,,,,,,143,testing_3,sh2j,i,sh2j_i,sh2j_1_ishi.wav,sh2j_8_iji.wav,,FALSE,FALSE,,,,,,,,,,,,,,j,0.3372,space,0.5346,,,,,,,,0,101,101,142,1,,
64747a8c5534905fb3f93e39,2023-06-16_19h28.45.507,phx_ver10,2022.2.5,Win32,60.27364234,,,,,,,,,,,,71,testing_3,zh2j,i,zh2j_i,zh2j_1_izhi.wav,zh2j_8_iji.wav,,FALSE,FALSE,,,,,,,,,,,,,,f,0.3039,space,0.3669,,,,,,,,0,102,102,70,1,,
64747a8c5534905fb3f93e39,2023-06-16_19h28.45.507,phx_ver10,2022.2.5,Win32,60.27364234,,,,,,,,,,,,23,testing_2,zh2x,ei,zh2x_ei,zh2x_1_eizhei.wav,zh2x_8_eixei.wav,,FALSE,FALSE,,,,,,,,,,,,,,j,0.2504,space,0.4375,,,,,,,,0,103,103,22,1,,
64747a8c5534905fb3f93e39,2023-06-16_19h28.45.507,phx_ver10,2022.2.5,Win32,60.27364234,,,,,,,,,,,,92,testing_3,j2x,ei,j2x_ei,j2x_8_eixei.wav,j2x_1_eijei.wav,,FALSE,FALSE,,,,,,,,,,,,,,j,0.2041,space,0.3837,,,,,,,,0,104,104,91,1,,
64747a8c5534905fb3f93e39,2023-06-16_19h28.45.507,phx_ver10,2022.2.5,Win32,60.27364234,,,,,,,,,,,,105,testing_3,sh2x,au,sh2x_au,sh2x_1_aushau.wav,sh2x_1_aushau.wav,,TRUE,FALSE,,,,,,,,,,,,,,f,0.1838,space,0.2675,,,,,,,,0,105,105,104,1,,
64747a8c5534905fb3f93e39,2023-06-16_19h28.45.507,phx_ver10,2022.2.5,Win32,60.27364234,,,,,,,,,,,,122,testing_3,sh2j,a,sh2j_a,sh2j_8_aja.wav,sh2j_8_aja.wav,,TRUE,FALSE,,,,,,,,,,,,,,f,0.3419,space,0.4012,,,,,,,,0,106,106,121,1,,
64747a8c5534905fb3f93e39,2023-06-16_19h28.45.507,phx_ver10,2022.2.5,Win32,60.27364234,,,,,,,,,,,,36,testing_3,zh2sh,au,zh2sh_au,zh2sh_8_aushau.wav,zh2sh_1_auzhau.wav,,FALSE,FALSE,,,,,,,,,,,,,,j,0.1677,space,0.3673,,,,,,,,0,107,107,35,1,,
64747a8c5534905fb3f93e39,2023-06-16_19h28.45.507,phx_ver10,2022.2.5,Win32,60.27364234,,,,,,,,,,,,53,testing_3,zh2j,ai,zh2j_ai,zh2j_1_aizhai.wav,zh2j_1_aizhai.wav,,TRUE,FALSE,,,,,,,,,,,,,,f,0.1554,space,0.2195,,,,,,,,0,108,108,52,1,,
64747a8c5534905fb3f93e39,2023-06-16_19h28.45.507,phx_ver10,2022.2.5,Win32,60.27364234,,,,,,,,,,,,29,testing_3,zh2sh,ai,zh2sh_ai,zh2sh_1_aizhai.wav,zh2sh_1_aizhai.wav,,TRUE,FALSE,,,,,,,,,,,,,,f,0.0855,space,0.1459,,,,,,,,0,109,109,28,1,,
64747a8c5534905fb3f93e39,2023-06-16_19h28.45.507,phx_ver10,2022.2.5,Win32,60.27364234,,,,,,,,,,,,91,testing_3,j2x,ei,j2x_ei,j2x_1_eijei.wav,j2x_8_eixei.wav,,FALSE,FALSE,,,,,,,,,,,,,,j,0.1782,space,0.3614,,,,,,,,0,110,110,90,1,,
64747a8c5534905fb3f93e39,2023-06-16_19h28.45.507,phx_ver10,2022.2.5,Win32,60.27364234,,,,,,,,,,,,89,testing_3,j2x,ei,j2x_ei,j2x_1_eijei.wav,j2x_1_eijei.wav,,TRUE,FALSE,,,,,,,,,,,,,,f,0.0505,space,0.1167,,,,,,,,0,111,111,88,1,,
64747a8c5534905fb3f93e39,2023-06-16_19h28.45.507,phx_ver10,2022.2.5,Win32,60.27364234,,,,,,,,,,,,114,testing_3,sh2x,ei,sh2x_ei,sh2x_8_eixei.wav,sh2x_8_eixei.wav,,TRUE,FALSE,,,,,,,,,,,,,,f,0.3494,space,0.4165,,,,,,,,0,112,112,113,1,,
64747a8c5534905fb3f93e39,2023-06-16_19h28.45.507,phx_ver10,2022.2.5,Win32,60.27364234,,,,,,,,,,,,27,testing_3,zh2sh,a,zh2sh_a,zh2sh_1_azha.wav,zh2sh_8_asha.wav,,FALSE,FALSE,,,,,,,,,,,,,,j,0.1171,space,0.2834,,,,,,,,0,113,113,26,1,,
64747a8c5534905fb3f93e39,2023-06-16_19h28.45.507,phx_ver10,2022.2.5,Win32,60.27364234,,,,,,,,,,,,115,testing_3,sh2x,ei,sh2x_ei,sh2x_1_eishei.wav,sh2x_8_eixei.wav,,FALSE,FALSE,,,,,,,,,,,,,,f,0.0346,space,0.1022,,,,,,,,0,114,114,114,1,,
64747a8c5534905fb3f93e39,2023-06-16_19h28.45.507,phx_ver10,2022.2.5,Win32,60.27364234,,,,,,,,,,,,6,testing_1,zh2x,e,zh2x_e,zh2x_8_exe.wav,zh2x_8_exe_copy.wav,,TRUE,TRUE,,,,,,,,,,,,,,f,0.0513,space,0.1322,,,,,,,,0,115,115,5,1,,
64747a8c5534905fb3f93e39,2023-06-16_19h28.45.507,phx_ver10,2022.2.5,Win32,60.27364234,,,,,,,,,,,,72,testing_3,zh2j,i,zh2j_i,zh2j_8_iji.wav,zh2j_1_izhi.wav,,FALSE,FALSE,,,,,,,,,,,,,,f,0.1167,space,0.1836,,,,,,,,0,116,116,71,1,,
64747a8c5534905fb3f93e39,2023-06-16_19h28.45.507,phx_ver10,2022.2.5,Win32,60.27364234,,,,,,,,,,,,128,testing_3,sh2j,ai,sh2j_ai,sh2j_8_aijai.wav,sh2j_1_aishai.wav,,FALSE,FALSE,,,,,,,,,,,,,,j,0.067,space,0.2338,,,,,,,,0,117,117,127,1,,
64747a8c5534905fb3f93e39,2023-06-16_19h28.45.507,phx_ver10,2022.2.5,Win32,60.27364234,,,,,,,,,,,,33,testing_3,zh2sh,au,zh2sh_au,zh2sh_1_auzhau.wav,zh2sh_1_auzhau.wav,,TRUE,FALSE,,,,,,,,,,,,,,f,0.1678,space,0.2171,,,,,,,,0,118,118,32,1,,
64747a8c5534905fb3f93e39,2023-06-16_19h28.45.507,phx_ver10,2022.2.5,Win32,60.27364234,,,,,,,,,,,,111,testing_3,sh2x,e,sh2x_e,sh2x_1_eshe.wav,sh2x_8_exe.wav,,FALSE,FALSE,,,,,,,,,,,,,,f,0.0177,space,0.0676,,,,,,,,0,119,119,110,1,,
64747a8c5534905fb3f93e39,2023-06-16_19h28.45.507,phx_ver10,2022.2.5,Win32,60.27364234,,,,,,,,,,,,86,testing_3,j2x,e,j2x_e,j2x_8_exe.wav,j2x_8_exe.wav,,TRUE,FALSE,,,,,,,,,,,,,,f,0.7995,space,0.8704,,,,,,,,0,120,120,85,1,,
64747a8c5534905fb3f93e39,2023-06-16_19h28.45.507,phx_ver10,2022.2.5,Win32,60.27364234,,,,,,,,,,,,96,testing_3,j2x,i,j2x_i,j2x_8_ixi.wav,j2x_1_iji.wav,,FALSE,FALSE,,,,,,,,,,,,,,j,0.2369,space,0.4335,,,,,,,,0,121,121,95,1,,
64747a8c5534905fb3f93e39,2023-06-16_19h28.45.507,phx_ver10,2022.2.5,Win32,60.27364234,,,,,,,,,,,,58,testing_3,zh2j,au,zh2j_au,zh2j_8_aujau.wav,zh2j_8_aujau.wav,,TRUE,FALSE,,,,,,,,,,,,,,f,0.1573,space,0.201,,,,,,,,0,122,122,57,1,,
64747a8c5534905fb3f93e39,2023-06-16_19h28.45.507,phx_ver10,2022.2.5,Win32,60.27364234,,,,,,,,,,,,101,testing_3,sh2x,ai,sh2x_ai,sh2x_1_aishai.wav,sh2x_1_aishai.wav,,TRUE,FALSE,,,,,,,,,,,,,,f,0.0362,space,0.0843,,,,,,,,0,123,123,100,1,,
64747a8c5534905fb3f93e39,2023-06-16_19h28.45.507,phx_ver10,2022.2.5,Win32,60.27364234,,,,,,,,,,,,85,testing_3,j2x,e,j2x_e,j2x_1_eje.wav,j2x_1_eje.wav,,TRUE,FALSE,,,,,,,,,,,,,,f,0.2838,space,0.3231,,,,,,,,0,124,124,84,1,,
64747a8c5534905fb3f93e39,2023-06-16_19h28.45.507,phx_ver10,2022.2.5,Win32,60.27364234,,,,,,,,,,,,129,testing_3,sh2j,au,sh2j_au,sh2j_1_aushau.wav,sh2j_1_aushau.wav,,TRUE,FALSE,,,,,,,,,,,,,,j,0.8012,space,1.0164,,,,,,,,0,125,125,128,1,,
64747a8c5534905fb3f93e39,2023-06-16_19h28.45.507,phx_ver10,2022.2.5,Win32,60.27364234,,,,,,,,,,,,102,testing_3,sh2x,ai,sh2x_ai,sh2x_8_aixai.wav,sh2x_8_aixai.wav,,TRUE,FALSE,,,,,,,,,,,,,,f,0.534,space,0.5677,,,,,,,,0,126,126,101,1,,
64747a8c5534905fb3f93e39,2023-06-16_19h28.45.507,phx_ver10,2022.2.5,Win32,60.27364234,,,,,,,,,,,,79,testing_3,j2x,ai,j2x_ai,j2x_1_aijai.wav,j2x_8_aixai.wav,,FALSE,FALSE,,,,,,,,,,,,,,j,0.0849,space,0.2846,,,,,,,,0,127,127,78,1,,
64747a8c5534905fb3f93e39,2023-06-16_19h28.45.507,phx_ver10,2022.2.5,Win32,60.27364234,,,,,,,,,,,,17,testing_2,zh2x,au,zh2x_au,zh2x_1_auzhau.wav,zh2x_1_auzhau.wav,,TRUE,FALSE,,,,,,,,,,,,,,f,0.3535,space,0.434,,,,,,,,0,128,128,16,1,,
64747a8c5534905fb3f93e39,2023-06-16_19h28.45.507,phx_ver10,2022.2.5,Win32,60.27364234,,,,,,,,,,,,30,testing_3,zh2sh,ai,zh2sh_ai,zh2sh_8_aishai.wav,zh2sh_8_aishai.wav,,TRUE,FALSE,,,,,,,,,,,,,,f,0.1197,space,0.1902,,,,,,,,0,129,129,29,1,,
64747a8c5534905fb3f93e39,2023-06-16_19h28.45.507,phx_ver10,2022.2.5,Win32,60.27364234,,,,,,,,,,,,61,testing_3,zh2j,e,zh2j_e,zh2j_1_ezhe.wav,zh2j_1_ezhe.wav,,TRUE,FALSE,,,,,,,,,,,,,,f,0.1167,space,0.1555,,,,,,,,0,130,130,60,1,,
64747a8c5534905fb3f93e39,2023-06-16_19h28.45.507,phx_ver10,2022.2.5,Win32,60.27364234,,,,,,,,,,,,12,testing_1,zh2x,i,zh2x_i,zh2x_8_ixi.wav,zh2x_1_izhi.wav,,FALSE,TRUE,,,,,,,,,,,,,,j,0.4003,space,0.6002,,,,,,,,0,131,131,11,1,,
64747a8c5534905fb3f93e39,2023-06-16_19h28.45.507,phx_ver10,2022.2.5,Win32,60.27364234,,,,,,,,,,,,142,testing_3,sh2j,i,sh2j_i,sh2j_8_iji.wav,sh2j_8_iji.wav,,TRUE,FALSE,,,,,,,,,,,,,,f,0.5771,space,0.6332,,,,,,,,0,132,132,141,1,,
64747a8c5534905fb3f93e39,2023-06-16_19h28.45.507,phx_ver10,2022.2.5,Win32,60.27364234,,,,,,,,,,,,78,testing_3,j2x,ai,j2x_ai,j2x_8_aixai.wav,j2x_8_aixai.wav,,TRUE,FALSE,,,,,,,,,,,,,,f,66.4098,space,66.5703,,,,,,,,0,133,133,77,1,,
64747a8c5534905fb3f93e39,2023-06-16_19h28.45.507,phx_ver10,2022.2.5,Win32,60.27364234,,,,,,,,,,,,5,testing_1,zh2x,e,zh2x_e,zh2x_1_ezhe.wav,zh2x_1_ezhe_copy.wav,,TRUE,TRUE,,,,,,,,,,,,,,j,1.4229,space,1.5495,,,,,,,,0,134,134,4,1,,
64747a8c5534905fb3f93e39,2023-06-16_19h28.45.507,phx_ver10,2022.2.5,Win32,60.27364234,,,,,,,,,,,,48,testing_3,zh2sh,i,zh2sh_i,zh2sh_8_ishi.wav,zh2sh_1_izhi.wav,,FALSE,FALSE,,,,,,,,,,,,,,j,0.6833,space,0.8568,,,,,,,,0,135,135,47,1,,
64747a8c5534905fb3f93e39,2023-06-16_19h28.45.507,phx_ver10,2022.2.5,Win32,60.27364234,,,,,,,,,,,,15,testing_2,zh2x,ai,zh2x_ai,zh2x_1_aizhai.wav,zh2x_8_aixai.wav,,FALSE,FALSE,,,,,,,,,,,,,,j,0.5666,space,0.731,,,,,,,,0,136,136,14,1,,
64747a8c5534905fb3f93e39,2023-06-16_19h28.45.507,phx_ver10,2022.2.5,Win32,60.27364234,,,,,,,,,,,,55,testing_3,zh2j,ai,zh2j_ai,zh2j_1_aizhai.wav,zh2j_8_aijai.wav,,FALSE,FALSE,,,,,,,,,,,,,,f,0.7966,space,0.8338,,,,,,,,0,137,137,54,1,,
64747a8c5534905fb3f93e39,2023-06-16_19h28.45.507,phx_ver10,2022.2.5,Win32,60.27364234,,,,,,,,,,,,65,testing_3,zh2j,ei,zh2j_ei,zh2j_1_eizhei.wav,zh2j_1_eizhei.wav,,TRUE,FALSE,,,,,,,,,,,,,,f,0.2504,space,0.2838,,,,,,,,0,138,138,64,1,,
64747a8c5534905fb3f93e39,2023-06-16_19h28.45.507,phx_ver10,2022.2.5,Win32,60.27364234,,,,,,,,,,,,67,testing_3,zh2j,ei,zh2j_ei,zh2j_1_eizhei.wav,zh2j_8_eijei.wav,,FALSE,FALSE,,,,,,,,,,,,,,f,0.1171,space,0.1514,,,,,,,,0,139,139,66,1,,
64747a8c5534905fb3f93e39,2023-06-16_19h28.45.507,phx_ver10,2022.2.5,Win32,60.27364234,,,,,,,,,,,,34,testing_3,zh2sh,au,zh2sh_au,zh2sh_8_aushau.wav,zh2sh_8_aushau.wav,,TRUE,FALSE,,,,,,,,,,,,,,f,0.1861,space,0.2345,,,,,,,,0,140,140,33,1,,
64747a8c5534905fb3f93e39,2023-06-16_19h28.45.507,phx_ver10,2022.2.5,Win32,60.27364234,,,,,,,,,,,,70,testing_3,zh2j,i,zh2j_i,zh2j_8_iji.wav,zh2j_8_iji.wav,,TRUE,FALSE,,,,,,,,,,,,,,f,0.0508,space,0.1005,,,,,,,,0,141,141,69,1,,
64747a8c5534905fb3f93e39,2023-06-16_19h28.45.507,phx_ver10,2022.2.5,Win32,60.27364234,,,,,,,,,,,,100,testing_3,sh2x,a,sh2x_a,sh2x_8_axa.wav,sh2x_1_asha.wav,,FALSE,FALSE,,,,,,,,,,,,,,f,0.5496,space,0.6306,,,,,,,,0,142,142,99,1,,
64747a8c5534905fb3f93e39,2023-06-16_19h28.45.507,phx_ver10,2022.2.5,Win32,60.27364234,,,,,,,,,,,,63,testing_3,zh2j,e,zh2j_e,zh2j_1_ezhe.wav,zh2j_8_eje.wav,,FALSE,FALSE,,,,,,,,,,,,,,j,0.3333,space,0.5331,,,,,,,,0,143,143,62,1,,
64747a8c5534905fb3f93e39,2023-06-16_19h28.45.507,phx_ver10,2022.2.5,Win32,60.27364234,,,,,,,,,,,,,,,,,,,,,,,,,,,,,,,,,,,,,,,,,,,,,,,,,,,space,3.9331
