participant,date,expName,psychopyVersion,OS,frameRate,space_1.keys,space_1.rt,space_2.keys,space_2.rt,space_train.keys,space_train.rt,training.thisRepN,training.thisTrialN,training.thisN,training.thisIndex,training.ran,token_id,task,continuum,vowel,series,sound_1,sound_2,img,same,trained,FJ_attn.keys,FJ_attn.rt,space_attn.keys,space_attn.rt,if_attn_test.thisRepN,if_attn_test.thisTrialN,if_attn_test.thisN,if_attn_test.thisIndex,if_attn_test.ran,space_trans_1.keys,space_trans_1.rt,space_trans_11.keys,space_trans_11.rt,FJ_test.keys,FJ_test.rt,space_test.keys,space_test.rt,testing_pre.thisRepN,testing_pre.thisTrialN,testing_pre.thisN,testing_pre.thisIndex,testing_pre.ran,space_trans_2.keys,space_trans_2.rt,testing_all.thisRepN,testing_all.thisTrialN,testing_all.thisN,testing_all.thisIndex,testing_all.ran,space_ending.keys,space_ending.rt
648174282bcdf5119b9105ca,2023-06-16_10h13.44.677,phx_ver10,2022.2.5,Win32,59.59475566,,,,,,,,,,,,,,,,,,,,,,,,,,,,,,,,,,,,,,,,,,,,,,,,,,,,
648174282bcdf5119b9105ca,2023-06-16_10h13.44.677,phx_ver10,2022.2.5,Win32,59.59475566,space,8.7672,,,,,,,,,,,,,,,,,,,,,,,,,,,,,,,,,,,,,,,,,,,,,,,,,,
648174282bcdf5119b9105ca,2023-06-16_10h13.44.677,phx_ver10,2022.2.5,Win32,59.59475566,,,space,4.2837,,,,,,,,,,,,,,,,,,,,,,,,,,,,,,,,,,,,,,,,,,,,,,,,
648174282bcdf5119b9105ca,2023-06-16_10h13.44.677,phx_ver10,2022.2.5,Win32,59.59475566,,,,,space,2.0375,0,0,0,23,1,24,training,zh2x,e,zh2x_e,zh2x_4_ezhe.wav,,ezhe.jpg,,,,,,,,,,,,,,,,,,,,,,,,,,,,,,,,,
648174282bcdf5119b9105ca,2023-06-16_10h13.44.677,phx_ver10,2022.2.5,Win32,59.59475566,,,,,space,1.1854,0,1,1,24,1,25,training,zh2x,e,zh2x_e,zh2x_5_exe.wav,,exe.jpg,,,,,,,,,,,,,,,,,,,,,,,,,,,,,,,,,
648174282bcdf5119b9105ca,2023-06-16_10h13.44.677,phx_ver10,2022.2.5,Win32,59.59475566,,,,,space,2.766900001,0,2,2,13,1,14,training,zh2x,a,zh2x_a,zh2x_7_axa.wav,,axa.jpg,,,,,,,,,,,,,,,,,,,,,,,,,,,,,,,,,
648174282bcdf5119b9105ca,2023-06-16_10h13.44.677,phx_ver10,2022.2.5,Win32,59.59475566,,,,,space,1.9148,0,3,3,34,1,35,training,zh2x,i,zh2x_i,zh2x_2_izhi.wav,,izhi.jpg,,,,,,,,,,,,,,,,,,,,,,,,,,,,,,,,,
648174282bcdf5119b9105ca,2023-06-16_10h13.44.677,phx_ver10,2022.2.5,Win32,59.59475566,,,,,space,1.8855,0,4,4,30,1,31,training,zh2x,e,zh2x_e,zh2x_7_exe.wav,,exe.jpg,,,,,,,,,,,,,,,,,,,,,,,,,,,,,,,,,
648174282bcdf5119b9105ca,2023-06-16_10h13.44.677,phx_ver10,2022.2.5,Win32,59.59475566,,,,,space,0.9839,0,5,5,37,1,38,training,zh2x,i,zh2x_i,zh2x_3_izhi.wav,,izhi.jpg,,,,,,,,,,,,,,,,,,,,,,,,,,,,,,,,,
648174282bcdf5119b9105ca,2023-06-16_10h13.44.677,phx_ver10,2022.2.5,Win32,59.59475566,,,,,,,,,,,,,attn_test,,,,zh2x_1_izhi.wav,zh2x_8_ixi.wav,izhi.jpg,LEFT,,j,16.416,space,17.8634,0,0,0,0,1,,,,,,,,,,,,,,,,,,,,,,
648174282bcdf5119b9105ca,2023-06-16_10h13.44.677,phx_ver10,2022.2.5,Win32,59.59475566,,,,,space,2.267400001,0,6,6,43,1,44,training,zh2x,i,zh2x_i,zh2x_7_ixi.wav,,ixi.jpg,,,,,,,,,,,,,,,,,,,,,,,,,,,,,,,,,
648174282bcdf5119b9105ca,2023-06-16_10h13.44.677,phx_ver10,2022.2.5,Win32,59.59475566,,,,,space,1.2023,0,7,7,33,1,34,training,zh2x,i,zh2x_i,zh2x_2_izhi.wav,,izhi.jpg,,,,,,,,,,,,,,,,,,,,,,,,,,,,,,,,,
648174282bcdf5119b9105ca,2023-06-16_10h13.44.677,phx_ver10,2022.2.5,Win32,59.59475566,,,,,space,1.1877,0,8,8,15,1,16,training,zh2x,a,zh2x_a,zh2x_8_axa.wav,,axa.jpg,,,,,,,,,,,,,,,,,,,,,,,,,,,,,,,,,
648174282bcdf5119b9105ca,2023-06-16_10h13.44.677,phx_ver10,2022.2.5,Win32,59.59475566,,,,,space,0.6263,0,9,9,4,1,5,training,zh2x,a,zh2x_a,zh2x_2_azha.wav,,azha.jpg,,,,,,,,,,,,,,,,,,,,,,,,,,,,,,,,,
648174282bcdf5119b9105ca,2023-06-16_10h13.44.677,phx_ver10,2022.2.5,Win32,59.59475566,,,,,space,0.2575,0,10,10,3,1,4,training,zh2x,a,zh2x_a,zh2x_2_azha.wav,,azha.jpg,,,,,,,,,,,,,,,,,,,,,,,,,,,,,,,,,
648174282bcdf5119b9105ca,2023-06-16_10h13.44.677,phx_ver10,2022.2.5,Win32,59.59475566,,,,,space,0.4358,0,11,11,11,1,12,training,zh2x,a,zh2x_a,zh2x_7_axa.wav,,axa.jpg,,,,,,,,,,,,,,,,,,,,,,,,,,,,,,,,,
648174282bcdf5119b9105ca,2023-06-16_10h13.44.677,phx_ver10,2022.2.5,Win32,59.59475566,,,,,,,,,,,,,attn_test,,,,zh2x_8_ixi.wav,zh2x_1_izhi.wav,ixi.jpg,LEFT,,f,1.8175,space,3.1837,0,0,0,0,1,,,,,,,,,,,,,,,,,,,,,,
648174282bcdf5119b9105ca,2023-06-16_10h13.44.677,phx_ver10,2022.2.5,Win32,59.59475566,,,,,space,1.3171,0,12,12,32,1,33,training,zh2x,i,zh2x_i,zh2x_1_izhi.wav,,izhi.jpg,,,,,,,,,,,,,,,,,,,,,,,,,,,,,,,,,
648174282bcdf5119b9105ca,2023-06-16_10h13.44.677,phx_ver10,2022.2.5,Win32,59.59475566,,,,,space,1.0954,0,13,13,1,1,2,training,zh2x,a,zh2x_a,zh2x_2_azha.wav,,azha.jpg,,,,,,,,,,,,,,,,,,,,,,,,,,,,,,,,,
648174282bcdf5119b9105ca,2023-06-16_10h13.44.677,phx_ver10,2022.2.5,Win32,59.59475566,,,,,space,0.5443,0,14,14,2,1,3,training,zh2x,a,zh2x_a,zh2x_2_azha.wav,,azha.jpg,,,,,,,,,,,,,,,,,,,,,,,,,,,,,,,,,
648174282bcdf5119b9105ca,2023-06-16_10h13.44.677,phx_ver10,2022.2.5,Win32,59.59475566,,,,,space,0.8072,0,15,15,16,1,17,training,zh2x,e,zh2x_e,zh2x_1_ezhe.wav,,ezhe.jpg,,,,,,,,,,,,,,,,,,,,,,,,,,,,,,,,,
648174282bcdf5119b9105ca,2023-06-16_10h13.44.677,phx_ver10,2022.2.5,Win32,59.59475566,,,,,space,0.4704,0,16,16,31,1,32,training,zh2x,e,zh2x_e,zh2x_8_exe.wav,,exe.jpg,,,,,,,,,,,,,,,,,,,,,,,,,,,,,,,,,
648174282bcdf5119b9105ca,2023-06-16_10h13.44.677,phx_ver10,2022.2.5,Win32,59.59475566,,,,,space,1.293900001,0,17,17,9,1,10,training,zh2x,a,zh2x_a,zh2x_6_axa.wav,,axa.jpg,,,,,,,,,,,,,,,,,,,,,,,,,,,,,,,,,
648174282bcdf5119b9105ca,2023-06-16_10h13.44.677,phx_ver10,2022.2.5,Win32,59.59475566,,,,,,,,,,,,,attn_test,,,,zh2x_1_ezhe.wav,zh2x_1_azha.wav,ezhe.jpg,LEFT,,f,2.0023,space,3.4341,0,0,0,0,1,,,,,,,,,,,,,,,,,,,,,,
648174282bcdf5119b9105ca,2023-06-16_10h13.44.677,phx_ver10,2022.2.5,Win32,59.59475566,,,,,space,1.439200001,0,18,18,28,1,29,training,zh2x,e,zh2x_e,zh2x_7_exe.wav,,exe.jpg,,,,,,,,,,,,,,,,,,,,,,,,,,,,,,,,,
648174282bcdf5119b9105ca,2023-06-16_10h13.44.677,phx_ver10,2022.2.5,Win32,59.59475566,,,,,space,1.0003,0,19,19,25,1,26,training,zh2x,e,zh2x_e,zh2x_6_exe.wav,,exe.jpg,,,,,,,,,,,,,,,,,,,,,,,,,,,,,,,,,
648174282bcdf5119b9105ca,2023-06-16_10h13.44.677,phx_ver10,2022.2.5,Win32,59.59475566,,,,,space,1.8483,0,20,20,14,1,15,training,zh2x,a,zh2x_a,zh2x_7_axa.wav,,axa.jpg,,,,,,,,,,,,,,,,,,,,,,,,,,,,,,,,,
648174282bcdf5119b9105ca,2023-06-16_10h13.44.677,phx_ver10,2022.2.5,Win32,59.59475566,,,,,space,0.6989,0,21,21,47,1,48,training,zh2x,i,zh2x_i,zh2x_8_ixi.wav,,ixi.jpg,,,,,,,,,,,,,,,,,,,,,,,,,,,,,,,,,
648174282bcdf5119b9105ca,2023-06-16_10h13.44.677,phx_ver10,2022.2.5,Win32,59.59475566,,,,,space,0.989799999,0,22,22,10,1,11,training,zh2x,a,zh2x_a,zh2x_6_axa.wav,,axa.jpg,,,,,,,,,,,,,,,,,,,,,,,,,,,,,,,,,
648174282bcdf5119b9105ca,2023-06-16_10h13.44.677,phx_ver10,2022.2.5,Win32,59.59475566,,,,,space,0.5734,0,23,23,26,1,27,training,zh2x,e,zh2x_e,zh2x_6_exe.wav,,exe.jpg,,,,,,,,,,,,,,,,,,,,,,,,,,,,,,,,,
648174282bcdf5119b9105ca,2023-06-16_10h13.44.677,phx_ver10,2022.2.5,Win32,59.59475566,,,,,,,,,,,,,attn_test,,,,zh2x_1_izhi.wav,zh2x_8_exe.wav,exe.jpg,RIGHT,,j,0.8244,space,2.1279,0,0,0,0,1,,,,,,,,,,,,,,,,,,,,,,
648174282bcdf5119b9105ca,2023-06-16_10h13.44.677,phx_ver10,2022.2.5,Win32,59.59475566,,,,,space,1.6416,0,24,24,18,1,19,training,zh2x,e,zh2x_e,zh2x_2_ezhe.wav,,ezhe.jpg,,,,,,,,,,,,,,,,,,,,,,,,,,,,,,,,,
648174282bcdf5119b9105ca,2023-06-16_10h13.44.677,phx_ver10,2022.2.5,Win32,59.59475566,,,,,space,0.5922,0,25,25,20,1,21,training,zh2x,e,zh2x_e,zh2x_2_ezhe.wav,,ezhe.jpg,,,,,,,,,,,,,,,,,,,,,,,,,,,,,,,,,
648174282bcdf5119b9105ca,2023-06-16_10h13.44.677,phx_ver10,2022.2.5,Win32,59.59475566,,,,,space,0.4646,0,26,26,39,1,40,training,zh2x,i,zh2x_i,zh2x_4_izhi.wav,,izhi.jpg,,,,,,,,,,,,,,,,,,,,,,,,,,,,,,,,,
648174282bcdf5119b9105ca,2023-06-16_10h13.44.677,phx_ver10,2022.2.5,Win32,59.59475566,,,,,space,0.368900001,0,27,27,7,1,8,training,zh2x,a,zh2x_a,zh2x_4_azha.wav,,azha.jpg,,,,,,,,,,,,,,,,,,,,,,,,,,,,,,,,,
648174282bcdf5119b9105ca,2023-06-16_10h13.44.677,phx_ver10,2022.2.5,Win32,59.59475566,,,,,space,0.3859,0,28,28,41,1,42,training,zh2x,i,zh2x_i,zh2x_6_ixi.wav,,ixi.jpg,,,,,,,,,,,,,,,,,,,,,,,,,,,,,,,,,
648174282bcdf5119b9105ca,2023-06-16_10h13.44.677,phx_ver10,2022.2.5,Win32,59.59475566,,,,,space,0.2189,0,29,29,35,1,36,training,zh2x,i,zh2x_i,zh2x_2_izhi.wav,,izhi.jpg,,,,,,,,,,,,,,,,,,,,,,,,,,,,,,,,,
648174282bcdf5119b9105ca,2023-06-16_10h13.44.677,phx_ver10,2022.2.5,Win32,59.59475566,,,,,,,,,,,,,attn_test,,,,zh2x_8_exe.wav,zh2x_1_izhi.wav,izhi.jpg,RIGHT,,j,0.3228,space,1.5598,0,0,0,0,1,,,,,,,,,,,,,,,,,,,,,,
648174282bcdf5119b9105ca,2023-06-16_10h13.44.677,phx_ver10,2022.2.5,Win32,59.59475566,,,,,space,0.441,0,30,30,29,1,30,training,zh2x,e,zh2x_e,zh2x_7_exe.wav,,exe.jpg,,,,,,,,,,,,,,,,,,,,,,,,,,,,,,,,,
648174282bcdf5119b9105ca,2023-06-16_10h13.44.677,phx_ver10,2022.2.5,Win32,59.59475566,,,,,space,0.769799999,0,31,31,44,1,45,training,zh2x,i,zh2x_i,zh2x_7_ixi.wav,,ixi.jpg,,,,,,,,,,,,,,,,,,,,,,,,,,,,,,,,,
648174282bcdf5119b9105ca,2023-06-16_10h13.44.677,phx_ver10,2022.2.5,Win32,59.59475566,,,,,space,0.6008,0,32,32,17,1,18,training,zh2x,e,zh2x_e,zh2x_2_ezhe.wav,,ezhe.jpg,,,,,,,,,,,,,,,,,,,,,,,,,,,,,,,,,
648174282bcdf5119b9105ca,2023-06-16_10h13.44.677,phx_ver10,2022.2.5,Win32,59.59475566,,,,,space,0.4429,0,33,33,22,1,23,training,zh2x,e,zh2x_e,zh2x_3_ezhe.wav,,ezhe.jpg,,,,,,,,,,,,,,,,,,,,,,,,,,,,,,,,,
648174282bcdf5119b9105ca,2023-06-16_10h13.44.677,phx_ver10,2022.2.5,Win32,59.59475566,,,,,space,0.205099999,0,34,34,42,1,43,training,zh2x,i,zh2x_i,zh2x_6_ixi.wav,,ixi.jpg,,,,,,,,,,,,,,,,,,,,,,,,,,,,,,,,,
648174282bcdf5119b9105ca,2023-06-16_10h13.44.677,phx_ver10,2022.2.5,Win32,59.59475566,,,,,space,1.1485,0,35,35,46,1,47,training,zh2x,i,zh2x_i,zh2x_7_ixi.wav,,ixi.jpg,,,,,,,,,,,,,,,,,,,,,,,,,,,,,,,,,
648174282bcdf5119b9105ca,2023-06-16_10h13.44.677,phx_ver10,2022.2.5,Win32,59.59475566,,,,,,,,,,,,,attn_test,,,,zh2x_8_axa.wav,zh2x_1_ezhe.wav,ezhe.jpg,RIGHT,,j,1.7602,space,2.799900001,0,0,0,0,1,,,,,,,,,,,,,,,,,,,,,,
648174282bcdf5119b9105ca,2023-06-16_10h13.44.677,phx_ver10,2022.2.5,Win32,59.59475566,,,,,space,0.9203,0,36,36,8,1,9,training,zh2x,a,zh2x_a,zh2x_5_axa.wav,,axa.jpg,,,,,,,,,,,,,,,,,,,,,,,,,,,,,,,,,
648174282bcdf5119b9105ca,2023-06-16_10h13.44.677,phx_ver10,2022.2.5,Win32,59.59475566,,,,,space,1.0444,0,37,37,0,1,1,training,zh2x,a,zh2x_a,zh2x_1_azha.wav,,azha.jpg,,,,,,,,,,,,,,,,,,,,,,,,,,,,,,,,,
648174282bcdf5119b9105ca,2023-06-16_10h13.44.677,phx_ver10,2022.2.5,Win32,59.59475566,,,,,space,0.3043,0,38,38,12,1,13,training,zh2x,a,zh2x_a,zh2x_7_axa.wav,,axa.jpg,,,,,,,,,,,,,,,,,,,,,,,,,,,,,,,,,
648174282bcdf5119b9105ca,2023-06-16_10h13.44.677,phx_ver10,2022.2.5,Win32,59.59475566,,,,,space,0.436599999,0,39,39,19,1,20,training,zh2x,e,zh2x_e,zh2x_2_ezhe.wav,,ezhe.jpg,,,,,,,,,,,,,,,,,,,,,,,,,,,,,,,,,
648174282bcdf5119b9105ca,2023-06-16_10h13.44.677,phx_ver10,2022.2.5,Win32,59.59475566,,,,,space,0.1339,0,40,40,38,1,39,training,zh2x,i,zh2x_i,zh2x_3_izhi.wav,,izhi.jpg,,,,,,,,,,,,,,,,,,,,,,,,,,,,,,,,,
648174282bcdf5119b9105ca,2023-06-16_10h13.44.677,phx_ver10,2022.2.5,Win32,59.59475566,,,,,space,0.0435,0,41,41,6,1,7,training,zh2x,a,zh2x_a,zh2x_3_azha.wav,,azha.jpg,,,,,,,,,,,,,,,,,,,,,,,,,,,,,,,,,
648174282bcdf5119b9105ca,2023-06-16_10h13.44.677,phx_ver10,2022.2.5,Win32,59.59475566,,,,,,,,,,,,,attn_test,,,,zh2x_8_axa.wav,zh2x_8_exe.wav,axa.jpg,LEFT,,f,0.3716,space,1.7549,0,0,0,0,1,,,,,,,,,,,,,,,,,,,,,,
648174282bcdf5119b9105ca,2023-06-16_10h13.44.677,phx_ver10,2022.2.5,Win32,59.59475566,,,,,space,0.3699,0,42,42,45,1,46,training,zh2x,i,zh2x_i,zh2x_7_ixi.wav,,ixi.jpg,,,,,,,,,,,,,,,,,,,,,,,,,,,,,,,,,
648174282bcdf5119b9105ca,2023-06-16_10h13.44.677,phx_ver10,2022.2.5,Win32,59.59475566,,,,,space,1.8995,0,43,43,5,1,6,training,zh2x,a,zh2x_a,zh2x_3_azha.wav,,azha.jpg,,,,,,,,,,,,,,,,,,,,,,,,,,,,,,,,,
648174282bcdf5119b9105ca,2023-06-16_10h13.44.677,phx_ver10,2022.2.5,Win32,59.59475566,,,,,space,0.2595,0,44,44,27,1,28,training,zh2x,e,zh2x_e,zh2x_7_exe.wav,,exe.jpg,,,,,,,,,,,,,,,,,,,,,,,,,,,,,,,,,
648174282bcdf5119b9105ca,2023-06-16_10h13.44.677,phx_ver10,2022.2.5,Win32,59.59475566,,,,,space,0.0842,0,45,45,36,1,37,training,zh2x,i,zh2x_i,zh2x_2_izhi.wav,,izhi.jpg,,,,,,,,,,,,,,,,,,,,,,,,,,,,,,,,,
648174282bcdf5119b9105ca,2023-06-16_10h13.44.677,phx_ver10,2022.2.5,Win32,59.59475566,,,,,space,0.505,0,46,46,21,1,22,training,zh2x,e,zh2x_e,zh2x_3_ezhe.wav,,ezhe.jpg,,,,,,,,,,,,,,,,,,,,,,,,,,,,,,,,,
648174282bcdf5119b9105ca,2023-06-16_10h13.44.677,phx_ver10,2022.2.5,Win32,59.59475566,,,,,space,0.2108,0,47,47,40,1,41,training,zh2x,i,zh2x_i,zh2x_5_ixi.wav,,ixi.jpg,,,,,,,,,,,,,,,,,,,,,,,,,,,,,,,,,
648174282bcdf5119b9105ca,2023-06-16_10h13.44.677,phx_ver10,2022.2.5,Win32,59.59475566,,,,,,,,,,,,,attn_test,,,,zh2x_1_azha.wav,zh2x_8_ixi.wav,ixi.jpg,RIGHT,,j,2.8737,space,5.2514,,,,,,,,,,,,,,,,,,,,,,,,,,,
648174282bcdf5119b9105ca,2023-06-16_10h13.44.677,phx_ver10,2022.2.5,Win32,59.59475566,,,,,,,,,,,,,,,,,,,,,,,,,,,,,,,space,2.0863,,,,,,,,,,,,,,,,,,,,
648174282bcdf5119b9105ca,2023-06-16_10h13.44.677,phx_ver10,2022.2.5,Win32,59.59475566,,,,,,,,,,,,,,,,,,,,,,,,,,,,,,,,,space,8.8395,,,,,,,,,,,,,,,,,,
648174282bcdf5119b9105ca,2023-06-16_10h13.44.677,phx_ver10,2022.2.5,Win32,59.59475566,,,,,,,,,,,,2,testing_pre,,,,auhau.wav,aufau.wav,,FALSE,,,,,,,,,,,,,,,j,2.142299999,space,3.3064,0,0,0,1,1,,,,,,,,,
648174282bcdf5119b9105ca,2023-06-16_10h13.44.677,phx_ver10,2022.2.5,Win32,59.59475566,,,,,,,,,,,,1,testing_pre,,,,ifi.wav,ifi.wav,,TRUE,,,,,,,,,,,,,,,f,1.108400001,space,2.06,0,1,1,0,1,,,,,,,,,
648174282bcdf5119b9105ca,2023-06-16_10h13.44.677,phx_ver10,2022.2.5,Win32,59.59475566,,,,,,,,,,,,3,testing_pre,,,,afa.wav,aha.wav,,FALSE,,,,,,,,,,,,,,,j,1.1385,space,1.9981,0,2,2,2,1,,,,,,,,,
648174282bcdf5119b9105ca,2023-06-16_10h13.44.677,phx_ver10,2022.2.5,Win32,59.59475566,,,,,,,,,,,,4,testing_pre,,,,eihei.wav,eihei.wav,,TRUE,,,,,,,,,,,,,,,f,0.581799999,space,1.4419,0,3,3,3,1,,,,,,,,,
648174282bcdf5119b9105ca,2023-06-16_10h13.44.677,phx_ver10,2022.2.5,Win32,59.59475566,,,,,,,,,,,,5,testing_pre,,,,ihi.wav,ifi.wav,,FALSE,,,,,,,,,,,,,,,j,0.6705,space,1.701799999,0,4,4,4,1,,,,,,,,,
648174282bcdf5119b9105ca,2023-06-16_10h13.44.677,phx_ver10,2022.2.5,Win32,59.59475566,,,,,,,,,,,,,,,,,,,,,,,,,,,,,,,,,,,,,,,,,,,,space,1.8362,,,,,,,
648174282bcdf5119b9105ca,2023-06-16_10h13.44.677,phx_ver10,2022.2.5,Win32,59.59475566,,,,,,,,,,,,50,testing_3,zh2j,a,zh2j_a,zh2j_8_aja.wav,zh2j_8_aja.wav,,TRUE,FALSE,,,,,,,,,,,,,,f,1.2841,space,2.053400001,,,,,,,,0,0,0,49,1,,
648174282bcdf5119b9105ca,2023-06-16_10h13.44.677,phx_ver10,2022.2.5,Win32,59.59475566,,,,,,,,,,,,105,testing_3,sh2x,au,sh2x_au,sh2x_1_aushau.wav,sh2x_1_aushau.wav,,TRUE,FALSE,,,,,,,,,,,,,,f,1.107799999,space,1.6927,,,,,,,,0,1,1,104,1,,
648174282bcdf5119b9105ca,2023-06-16_10h13.44.677,phx_ver10,2022.2.5,Win32,59.59475566,,,,,,,,,,,,143,testing_3,sh2j,i,sh2j_i,sh2j_1_ishi.wav,sh2j_8_iji.wav,,FALSE,FALSE,,,,,,,,,,,,,,j,1.8195,space,2.4681,,,,,,,,0,2,2,142,1,,
648174282bcdf5119b9105ca,2023-06-16_10h13.44.677,phx_ver10,2022.2.5,Win32,59.59475566,,,,,,,,,,,,83,testing_3,j2x,au,j2x_au,j2x_1_aujau.wav,j2x_8_auxau.wav,,FALSE,FALSE,,,,,,,,,,,,,,j,0.6108,space,1.4317,,,,,,,,0,3,3,82,1,,
648174282bcdf5119b9105ca,2023-06-16_10h13.44.677,phx_ver10,2022.2.5,Win32,59.59475566,,,,,,,,,,,,5,testing_1,zh2x,e,zh2x_e,zh2x_1_ezhe.wav,zh2x_1_ezhe_copy.wav,,TRUE,TRUE,,,,,,,,,,,,,,f,0.4348,space,1.125900001,,,,,,,,0,4,4,4,1,,
648174282bcdf5119b9105ca,2023-06-16_10h13.44.677,phx_ver10,2022.2.5,Win32,59.59475566,,,,,,,,,,,,65,testing_3,zh2j,ei,zh2j_ei,zh2j_1_eizhei.wav,zh2j_1_eizhei.wav,,TRUE,FALSE,,,,,,,,,,,,,,f,0.7098,space,1.3842,,,,,,,,0,5,5,64,1,,
648174282bcdf5119b9105ca,2023-06-16_10h13.44.677,phx_ver10,2022.2.5,Win32,59.59475566,,,,,,,,,,,,92,testing_3,j2x,ei,j2x_ei,j2x_8_eixei.wav,j2x_1_eijei.wav,,FALSE,FALSE,,,,,,,,,,,,,,j,1.3867,space,1.9227,,,,,,,,0,6,6,91,1,,
648174282bcdf5119b9105ca,2023-06-16_10h13.44.677,phx_ver10,2022.2.5,Win32,59.59475566,,,,,,,,,,,,60,testing_3,zh2j,au,zh2j_au,zh2j_8_aujau.wav,zh2j_1_auzhau.wav,,FALSE,FALSE,,,,,,,,,,,,,,f,0.8387,space,1.4712,,,,,,,,0,7,7,59,1,,
648174282bcdf5119b9105ca,2023-06-16_10h13.44.677,phx_ver10,2022.2.5,Win32,59.59475566,,,,,,,,,,,,80,testing_3,j2x,ai,j2x_ai,j2x_8_aixai.wav,j2x_1_aijai.wav,,FALSE,FALSE,,,,,,,,,,,,,,j,1.1244,space,1.8357,,,,,,,,0,8,8,79,1,,
648174282bcdf5119b9105ca,2023-06-16_10h13.44.677,phx_ver10,2022.2.5,Win32,59.59475566,,,,,,,,,,,,38,testing_3,zh2sh,e,zh2sh_e,zh2sh_8_eshe.wav,zh2sh_8_eshe.wav,,TRUE,FALSE,,,,,,,,,,,,,,f,0.4117,space,1.084099999,,,,,,,,0,9,9,37,1,,
648174282bcdf5119b9105ca,2023-06-16_10h13.44.677,phx_ver10,2022.2.5,Win32,59.59475566,,,,,,,,,,,,56,testing_3,zh2j,ai,zh2j_ai,zh2j_8_aijai.wav,zh2j_1_aizhai.wav,,FALSE,FALSE,,,,,,,,,,,,,,f,0.6672,space,1.252,,,,,,,,0,10,10,55,1,,
648174282bcdf5119b9105ca,2023-06-16_10h13.44.677,phx_ver10,2022.2.5,Win32,59.59475566,,,,,,,,,,,,59,testing_3,zh2j,au,zh2j_au,zh2j_1_auzhau.wav,zh2j_8_aujau.wav,,FALSE,FALSE,,,,,,,,,,,,,,f,0.5622,space,1.0671,,,,,,,,0,11,11,58,1,,
648174282bcdf5119b9105ca,2023-06-16_10h13.44.677,phx_ver10,2022.2.5,Win32,59.59475566,,,,,,,,,,,,10,testing_1,zh2x,i,zh2x_i,zh2x_8_ixi.wav,zh2x_8_ixi_copy.wav,,TRUE,TRUE,,,,,,,,,,,,,,f,0.8828,space,1.361,,,,,,,,0,12,12,9,1,,
648174282bcdf5119b9105ca,2023-06-16_10h13.44.677,phx_ver10,2022.2.5,Win32,59.59475566,,,,,,,,,,,,1,testing_1,zh2x,a,zh2x_a,zh2x_1_azha.wav,zh2x_1_azha_copy.wav,,TRUE,TRUE,,,,,,,,,,,,,,j,1.8202,space,2.4199,,,,,,,,0,13,13,0,1,,
648174282bcdf5119b9105ca,2023-06-16_10h13.44.677,phx_ver10,2022.2.5,Win32,59.59475566,,,,,,,,,,,,51,testing_3,zh2j,a,zh2j_a,zh2j_1_azha.wav,zh2j_8_aja.wav,,FALSE,FALSE,,,,,,,,,,,,,,f,2.158,space,2.8405,,,,,,,,0,14,14,50,1,,
648174282bcdf5119b9105ca,2023-06-16_10h13.44.677,phx_ver10,2022.2.5,Win32,59.59475566,,,,,,,,,,,,123,testing_3,sh2j,a,sh2j_a,sh2j_1_asha.wav,sh2j_8_aja.wav,,FALSE,FALSE,,,,,,,,,,,,,,j,0.616900001,space,1.0341,,,,,,,,0,15,15,122,1,,
648174282bcdf5119b9105ca,2023-06-16_10h13.44.677,phx_ver10,2022.2.5,Win32,59.59475566,,,,,,,,,,,,85,testing_3,j2x,e,j2x_e,j2x_1_eje.wav,j2x_1_eje.wav,,TRUE,FALSE,,,,,,,,,,,,,,f,1.5334,space,1.9574,,,,,,,,0,16,16,84,1,,
648174282bcdf5119b9105ca,2023-06-16_10h13.44.677,phx_ver10,2022.2.5,Win32,59.59475566,,,,,,,,,,,,82,testing_3,j2x,au,j2x_au,j2x_8_auxau.wav,j2x_8_auxau.wav,,TRUE,FALSE,,,,,,,,,,,,,,f,0.5872,space,1.0331,,,,,,,,0,17,17,81,1,,
648174282bcdf5119b9105ca,2023-06-16_10h13.44.677,phx_ver10,2022.2.5,Win32,59.59475566,,,,,,,,,,,,71,testing_3,zh2j,i,zh2j_i,zh2j_1_izhi.wav,zh2j_8_iji.wav,,FALSE,FALSE,,,,,,,,,,,,,,f,1.9094,space,2.3092,,,,,,,,0,18,18,70,1,,
648174282bcdf5119b9105ca,2023-06-16_10h13.44.677,phx_ver10,2022.2.5,Win32,59.59475566,,,,,,,,,,,,34,testing_3,zh2sh,au,zh2sh_au,zh2sh_8_aushau.wav,zh2sh_8_aushau.wav,,TRUE,FALSE,,,,,,,,,,,,,,f,0.547799999,space,0.9469,,,,,,,,0,19,19,33,1,,
648174282bcdf5119b9105ca,2023-06-16_10h13.44.677,phx_ver10,2022.2.5,Win32,59.59475566,,,,,,,,,,,,12,testing_1,zh2x,i,zh2x_i,zh2x_8_ixi.wav,zh2x_1_izhi.wav,,FALSE,TRUE,,,,,,,,,,,,,,j,1.69,space,2.056,,,,,,,,0,20,20,11,1,,
648174282bcdf5119b9105ca,2023-06-16_10h13.44.677,phx_ver10,2022.2.5,Win32,59.59475566,,,,,,,,,,,,119,testing_3,sh2x,i,sh2x_i,sh2x_1_ishi.wav,sh2x_8_ixi.wav,,FALSE,FALSE,,,,,,,,,,,,,,f,0.6503,space,1.1092,,,,,,,,0,21,21,118,1,,
648174282bcdf5119b9105ca,2023-06-16_10h13.44.677,phx_ver10,2022.2.5,Win32,59.59475566,,,,,,,,,,,,135,testing_3,sh2j,e,sh2j_e,sh2j_1_eshe.wav,sh2j_8_eje.wav,,FALSE,FALSE,,,,,,,,,,,,,,j,0.7708,space,1.4328,,,,,,,,0,22,22,134,1,,
648174282bcdf5119b9105ca,2023-06-16_10h13.44.677,phx_ver10,2022.2.5,Win32,59.59475566,,,,,,,,,,,,20,testing_2,zh2x,au,zh2x_au,zh2x_8_auxau.wav,zh2x_1_auzhau.wav,,FALSE,FALSE,,,,,,,,,,,,,,j,0.6563,space,1.0411,,,,,,,,0,23,23,19,1,,
648174282bcdf5119b9105ca,2023-06-16_10h13.44.677,phx_ver10,2022.2.5,Win32,59.59475566,,,,,,,,,,,,68,testing_3,zh2j,ei,zh2j_ei,zh2j_8_eijei.wav,zh2j_1_eizhei.wav,,FALSE,FALSE,,,,,,,,,,,,,,f,0.7539,space,1.5186,,,,,,,,0,24,24,67,1,,
648174282bcdf5119b9105ca,2023-06-16_10h13.44.677,phx_ver10,2022.2.5,Win32,59.59475566,,,,,,,,,,,,101,testing_3,sh2x,ai,sh2x_ai,sh2x_1_aishai.wav,sh2x_1_aishai.wav,,TRUE,FALSE,,,,,,,,,,,,,,f,0.5709,space,1.0067,,,,,,,,0,25,25,100,1,,
648174282bcdf5119b9105ca,2023-06-16_10h13.44.677,phx_ver10,2022.2.5,Win32,59.59475566,,,,,,,,,,,,87,testing_3,j2x,e,j2x_e,j2x_1_eje.wav,j2x_8_exe.wav,,FALSE,FALSE,,,,,,,,,,,,,,j,2.0904,space,2.5774,,,,,,,,0,26,26,86,1,,
648174282bcdf5119b9105ca,2023-06-16_10h13.44.677,phx_ver10,2022.2.5,Win32,59.59475566,,,,,,,,,,,,9,testing_1,zh2x,i,zh2x_i,zh2x_1_izhi.wav,zh2x_1_izhi_copy.wav,,TRUE,TRUE,,,,,,,,,,,,,,f,0.7659,space,1.211,,,,,,,,0,27,27,8,1,,
648174282bcdf5119b9105ca,2023-06-16_10h13.44.677,phx_ver10,2022.2.5,Win32,59.59475566,,,,,,,,,,,,7,testing_1,zh2x,e,zh2x_e,zh2x_1_ezhe.wav,zh2x_8_exe.wav,,FALSE,TRUE,,,,,,,,,,,,,,j,0.3684,space,0.72,,,,,,,,0,28,28,6,1,,
648174282bcdf5119b9105ca,2023-06-16_10h13.44.677,phx_ver10,2022.2.5,Win32,59.59475566,,,,,,,,,,,,8,testing_1,zh2x,e,zh2x_e,zh2x_8_exe.wav,zh2x_1_ezhe.wav,,FALSE,TRUE,,,,,,,,,,,,,,j,0.867099999,space,1.2889,,,,,,,,0,29,29,7,1,,
648174282bcdf5119b9105ca,2023-06-16_10h13.44.677,phx_ver10,2022.2.5,Win32,59.59475566,,,,,,,,,,,,81,testing_3,j2x,au,j2x_au,j2x_1_aujau.wav,j2x_1_aujau.wav,,TRUE,FALSE,,,,,,,,,,,,,,f,0.9285,space,1.4938,,,,,,,,0,30,30,80,1,,
648174282bcdf5119b9105ca,2023-06-16_10h13.44.677,phx_ver10,2022.2.5,Win32,59.59475566,,,,,,,,,,,,130,testing_3,sh2j,au,sh2j_au,sh2j_8_aujau.wav,sh2j_8_aujau.wav,,TRUE,FALSE,,,,,,,,,,,,,,f,0.8533,space,1.325900001,,,,,,,,0,31,31,129,1,,
648174282bcdf5119b9105ca,2023-06-16_10h13.44.677,phx_ver10,2022.2.5,Win32,59.59475566,,,,,,,,,,,,24,testing_2,zh2x,ei,zh2x_ei,zh2x_8_eixei.wav,zh2x_1_eizhei.wav,,FALSE,FALSE,,,,,,,,,,,,,,j,0.735599999,space,1.1183,,,,,,,,0,32,32,23,1,,
648174282bcdf5119b9105ca,2023-06-16_10h13.44.677,phx_ver10,2022.2.5,Win32,59.59475566,,,,,,,,,,,,95,testing_3,j2x,i,j2x_i,j2x_1_iji.wav,j2x_8_ixi.wav,,FALSE,FALSE,,,,,,,,,,,,,,j,0.725900001,space,1.1153,,,,,,,,0,33,33,94,1,,
648174282bcdf5119b9105ca,2023-06-16_10h13.44.677,phx_ver10,2022.2.5,Win32,59.59475566,,,,,,,,,,,,28,testing_3,zh2sh,a,zh2sh_a,zh2sh_8_asha.wav,zh2sh_1_azha.wav,,FALSE,FALSE,,,,,,,,,,,,,,j,0.5693,space,0.9519,,,,,,,,0,34,34,27,1,,
648174282bcdf5119b9105ca,2023-06-16_10h13.44.677,phx_ver10,2022.2.5,Win32,59.59475566,,,,,,,,,,,,118,testing_3,sh2x,i,sh2x_i,sh2x_8_ixi.wav,sh2x_8_ixi.wav,,TRUE,FALSE,,,,,,,,,,,,,,f,0.3707,space,1.0353,,,,,,,,0,35,35,117,1,,
648174282bcdf5119b9105ca,2023-06-16_10h13.44.677,phx_ver10,2022.2.5,Win32,59.59475566,,,,,,,,,,,,30,testing_3,zh2sh,ai,zh2sh_ai,zh2sh_8_aishai.wav,zh2sh_8_aishai.wav,,TRUE,FALSE,,,,,,,,,,,,,,f,0.9228,space,2.452,,,,,,,,0,36,36,29,1,,
648174282bcdf5119b9105ca,2023-06-16_10h13.44.677,phx_ver10,2022.2.5,Win32,59.59475566,,,,,,,,,,,,58,testing_3,zh2j,au,zh2j_au,zh2j_8_aujau.wav,zh2j_8_aujau.wav,,TRUE,FALSE,,,,,,,,,,,,,,f,0.4393,space,0.8519,,,,,,,,0,37,37,57,1,,
648174282bcdf5119b9105ca,2023-06-16_10h13.44.677,phx_ver10,2022.2.5,Win32,59.59475566,,,,,,,,,,,,79,testing_3,j2x,ai,j2x_ai,j2x_1_aijai.wav,j2x_8_aixai.wav,,FALSE,FALSE,,,,,,,,,,,,,,j,0.4182,space,0.7782,,,,,,,,0,38,38,78,1,,
648174282bcdf5119b9105ca,2023-06-16_10h13.44.677,phx_ver10,2022.2.5,Win32,59.59475566,,,,,,,,,,,,37,testing_3,zh2sh,e,zh2sh_e,zh2sh_1_ezhe.wav,zh2sh_1_ezhe.wav,,TRUE,FALSE,,,,,,,,,,,,,,j,0.9839,space,1.2681,,,,,,,,0,39,39,36,1,,
648174282bcdf5119b9105ca,2023-06-16_10h13.44.677,phx_ver10,2022.2.5,Win32,59.59475566,,,,,,,,,,,,98,testing_3,sh2x,a,sh2x_a,sh2x_8_axa.wav,sh2x_8_axa.wav,,TRUE,FALSE,,,,,,,,,,,,,,f,0.3318,space,0.736,,,,,,,,0,40,40,97,1,,
648174282bcdf5119b9105ca,2023-06-16_10h13.44.677,phx_ver10,2022.2.5,Win32,59.59475566,,,,,,,,,,,,47,testing_3,zh2sh,i,zh2sh_i,zh2sh_1_izhi.wav,zh2sh_8_ishi.wav,,FALSE,FALSE,,,,,,,,,,,,,,j,0.2034,space,0.560299999,,,,,,,,0,41,41,46,1,,
648174282bcdf5119b9105ca,2023-06-16_10h13.44.677,phx_ver10,2022.2.5,Win32,59.59475566,,,,,,,,,,,,31,testing_3,zh2sh,ai,zh2sh_ai,zh2sh_1_aizhai.wav,zh2sh_8_aishai.wav,,FALSE,FALSE,,,,,,,,,,,,,,j,0.6078,space,0.9729,,,,,,,,0,42,42,30,1,,
648174282bcdf5119b9105ca,2023-06-16_10h13.44.677,phx_ver10,2022.2.5,Win32,59.59475566,,,,,,,,,,,,11,testing_1,zh2x,i,zh2x_i,zh2x_1_izhi.wav,zh2x_8_ixi.wav,,FALSE,TRUE,,,,,,,,,,,,,,j,0.250099999,space,0.6269,,,,,,,,0,43,43,10,1,,
648174282bcdf5119b9105ca,2023-06-16_10h13.44.677,phx_ver10,2022.2.5,Win32,59.59475566,,,,,,,,,,,,22,testing_2,zh2x,ei,zh2x_ei,zh2x_8_eixei.wav,zh2x_8_eixei.wav,,TRUE,FALSE,,,,,,,,,,,,,,j,0.117200001,space,0.635900001,,,,,,,,0,44,44,21,1,,
648174282bcdf5119b9105ca,2023-06-16_10h13.44.677,phx_ver10,2022.2.5,Win32,59.59475566,,,,,,,,,,,,19,testing_2,zh2x,au,zh2x_au,zh2x_1_auzhau.wav,zh2x_8_auxau.wav,,FALSE,FALSE,,,,,,,,,,,,,,j,0.3426,space,0.733400001,,,,,,,,0,45,45,18,1,,
648174282bcdf5119b9105ca,2023-06-16_10h13.44.677,phx_ver10,2022.2.5,Win32,59.59475566,,,,,,,,,,,,33,testing_3,zh2sh,au,zh2sh_au,zh2sh_1_auzhau.wav,zh2sh_1_auzhau.wav,,TRUE,FALSE,,,,,,,,,,,,,,f,0.4021,space,0.838400001,,,,,,,,0,46,46,32,1,,
648174282bcdf5119b9105ca,2023-06-16_10h13.44.677,phx_ver10,2022.2.5,Win32,59.59475566,,,,,,,,,,,,35,testing_3,zh2sh,au,zh2sh_au,zh2sh_1_auzhau.wav,zh2sh_8_aushau.wav,,FALSE,FALSE,,,,,,,,,,,,,,j,0.2434,space,0.6339,,,,,,,,0,47,47,34,1,,
648174282bcdf5119b9105ca,2023-06-16_10h13.44.677,phx_ver10,2022.2.5,Win32,59.59475566,,,,,,,,,,,,74,testing_3,j2x,a,j2x_a,j2x_8_axa.wav,j2x_8_axa.wav,,TRUE,FALSE,,,,,,,,,,,,,,f,1.5259,space,1.9373,,,,,,,,0,48,48,73,1,,
648174282bcdf5119b9105ca,2023-06-16_10h13.44.677,phx_ver10,2022.2.5,Win32,59.59475566,,,,,,,,,,,,106,testing_3,sh2x,au,sh2x_au,sh2x_8_auxau.wav,sh2x_8_auxau.wav,,TRUE,FALSE,,,,,,,,,,,,,,f,0.7912,space,1.2163,,,,,,,,0,49,49,105,1,,
648174282bcdf5119b9105ca,2023-06-16_10h13.44.677,phx_ver10,2022.2.5,Win32,59.59475566,,,,,,,,,,,,96,testing_3,j2x,i,j2x_i,j2x_8_ixi.wav,j2x_1_iji.wav,,FALSE,FALSE,,,,,,,,,,,,,,j,0.3168,space,0.700900001,,,,,,,,0,50,50,95,1,,
648174282bcdf5119b9105ca,2023-06-16_10h13.44.677,phx_ver10,2022.2.5,Win32,59.59475566,,,,,,,,,,,,138,testing_3,sh2j,ei,sh2j_ei,sh2j_8_eijei.wav,sh2j_8_eijei.wav,,TRUE,FALSE,,,,,,,,,,,,,,f,0.3345,space,0.754,,,,,,,,0,51,51,137,1,,
648174282bcdf5119b9105ca,2023-06-16_10h13.44.677,phx_ver10,2022.2.5,Win32,59.59475566,,,,,,,,,,,,17,testing_2,zh2x,au,zh2x_au,zh2x_1_auzhau.wav,zh2x_1_auzhau.wav,,TRUE,FALSE,,,,,,,,,,,,,,f,0.4513,space,0.838400001,,,,,,,,0,52,52,16,1,,
648174282bcdf5119b9105ca,2023-06-16_10h13.44.677,phx_ver10,2022.2.5,Win32,59.59475566,,,,,,,,,,,,49,testing_3,zh2j,a,zh2j_a,zh2j_1_azha.wav,zh2j_1_azha.wav,,TRUE,FALSE,,,,,,,,,,,,,,j,1.249900001,space,1.5175,,,,,,,,0,53,53,48,1,,
648174282bcdf5119b9105ca,2023-06-16_10h13.44.677,phx_ver10,2022.2.5,Win32,59.59475566,,,,,,,,,,,,36,testing_3,zh2sh,au,zh2sh_au,zh2sh_8_aushau.wav,zh2sh_1_auzhau.wav,,FALSE,FALSE,,,,,,,,,,,,,,j,0.4018,space,0.7351,,,,,,,,0,54,54,35,1,,
648174282bcdf5119b9105ca,2023-06-16_10h13.44.677,phx_ver10,2022.2.5,Win32,59.59475566,,,,,,,,,,,,43,testing_3,zh2sh,ei,zh2sh_ei,zh2sh_1_eizhei.wav,zh2sh_8_eishei.wav,,FALSE,FALSE,,,,,,,,,,,,,,j,0.4522,space,0.808900001,,,,,,,,0,55,55,42,1,,
648174282bcdf5119b9105ca,2023-06-16_10h13.44.677,phx_ver10,2022.2.5,Win32,59.59475566,,,,,,,,,,,,39,testing_3,zh2sh,e,zh2sh_e,zh2sh_1_ezhe.wav,zh2sh_8_eshe.wav,,FALSE,FALSE,,,,,,,,,,,,,,j,0.3848,space,0.6952,,,,,,,,0,56,56,38,1,,
648174282bcdf5119b9105ca,2023-06-16_10h13.44.677,phx_ver10,2022.2.5,Win32,59.59475566,,,,,,,,,,,,136,testing_3,sh2j,e,sh2j_e,sh2j_8_eje.wav,sh2j_1_eshe.wav,,FALSE,FALSE,,,,,,,,,,,,,,j,0.167700001,space,0.5082,,,,,,,,0,57,57,135,1,,
648174282bcdf5119b9105ca,2023-06-16_10h13.44.677,phx_ver10,2022.2.5,Win32,59.59475566,,,,,,,,,,,,2,testing_1,zh2x,a,zh2x_a,zh2x_8_axa.wav,zh2x_8_axa_copy.wav,,TRUE,TRUE,,,,,,,,,,,,,,f,0.367400001,space,0.8265,,,,,,,,0,58,58,1,1,,
648174282bcdf5119b9105ca,2023-06-16_10h13.44.677,phx_ver10,2022.2.5,Win32,59.59475566,,,,,,,,,,,,23,testing_2,zh2x,ei,zh2x_ei,zh2x_1_eizhei.wav,zh2x_8_eixei.wav,,FALSE,FALSE,,,,,,,,,,,,,,j,0.1017,space,0.3962,,,,,,,,0,59,59,22,1,,
648174282bcdf5119b9105ca,2023-06-16_10h13.44.677,phx_ver10,2022.2.5,Win32,59.59475566,,,,,,,,,,,,75,testing_3,j2x,a,j2x_a,j2x_1_aja.wav,j2x_8_axa.wav,,FALSE,FALSE,,,,,,,,,,,,,,j,0.175,space,0.5373,,,,,,,,0,60,60,74,1,,
648174282bcdf5119b9105ca,2023-06-16_10h13.44.677,phx_ver10,2022.2.5,Win32,59.59475566,,,,,,,,,,,,112,testing_3,sh2x,e,sh2x_e,sh2x_8_exe.wav,sh2x_1_eshe.wav,,FALSE,FALSE,,,,,,,,,,,,,,f,1.5203,space,1.8739,,,,,,,,0,61,61,111,1,,
648174282bcdf5119b9105ca,2023-06-16_10h13.44.677,phx_ver10,2022.2.5,Win32,59.59475566,,,,,,,,,,,,88,testing_3,j2x,e,j2x_e,j2x_8_exe.wav,j2x_1_eje.wav,,FALSE,FALSE,,,,,,,,,,,,,,j,0.2322,space,0.5917,,,,,,,,0,62,62,87,1,,
648174282bcdf5119b9105ca,2023-06-16_10h13.44.677,phx_ver10,2022.2.5,Win32,59.59475566,,,,,,,,,,,,93,testing_3,j2x,i,j2x_i,j2x_1_iji.wav,j2x_1_iji.wav,,TRUE,FALSE,,,,,,,,,,,,,,j,0.4595,space,0.800400001,,,,,,,,0,63,63,92,1,,
648174282bcdf5119b9105ca,2023-06-16_10h13.44.677,phx_ver10,2022.2.5,Win32,59.59475566,,,,,,,,,,,,108,testing_3,sh2x,au,sh2x_au,sh2x_8_auxau.wav,sh2x_1_aushau.wav,,FALSE,FALSE,,,,,,,,,,,,,,j,0.6692,space,1.0409,,,,,,,,0,64,64,107,1,,
648174282bcdf5119b9105ca,2023-06-16_10h13.44.677,phx_ver10,2022.2.5,Win32,59.59475566,,,,,,,,,,,,32,testing_3,zh2sh,ai,zh2sh_ai,zh2sh_8_aishai.wav,zh2sh_1_aizhai.wav,,FALSE,FALSE,,,,,,,,,,,,,,j,0.7933,space,1.1528,,,,,,,,0,65,65,31,1,,
648174282bcdf5119b9105ca,2023-06-16_10h13.44.677,phx_ver10,2022.2.5,Win32,59.59475566,,,,,,,,,,,,25,testing_3,zh2sh,a,zh2sh_a,zh2sh_1_azha.wav,zh2sh_1_azha.wav,,TRUE,FALSE,,,,,,,,,,,,,,f,0.809900001,space,1.2248,,,,,,,,0,66,66,24,1,,
648174282bcdf5119b9105ca,2023-06-16_10h13.44.677,phx_ver10,2022.2.5,Win32,59.59475566,,,,,,,,,,,,4,testing_1,zh2x,a,zh2x_a,zh2x_8_axa.wav,zh2x_1_azha.wav,,FALSE,TRUE,,,,,,,,,,,,,,j,0.287700001,space,0.6111,,,,,,,,0,67,67,3,1,,
648174282bcdf5119b9105ca,2023-06-16_10h13.44.677,phx_ver10,2022.2.5,Win32,59.59475566,,,,,,,,,,,,127,testing_3,sh2j,ai,sh2j_ai,sh2j_1_aishai.wav,sh2j_8_aijai.wav,,FALSE,FALSE,,,,,,,,,,,,,,j,0.6011,space,0.999,,,,,,,,0,68,68,126,1,,
648174282bcdf5119b9105ca,2023-06-16_10h13.44.677,phx_ver10,2022.2.5,Win32,59.59475566,,,,,,,,,,,,66,testing_3,zh2j,ei,zh2j_ei,zh2j_8_eijei.wav,zh2j_8_eijei.wav,,TRUE,FALSE,,,,,,,,,,,,,,f,0.3747,space,0.800299999,,,,,,,,0,69,69,65,1,,
648174282bcdf5119b9105ca,2023-06-16_10h13.44.677,phx_ver10,2022.2.5,Win32,59.59475566,,,,,,,,,,,,122,testing_3,sh2j,a,sh2j_a,sh2j_8_aja.wav,sh2j_8_aja.wav,,TRUE,FALSE,,,,,,,,,,,,,,f,0.353,space,0.7692,,,,,,,,0,70,70,121,1,,
648174282bcdf5119b9105ca,2023-06-16_10h13.44.677,phx_ver10,2022.2.5,Win32,59.59475566,,,,,,,,,,,,90,testing_3,j2x,ei,j2x_ei,j2x_8_eixei.wav,j2x_8_eixei.wav,,TRUE,FALSE,,,,,,,,,,,,,,f,0.5157,space,0.901,,,,,,,,0,71,71,89,1,,
648174282bcdf5119b9105ca,2023-06-16_10h13.44.677,phx_ver10,2022.2.5,Win32,59.59475566,,,,,,,,,,,,44,testing_3,zh2sh,ei,zh2sh_ei,zh2sh_8_eishei.wav,zh2sh_1_eizhei.wav,,FALSE,FALSE,,,,,,,,,,,,,,j,0.217900001,space,0.5836,,,,,,,,0,72,72,43,1,,
648174282bcdf5119b9105ca,2023-06-16_10h13.44.677,phx_ver10,2022.2.5,Win32,59.59475566,,,,,,,,,,,,57,testing_3,zh2j,au,zh2j_au,zh2j_1_auzhau.wav,zh2j_1_auzhau.wav,,TRUE,FALSE,,,,,,,,,,,,,,f,0.3117,space,0.7351,,,,,,,,0,73,73,56,1,,
648174282bcdf5119b9105ca,2023-06-16_10h13.44.677,phx_ver10,2022.2.5,Win32,59.59475566,,,,,,,,,,,,3,testing_1,zh2x,a,zh2x_a,zh2x_1_azha.wav,zh2x_8_axa.wav,,FALSE,TRUE,,,,,,,,,,,,,,j,0.173700001,space,0.5243,,,,,,,,0,74,74,2,1,,
648174282bcdf5119b9105ca,2023-06-16_10h13.44.677,phx_ver10,2022.2.5,Win32,59.59475566,,,,,,,,,,,,78,testing_3,j2x,ai,j2x_ai,j2x_8_aixai.wav,j2x_8_aixai.wav,,TRUE,FALSE,,,,,,,,,,,,,,f,0.3103,space,0.7087,,,,,,,,0,75,75,77,1,,
648174282bcdf5119b9105ca,2023-06-16_10h13.44.677,phx_ver10,2022.2.5,Win32,59.59475566,,,,,,,,,,,,27,testing_3,zh2sh,a,zh2sh_a,zh2sh_1_azha.wav,zh2sh_8_asha.wav,,FALSE,FALSE,,,,,,,,,,,,,,j,0.1538,space,0.5106,,,,,,,,0,76,76,26,1,,
648174282bcdf5119b9105ca,2023-06-16_10h13.44.677,phx_ver10,2022.2.5,Win32,59.59475566,,,,,,,,,,,,120,testing_3,sh2x,i,sh2x_i,sh2x_8_ixi.wav,sh2x_1_ishi.wav,,FALSE,FALSE,,,,,,,,,,,,,,j,0.367700001,space,0.8673,,,,,,,,0,77,77,119,1,,
648174282bcdf5119b9105ca,2023-06-16_10h13.44.677,phx_ver10,2022.2.5,Win32,59.59475566,,,,,,,,,,,,41,testing_3,zh2sh,ei,zh2sh_ei,zh2sh_1_eizhei.wav,zh2sh_1_eizhei.wav,,TRUE,FALSE,,,,,,,,,,,,,,f,0.4335,space,0.8683,,,,,,,,0,78,78,40,1,,
648174282bcdf5119b9105ca,2023-06-16_10h13.44.677,phx_ver10,2022.2.5,Win32,59.59475566,,,,,,,,,,,,117,testing_3,sh2x,i,sh2x_i,sh2x_1_ishi.wav,sh2x_1_ishi.wav,,TRUE,FALSE,,,,,,,,,,,,,,f,0.209099999,space,0.605799999,,,,,,,,0,79,79,116,1,,
648174282bcdf5119b9105ca,2023-06-16_10h13.44.677,phx_ver10,2022.2.5,Win32,59.59475566,,,,,,,,,,,,69,testing_3,zh2j,i,zh2j_i,zh2j_1_izhi.wav,zh2j_1_izhi.wav,,TRUE,FALSE,,,,,,,,,,,,,,f,0.1583,space,0.5553,,,,,,,,0,80,80,68,1,,
648174282bcdf5119b9105ca,2023-06-16_10h13.44.677,phx_ver10,2022.2.5,Win32,59.59475566,,,,,,,,,,,,40,testing_3,zh2sh,e,zh2sh_e,zh2sh_8_eshe.wav,zh2sh_1_ezhe.wav,,FALSE,FALSE,,,,,,,,,,,,,,j,0.2157,space,0.551599999,,,,,,,,0,81,81,39,1,,
648174282bcdf5119b9105ca,2023-06-16_10h13.44.677,phx_ver10,2022.2.5,Win32,59.59475566,,,,,,,,,,,,45,testing_3,zh2sh,i,zh2sh_i,zh2sh_1_izhi.wav,zh2sh_1_izhi.wav,,TRUE,FALSE,,,,,,,,,,,,,,f,0.3515,space,0.7741,,,,,,,,0,82,82,44,1,,
648174282bcdf5119b9105ca,2023-06-16_10h13.44.677,phx_ver10,2022.2.5,Win32,59.59475566,,,,,,,,,,,,18,testing_2,zh2x,au,zh2x_au,zh2x_8_auxau.wav,zh2x_8_auxau.wav,,TRUE,FALSE,,,,,,,,,,,,,,f,0.3008,space,0.6926,,,,,,,,0,83,83,17,1,,
648174282bcdf5119b9105ca,2023-06-16_10h13.44.677,phx_ver10,2022.2.5,Win32,59.59475566,,,,,,,,,,,,62,testing_3,zh2j,e,zh2j_e,zh2j_8_eje.wav,zh2j_8_eje.wav,,TRUE,FALSE,,,,,,,,,,,,,,f,0.5025,space,0.9012,,,,,,,,0,84,84,61,1,,
648174282bcdf5119b9105ca,2023-06-16_10h13.44.677,phx_ver10,2022.2.5,Win32,59.59475566,,,,,,,,,,,,91,testing_3,j2x,ei,j2x_ei,j2x_1_eijei.wav,j2x_8_eixei.wav,,FALSE,FALSE,,,,,,,,,,,,,,j,1.2878,space,1.6878,,,,,,,,0,85,85,90,1,,
648174282bcdf5119b9105ca,2023-06-16_10h13.44.677,phx_ver10,2022.2.5,Win32,59.59475566,,,,,,,,,,,,63,testing_3,zh2j,e,zh2j_e,zh2j_1_ezhe.wav,zh2j_8_eje.wav,,FALSE,FALSE,,,,,,,,,,,,,,f,0.350099999,space,0.787099999,,,,,,,,0,86,86,62,1,,
648174282bcdf5119b9105ca,2023-06-16_10h13.44.677,phx_ver10,2022.2.5,Win32,59.59475566,,,,,,,,,,,,26,testing_3,zh2sh,a,zh2sh_a,zh2sh_8_asha.wav,zh2sh_8_asha.wav,,TRUE,FALSE,,,,,,,,,,,,,,f,0.172299999,space,0.578,,,,,,,,0,87,87,25,1,,
648174282bcdf5119b9105ca,2023-06-16_10h13.44.677,phx_ver10,2022.2.5,Win32,59.59475566,,,,,,,,,,,,115,testing_3,sh2x,ei,sh2x_ei,sh2x_1_eishei.wav,sh2x_8_eixei.wav,,FALSE,FALSE,,,,,,,,,,,,,,j,0.0948,space,0.4673,,,,,,,,0,88,88,114,1,,
648174282bcdf5119b9105ca,2023-06-16_10h13.44.677,phx_ver10,2022.2.5,Win32,59.59475566,,,,,,,,,,,,99,testing_3,sh2x,a,sh2x_a,sh2x_1_asha.wav,sh2x_8_axa.wav,,FALSE,FALSE,,,,,,,,,,,,,,f,0.388599999,space,0.7979,,,,,,,,0,89,89,98,1,,
648174282bcdf5119b9105ca,2023-06-16_10h13.44.677,phx_ver10,2022.2.5,Win32,59.59475566,,,,,,,,,,,,107,testing_3,sh2x,au,sh2x_au,sh2x_1_aushau.wav,sh2x_8_auxau.wav,,FALSE,FALSE,,,,,,,,,,,,,,f,0.390200001,space,0.8063,,,,,,,,0,90,90,106,1,,
648174282bcdf5119b9105ca,2023-06-16_10h13.44.677,phx_ver10,2022.2.5,Win32,59.59475566,,,,,,,,,,,,97,testing_3,sh2x,a,sh2x_a,sh2x_1_asha.wav,sh2x_1_asha.wav,,TRUE,FALSE,,,,,,,,,,,,,,f,0.2817,space,0.6942,,,,,,,,0,91,91,96,1,,
648174282bcdf5119b9105ca,2023-06-16_10h13.44.677,phx_ver10,2022.2.5,Win32,59.59475566,,,,,,,,,,,,144,testing_3,sh2j,i,sh2j_i,sh2j_8_iji.wav,sh2j_1_ishi.wav,,FALSE,FALSE,,,,,,,,,,,,,,j,0.9679,space,1.4274,,,,,,,,0,92,92,143,1,,
648174282bcdf5119b9105ca,2023-06-16_10h13.44.677,phx_ver10,2022.2.5,Win32,59.59475566,,,,,,,,,,,,110,testing_3,sh2x,e,sh2x_e,sh2x_8_exe.wav,sh2x_8_exe.wav,,TRUE,FALSE,,,,,,,,,,,,,,f,0.169,space,0.6114,,,,,,,,0,93,93,109,1,,
648174282bcdf5119b9105ca,2023-06-16_10h13.44.677,phx_ver10,2022.2.5,Win32,59.59475566,,,,,,,,,,,,67,testing_3,zh2j,ei,zh2j_ei,zh2j_1_eizhei.wav,zh2j_8_eijei.wav,,FALSE,FALSE,,,,,,,,,,,,,,f,0.251900001,space,0.7005,,,,,,,,0,94,94,66,1,,
648174282bcdf5119b9105ca,2023-06-16_10h13.44.677,phx_ver10,2022.2.5,Win32,59.59475566,,,,,,,,,,,,129,testing_3,sh2j,au,sh2j_au,sh2j_1_aushau.wav,sh2j_1_aushau.wav,,TRUE,FALSE,,,,,,,,,,,,,,f,0.9862,space,1.4084,,,,,,,,0,95,95,128,1,,
648174282bcdf5119b9105ca,2023-06-16_10h13.44.677,phx_ver10,2022.2.5,Win32,59.59475566,,,,,,,,,,,,133,testing_3,sh2j,e,sh2j_e,sh2j_1_eshe.wav,sh2j_1_eshe.wav,,TRUE,FALSE,,,,,,,,,,,,,,f,0.1682,space,0.584,,,,,,,,0,96,96,132,1,,
648174282bcdf5119b9105ca,2023-06-16_10h13.44.677,phx_ver10,2022.2.5,Win32,59.59475566,,,,,,,,,,,,113,testing_3,sh2x,ei,sh2x_ei,sh2x_1_eishei.wav,sh2x_1_eishei.wav,,TRUE,FALSE,,,,,,,,,,,,,,f,0.158900001,space,0.589,,,,,,,,0,97,97,112,1,,
648174282bcdf5119b9105ca,2023-06-16_10h13.44.677,phx_ver10,2022.2.5,Win32,59.59475566,,,,,,,,,,,,48,testing_3,zh2sh,i,zh2sh_i,zh2sh_8_ishi.wav,zh2sh_1_izhi.wav,,FALSE,FALSE,,,,,,,,,,,,,,j,0.0097,space,0.385,,,,,,,,0,98,98,47,1,,
648174282bcdf5119b9105ca,2023-06-16_10h13.44.677,phx_ver10,2022.2.5,Win32,59.59475566,,,,,,,,,,,,116,testing_3,sh2x,ei,sh2x_ei,sh2x_8_eixei.wav,sh2x_1_eishei.wav,,FALSE,FALSE,,,,,,,,,,,,,,f,0.334599999,space,0.7351,,,,,,,,0,99,99,115,1,,
648174282bcdf5119b9105ca,2023-06-16_10h13.44.677,phx_ver10,2022.2.5,Win32,59.59475566,,,,,,,,,,,,13,testing_2,zh2x,ai,zh2x_ai,zh2x_1_aizhai.wav,zh2x_1_aizhai.wav,,TRUE,FALSE,,,,,,,,,,,,,,f,0.4439,space,0.8504,,,,,,,,0,100,100,12,1,,
648174282bcdf5119b9105ca,2023-06-16_10h13.44.677,phx_ver10,2022.2.5,Win32,59.59475566,,,,,,,,,,,,121,testing_3,sh2j,a,sh2j_a,sh2j_1_asha.wav,sh2j_1_asha.wav,,TRUE,FALSE,,,,,,,,,,,,,,f,0.1476,space,0.5343,,,,,,,,0,101,101,120,1,,
648174282bcdf5119b9105ca,2023-06-16_10h13.44.677,phx_ver10,2022.2.5,Win32,59.59475566,,,,,,,,,,,,42,testing_3,zh2sh,ei,zh2sh_ei,zh2sh_8_eishei.wav,zh2sh_8_eishei.wav,,TRUE,FALSE,,,,,,,,,,,,,,f,0.1338,space,0.5405,,,,,,,,0,102,102,41,1,,
648174282bcdf5119b9105ca,2023-06-16_10h13.44.677,phx_ver10,2022.2.5,Win32,59.59475566,,,,,,,,,,,,139,testing_3,sh2j,ei,sh2j_ei,sh2j_1_eishei.wav,sh2j_8_eijei.wav,,FALSE,FALSE,,,,,,,,,,,,,,j,0.0839,space,0.4084,,,,,,,,0,103,103,138,1,,
648174282bcdf5119b9105ca,2023-06-16_10h13.44.677,phx_ver10,2022.2.5,Win32,59.59475566,,,,,,,,,,,,46,testing_3,zh2sh,i,zh2sh_i,zh2sh_8_ishi.wav,zh2sh_8_ishi.wav,,TRUE,FALSE,,,,,,,,,,,,,,f,0.1192,space,0.5024,,,,,,,,0,104,104,45,1,,
648174282bcdf5119b9105ca,2023-06-16_10h13.44.677,phx_ver10,2022.2.5,Win32,59.59475566,,,,,,,,,,,,104,testing_3,sh2x,ai,sh2x_ai,sh2x_8_aixai.wav,sh2x_1_aishai.wav,,FALSE,FALSE,,,,,,,,,,,,,,f,0.1187,space,0.5225,,,,,,,,0,105,105,103,1,,
648174282bcdf5119b9105ca,2023-06-16_10h13.44.677,phx_ver10,2022.2.5,Win32,59.59475566,,,,,,,,,,,,77,testing_3,j2x,ai,j2x_ai,j2x_1_aijai.wav,j2x_1_aijai.wav,,TRUE,FALSE,,,,,,,,,,,,,,j,0.163900001,space,0.5401,,,,,,,,0,106,106,76,1,,
648174282bcdf5119b9105ca,2023-06-16_10h13.44.677,phx_ver10,2022.2.5,Win32,59.59475566,,,,,,,,,,,,89,testing_3,j2x,ei,j2x_ei,j2x_1_eijei.wav,j2x_1_eijei.wav,,TRUE,FALSE,,,,,,,,,,,,,,f,0.2335,space,0.6173,,,,,,,,0,107,107,88,1,,
648174282bcdf5119b9105ca,2023-06-16_10h13.44.677,phx_ver10,2022.2.5,Win32,59.59475566,,,,,,,,,,,,141,testing_3,sh2j,i,sh2j_i,sh2j_1_ishi.wav,sh2j_1_ishi.wav,,TRUE,FALSE,,,,,,,,,,,,,,f,0.541599999,space,0.954599999,,,,,,,,0,108,108,140,1,,
648174282bcdf5119b9105ca,2023-06-16_10h13.44.677,phx_ver10,2022.2.5,Win32,59.59475566,,,,,,,,,,,,55,testing_3,zh2j,ai,zh2j_ai,zh2j_1_aizhai.wav,zh2j_8_aijai.wav,,FALSE,FALSE,,,,,,,,,,,,,,f,0.217400001,space,0.605900001,,,,,,,,0,109,109,54,1,,
648174282bcdf5119b9105ca,2023-06-16_10h13.44.677,phx_ver10,2022.2.5,Win32,59.59475566,,,,,,,,,,,,134,testing_3,sh2j,e,sh2j_e,sh2j_8_eje.wav,sh2j_8_eje.wav,,TRUE,FALSE,,,,,,,,,,,,,,f,0.059,space,0.4535,,,,,,,,0,110,110,133,1,,
648174282bcdf5119b9105ca,2023-06-16_10h13.44.677,phx_ver10,2022.2.5,Win32,59.59475566,,,,,,,,,,,,52,testing_3,zh2j,a,zh2j_a,zh2j_8_aja.wav,zh2j_1_azha.wav,,FALSE,FALSE,,,,,,,,,,,,,,f,0.1688,space,0.5509,,,,,,,,0,111,111,51,1,,
648174282bcdf5119b9105ca,2023-06-16_10h13.44.677,phx_ver10,2022.2.5,Win32,59.59475566,,,,,,,,,,,,124,testing_3,sh2j,a,sh2j_a,sh2j_8_aja.wav,sh2j_1_asha.wav,,FALSE,FALSE,,,,,,,,,,,,,,j,0.0371,space,0.373900001,,,,,,,,0,112,112,123,1,,
648174282bcdf5119b9105ca,2023-06-16_10h13.44.677,phx_ver10,2022.2.5,Win32,59.59475566,,,,,,,,,,,,100,testing_3,sh2x,a,sh2x_a,sh2x_8_axa.wav,sh2x_1_asha.wav,,FALSE,FALSE,,,,,,,,,,,,,,f,1.2169,space,1.6169,,,,,,,,0,113,113,99,1,,
648174282bcdf5119b9105ca,2023-06-16_10h13.44.677,phx_ver10,2022.2.5,Win32,59.59475566,,,,,,,,,,,,126,testing_3,sh2j,ai,sh2j_ai,sh2j_8_aijai.wav,sh2j_8_aijai.wav,,TRUE,FALSE,,,,,,,,,,,,,,f,0.195400001,space,0.628900001,,,,,,,,0,114,114,125,1,,
648174282bcdf5119b9105ca,2023-06-16_10h13.44.677,phx_ver10,2022.2.5,Win32,59.59475566,,,,,,,,,,,,102,testing_3,sh2x,ai,sh2x_ai,sh2x_8_aixai.wav,sh2x_8_aixai.wav,,TRUE,FALSE,,,,,,,,,,,,,,f,0.101,space,0.5013,,,,,,,,0,115,115,101,1,,
648174282bcdf5119b9105ca,2023-06-16_10h13.44.677,phx_ver10,2022.2.5,Win32,59.59475566,,,,,,,,,,,,114,testing_3,sh2x,ei,sh2x_ei,sh2x_8_eixei.wav,sh2x_8_eixei.wav,,TRUE,FALSE,,,,,,,,,,,,,,f,0.1819,space,0.583,,,,,,,,0,116,116,113,1,,
648174282bcdf5119b9105ca,2023-06-16_10h13.44.677,phx_ver10,2022.2.5,Win32,59.59475566,,,,,,,,,,,,29,testing_3,zh2sh,ai,zh2sh_ai,zh2sh_1_aizhai.wav,zh2sh_1_aizhai.wav,,TRUE,FALSE,,,,,,,,,,,,,,f,0.3365,space,0.7223,,,,,,,,0,117,117,28,1,,
648174282bcdf5119b9105ca,2023-06-16_10h13.44.677,phx_ver10,2022.2.5,Win32,59.59475566,,,,,,,,,,,,131,testing_3,sh2j,au,sh2j_au,sh2j_1_aushau.wav,sh2j_8_aujau.wav,,FALSE,FALSE,,,,,,,,,,,,,,j,0.050900001,space,0.4202,,,,,,,,0,118,118,130,1,,
648174282bcdf5119b9105ca,2023-06-16_10h13.44.677,phx_ver10,2022.2.5,Win32,59.59475566,,,,,,,,,,,,70,testing_3,zh2j,i,zh2j_i,zh2j_8_iji.wav,zh2j_8_iji.wav,,TRUE,FALSE,,,,,,,,,,,,,,f,0.901,space,1.283400001,,,,,,,,0,119,119,69,1,,
648174282bcdf5119b9105ca,2023-06-16_10h13.44.677,phx_ver10,2022.2.5,Win32,59.59475566,,,,,,,,,,,,132,testing_3,sh2j,au,sh2j_au,sh2j_8_aujau.wav,sh2j_1_aushau.wav,,FALSE,FALSE,,,,,,,,,,,,,,j,0.066400001,space,0.4001,,,,,,,,0,120,120,131,1,,
648174282bcdf5119b9105ca,2023-06-16_10h13.44.677,phx_ver10,2022.2.5,Win32,59.59475566,,,,,,,,,,,,142,testing_3,sh2j,i,sh2j_i,sh2j_8_iji.wav,sh2j_8_iji.wav,,TRUE,FALSE,,,,,,,,,,,,,,f,0.0834,space,0.5007,,,,,,,,0,121,121,141,1,,
648174282bcdf5119b9105ca,2023-06-16_10h13.44.677,phx_ver10,2022.2.5,Win32,59.59475566,,,,,,,,,,,,73,testing_3,j2x,a,j2x_a,j2x_1_aja.wav,j2x_1_aja.wav,,TRUE,FALSE,,,,,,,,,,,,,,f,0.0839,space,0.467,,,,,,,,0,122,122,72,1,,
648174282bcdf5119b9105ca,2023-06-16_10h13.44.677,phx_ver10,2022.2.5,Win32,59.59475566,,,,,,,,,,,,94,testing_3,j2x,i,j2x_i,j2x_8_ixi.wav,j2x_8_ixi.wav,,TRUE,FALSE,,,,,,,,,,,,,,f,0.0585,space,0.7766,,,,,,,,0,123,123,93,1,,
648174282bcdf5119b9105ca,2023-06-16_10h13.44.677,phx_ver10,2022.2.5,Win32,59.59475566,,,,,,,,,,,,53,testing_3,zh2j,ai,zh2j_ai,zh2j_1_aizhai.wav,zh2j_1_aizhai.wav,,TRUE,FALSE,,,,,,,,,,,,,,f,0.2358,space,0.6397,,,,,,,,0,124,124,52,1,,
648174282bcdf5119b9105ca,2023-06-16_10h13.44.677,phx_ver10,2022.2.5,Win32,59.59475566,,,,,,,,,,,,86,testing_3,j2x,e,j2x_e,j2x_8_exe.wav,j2x_8_exe.wav,,TRUE,FALSE,,,,,,,,,,,,,,f,1.068900001,space,1.5017,,,,,,,,0,125,125,85,1,,
648174282bcdf5119b9105ca,2023-06-16_10h13.44.677,phx_ver10,2022.2.5,Win32,59.59475566,,,,,,,,,,,,128,testing_3,sh2j,ai,sh2j_ai,sh2j_8_aijai.wav,sh2j_1_aishai.wav,,FALSE,FALSE,,,,,,,,,,,,,,j,0.119900001,space,0.5186,,,,,,,,0,126,126,127,1,,
648174282bcdf5119b9105ca,2023-06-16_10h13.44.677,phx_ver10,2022.2.5,Win32,59.59475566,,,,,,,,,,,,84,testing_3,j2x,au,j2x_au,j2x_8_auxau.wav,j2x_1_aujau.wav,,FALSE,FALSE,,,,,,,,,,,,,,j,0.068900001,space,0.471400001,,,,,,,,0,127,127,83,1,,
648174282bcdf5119b9105ca,2023-06-16_10h13.44.677,phx_ver10,2022.2.5,Win32,59.59475566,,,,,,,,,,,,140,testing_3,sh2j,ei,sh2j_ei,sh2j_8_eijei.wav,sh2j_1_eishei.wav,,FALSE,FALSE,,,,,,,,,,,,,,j,0.0077,space,0.408400001,,,,,,,,0,128,128,139,1,,
648174282bcdf5119b9105ca,2023-06-16_10h13.44.677,phx_ver10,2022.2.5,Win32,59.59475566,,,,,,,,,,,,14,testing_2,zh2x,ai,zh2x_ai,zh2x_8_aixai.wav,zh2x_8_aixai.wav,,TRUE,FALSE,,,,,,,,,,,,,,f,0.3843,space,0.8009,,,,,,,,0,129,129,13,1,,
648174282bcdf5119b9105ca,2023-06-16_10h13.44.677,phx_ver10,2022.2.5,Win32,59.59475566,,,,,,,,,,,,125,testing_3,sh2j,ai,sh2j_ai,sh2j_1_aishai.wav,sh2j_1_aishai.wav,,TRUE,FALSE,,,,,,,,,,,,,,f,0.2854,space,0.736,,,,,,,,0,130,130,124,1,,
648174282bcdf5119b9105ca,2023-06-16_10h13.44.677,phx_ver10,2022.2.5,Win32,59.59475566,,,,,,,,,,,,64,testing_3,zh2j,e,zh2j_e,zh2j_8_eje.wav,zh2j_1_ezhe.wav,,FALSE,FALSE,,,,,,,,,,,,,,f,0.327,space,0.7487,,,,,,,,0,131,131,63,1,,
648174282bcdf5119b9105ca,2023-06-16_10h13.44.677,phx_ver10,2022.2.5,Win32,59.59475566,,,,,,,,,,,,109,testing_3,sh2x,e,sh2x_e,sh2x_1_eshe.wav,sh2x_1_eshe.wav,,TRUE,FALSE,,,,,,,,,,,,,,f,0.115400001,space,0.5483,,,,,,,,0,132,132,108,1,,
648174282bcdf5119b9105ca,2023-06-16_10h13.44.677,phx_ver10,2022.2.5,Win32,59.59475566,,,,,,,,,,,,16,testing_2,zh2x,ai,zh2x_ai,zh2x_8_aixai.wav,zh2x_1_aizhai.wav,,FALSE,FALSE,,,,,,,,,,,,,,j,0.118,space,0.6601,,,,,,,,0,133,133,15,1,,
648174282bcdf5119b9105ca,2023-06-16_10h13.44.677,phx_ver10,2022.2.5,Win32,59.59475566,,,,,,,,,,,,76,testing_3,j2x,a,j2x_a,j2x_8_axa.wav,j2x_1_aja.wav,,FALSE,FALSE,,,,,,,,,,,,,,j,1.000799999,space,1.3689,,,,,,,,0,134,134,75,1,,
648174282bcdf5119b9105ca,2023-06-16_10h13.44.677,phx_ver10,2022.2.5,Win32,59.59475566,,,,,,,,,,,,72,testing_3,zh2j,i,zh2j_i,zh2j_8_iji.wav,zh2j_1_izhi.wav,,FALSE,FALSE,,,,,,,,,,,,,,f,0.885,space,1.352,,,,,,,,0,135,135,71,1,,
648174282bcdf5119b9105ca,2023-06-16_10h13.44.677,phx_ver10,2022.2.5,Win32,59.59475566,,,,,,,,,,,,61,testing_3,zh2j,e,zh2j_e,zh2j_1_ezhe.wav,zh2j_1_ezhe.wav,,TRUE,FALSE,,,,,,,,,,,,,,f,0.141,space,0.5546,,,,,,,,0,136,136,60,1,,
648174282bcdf5119b9105ca,2023-06-16_10h13.44.677,phx_ver10,2022.2.5,Win32,59.59475566,,,,,,,,,,,,111,testing_3,sh2x,e,sh2x_e,sh2x_1_eshe.wav,sh2x_8_exe.wav,,FALSE,FALSE,,,,,,,,,,,,,,j,0.0115,space,0.4172,,,,,,,,0,137,137,110,1,,
648174282bcdf5119b9105ca,2023-06-16_10h13.44.677,phx_ver10,2022.2.5,Win32,59.59475566,,,,,,,,,,,,103,testing_3,sh2x,ai,sh2x_ai,sh2x_1_aishai.wav,sh2x_8_aixai.wav,,FALSE,FALSE,,,,,,,,,,,,,,f,0.167400001,space,0.5715,,,,,,,,0,138,138,102,1,,
648174282bcdf5119b9105ca,2023-06-16_10h13.44.677,phx_ver10,2022.2.5,Win32,59.59475566,,,,,,,,,,,,21,testing_2,zh2x,ei,zh2x_ei,zh2x_1_eizhei.wav,zh2x_1_eizhei.wav,,TRUE,FALSE,,,,,,,,,,,,,,f,0.5414,space,0.9839,,,,,,,,0,139,139,20,1,,
648174282bcdf5119b9105ca,2023-06-16_10h13.44.677,phx_ver10,2022.2.5,Win32,59.59475566,,,,,,,,,,,,54,testing_3,zh2j,ai,zh2j_ai,zh2j_8_aijai.wav,zh2j_8_aijai.wav,,TRUE,FALSE,,,,,,,,,,,,,,f,0.3523,space,0.7703,,,,,,,,0,140,140,53,1,,
648174282bcdf5119b9105ca,2023-06-16_10h13.44.677,phx_ver10,2022.2.5,Win32,59.59475566,,,,,,,,,,,,137,testing_3,sh2j,ei,sh2j_ei,sh2j_1_eishei.wav,sh2j_1_eishei.wav,,TRUE,FALSE,,,,,,,,,,,,,,f,0.116900001,space,0.52,,,,,,,,0,141,141,136,1,,
648174282bcdf5119b9105ca,2023-06-16_10h13.44.677,phx_ver10,2022.2.5,Win32,59.59475566,,,,,,,,,,,,15,testing_2,zh2x,ai,zh2x_ai,zh2x_1_aizhai.wav,zh2x_8_aixai.wav,,FALSE,FALSE,,,,,,,,,,,,,,j,0.085799999,space,0.5065,,,,,,,,0,142,142,14,1,,
648174282bcdf5119b9105ca,2023-06-16_10h13.44.677,phx_ver10,2022.2.5,Win32,59.59475566,,,,,,,,,,,,6,testing_1,zh2x,e,zh2x_e,zh2x_8_exe.wav,zh2x_8_exe_copy.wav,,TRUE,TRUE,,,,,,,,,,,,,,f,0.2532,space,0.6266,,,,,,,,0,143,143,5,1,,
648174282bcdf5119b9105ca,2023-06-16_10h13.44.677,phx_ver10,2022.2.5,Win32,59.59475566,,,,,,,,,,,,,,,,,,,,,,,,,,,,,,,,,,,,,,,,,,,,,,,,,,,space,2.2838
